StudyLoop.thisRepN,StudyLoop.thisTrialN,StudyLoop.thisN,StudyLoop.thisIndex,TestLoop.thisRepN,TestLoop.thisTrialN,TestLoop.thisN,TestLoop.thisIndex,textCondition.started,textCondition.stopped,keyCondition.keys,keyCondition.rt,keyCondition.started,keyCondition.stopped,Condition,textWelcome.started,textWelcome.stopped,keyWelcome.keys,keyWelcome.rt,keyWelcome.started,keyWelcome.stopped,textAloud.started,textAloud.stopped,textSilent.started,textSilent.stopped,textSing.started,textSing.stopped,conditional_text.started,conditional_text.stopped,textBlank500.started,textBlank500.stopped,study_word,study_num,study_order,study_type,word_color,textStudy.started,textStudy.stopped,keyStudy.keys,keyStudy.started,keyStudy.stopped,textTestInstructions.started,textTestInstructions.stopped,key_resp_3.keys,key_resp_3.rt,key_resp_3.started,key_resp_3.stopped,test_word,test_num,test_order,test_condition,old_new_test,test_word_original_color,textConf.started,textConf.stopped,textConfScale.started,textConfScale.stopped,keyConf.keys,keyConf.rt,keyConf.started,keyConf.stopped,confidence response time,textTestBlank.started,textTestBlank.stopped,textRKN.started,textRKN.stopped,textRKNScale.started,textRKNScale.stopped,keyRKN.keys,keyRKN.rt,keyRKN.started,keyRKN.stopped,rkn response time,textEnd.started,textEnd.stopped,participant,session,date,expName,psychopyVersion,frameRate,
,,,,,,,,85.84243950000382,None,a,98.9761986000085,85.84243950000382,None,,,,,,,,,,,,,,,,,,,,,,,,,,,,,,,,,,,,,,,,,,,,,,,,,,,,,,,,,,,,,,52 silent,001,2022_Sep_20_1057,ProdSingRedoBetween,2021.2.3,59.8890256393178,
,,,,,,,,,,,,,,SilentTest,184.88466920000792,None,space,7.862054600002011,184.88466920000792,None,,,,,,,,,,,,,,,,,,,,,,,,,,,,,,,,,,,,,,,,,,,,,,,,,,,,,,,52 silent,001,2022_Sep_20_1057,ProdSingRedoBetween,2021.2.3,59.8890256393178,
0,0,0,0,,,,,,,,,,,,,,,,,,184.88466920000792,None,184.88466920000792,None,184.88466920000792,None,184.88466920000792,None,195.26842910000414,None,season,40,1,silent,blue,193.26872300000105,None,None,193.26872300000105,None,,,,,,,,,,,,,,,,,,,,,,,,,,,,,,,,,,,52 silent,001,2022_Sep_20_1057,ProdSingRedoBetween,2021.2.3,59.8890256393178,
1,0,1,0,,,,,,,,,,,,,,,,,,,,,,,,,,197.78793760000553,None,message,1,2,silent,yellow,195.77499950000492,None,None,195.77499950000492,None,,,,,,,,,,,,,,,,,,,,,,,,,,,,,,,,,,,52 silent,001,2022_Sep_20_1057,ProdSingRedoBetween,2021.2.3,59.8890256393178,
2,0,2,0,,,,,,,,,,,,,,,,,,,,,,,,,,200.2900088000024,None,carry,27,3,silent,yellow,198.28850500000408,None,None,198.28850500000408,None,,,,,,,,,,,,,,,,,,,,,,,,,,,,,,,,,,,52 silent,001,2022_Sep_20_1057,ProdSingRedoBetween,2021.2.3,59.8890256393178,
3,0,3,0,,,,,,,,,,,,,,,,,,,,,,,,,,202.7930398000026,None,profession,58,4,silent,blue,200.79222560000198,None,None,200.79222560000198,None,,,,,,,,,,,,,,,,,,,,,,,,,,,,,,,,,,,52 silent,001,2022_Sep_20_1057,ProdSingRedoBetween,2021.2.3,59.8890256393178,
4,0,4,0,,,,,,,,,,,,,,,,,,,,,,,,,,205.2950351000036,None,sight,82,5,silent,red,203.29543290000584,None,None,203.29543290000584,None,,,,,,,,,,,,,,,,,,,,,,,,,,,,,,,,,,,52 silent,001,2022_Sep_20_1057,ProdSingRedoBetween,2021.2.3,59.8890256393178,
5,0,5,0,,,,,,,,,,,,,,,,,,,,,,,,,,207.79769070001203,None,testimony,28,6,silent,yellow,205.7984126000083,None,None,205.7984126000083,None,,,,,,,,,,,,,,,,,,,,,,,,,,,,,,,,,,,52 silent,001,2022_Sep_20_1057,ProdSingRedoBetween,2021.2.3,59.8890256393178,
6,0,6,0,,,,,,,,,,,,,,,,,,,,,,,,,,210.29999680000765,None,little,32,7,silent,blue,208.2987596000021,None,None,208.2987596000021,None,,,,,,,,,,,,,,,,,,,,,,,,,,,,,,,,,,,52 silent,001,2022_Sep_20_1057,ProdSingRedoBetween,2021.2.3,59.8890256393178,
7,0,7,0,,,,,,,,,,,,,,,,,,,,,,,,,,212.80281350000587,None,burden,13,8,silent,yellow,210.803207200006,None,None,210.803207200006,None,,,,,,,,,,,,,,,,,,,,,,,,,,,,,,,,,,,52 silent,001,2022_Sep_20_1057,ProdSingRedoBetween,2021.2.3,59.8890256393178,
8,0,8,0,,,,,,,,,,,,,,,,,,,,,,,,,,215.3217299000098,None,dozen,55,9,silent,blue,213.31613830001152,None,None,213.31613830001152,None,,,,,,,,,,,,,,,,,,,,,,,,,,,,,,,,,,,52 silent,001,2022_Sep_20_1057,ProdSingRedoBetween,2021.2.3,59.8890256393178,
9,0,9,0,,,,,,,,,,,,,,,,,,,,,,,,,,217.82442150000134,None,tennis,3,10,silent,yellow,215.82264110000688,None,None,215.82264110000688,None,,,,,,,,,,,,,,,,,,,,,,,,,,,,,,,,,,,52 silent,001,2022_Sep_20_1057,ProdSingRedoBetween,2021.2.3,59.8890256393178,
10,0,10,0,,,,,,,,,,,,,,,,,,,,,,,,,,220.34317640001245,None,fellow,52,11,silent,blue,218.32824630000687,None,None,218.32824630000687,None,,,,,,,,,,,,,,,,,,,,,,,,,,,,,,,,,,,52 silent,001,2022_Sep_20_1057,ProdSingRedoBetween,2021.2.3,59.8890256393178,
11,0,11,0,,,,,,,,,,,,,,,,,,,,,,,,,,222.84621560000232,None,bicycle,24,12,silent,yellow,220.84438360000786,None,None,220.84438360000786,None,,,,,,,,,,,,,,,,,,,,,,,,,,,,,,,,,,,52 silent,001,2022_Sep_20_1057,ProdSingRedoBetween,2021.2.3,59.8890256393178,
12,0,12,0,,,,,,,,,,,,,,,,,,,,,,,,,,225.34891369999968,None,union,49,13,silent,blue,223.34916900000826,None,None,223.34916900000826,None,,,,,,,,,,,,,,,,,,,,,,,,,,,,,,,,,,,52 silent,001,2022_Sep_20_1057,ProdSingRedoBetween,2021.2.3,59.8890256393178,
13,0,13,0,,,,,,,,,,,,,,,,,,,,,,,,,,227.8508881000016,None,listen,8,14,silent,yellow,225.8511620000063,None,None,225.8511620000063,None,,,,,,,,,,,,,,,,,,,,,,,,,,,,,,,,,,,52 silent,001,2022_Sep_20_1057,ProdSingRedoBetween,2021.2.3,59.8890256393178,
14,0,14,0,,,,,,,,,,,,,,,,,,,,,,,,,,230.35379820001253,None,running,70,15,silent,red,228.35316550001153,None,None,228.35316550001153,None,,,,,,,,,,,,,,,,,,,,,,,,,,,,,,,,,,,52 silent,001,2022_Sep_20_1057,ProdSingRedoBetween,2021.2.3,59.8890256393178,
15,0,15,0,,,,,,,,,,,,,,,,,,,,,,,,,,232.85584120001295,None,birth,19,16,silent,yellow,230.8539085000084,None,None,230.8539085000084,None,,,,,,,,,,,,,,,,,,,,,,,,,,,,,,,,,,,52 silent,001,2022_Sep_20_1057,ProdSingRedoBetween,2021.2.3,59.8890256393178,
16,0,16,0,,,,,,,,,,,,,,,,,,,,,,,,,,235.37495970001328,None,husband,39,17,silent,blue,233.36461220000638,None,None,233.36461220000638,None,,,,,,,,,,,,,,,,,,,,,,,,,,,,,,,,,,,52 silent,001,2022_Sep_20_1057,ProdSingRedoBetween,2021.2.3,59.8890256393178,
17,0,17,0,,,,,,,,,,,,,,,,,,,,,,,,,,237.87786430001142,None,period,10,18,silent,yellow,235.87618640001165,None,None,235.87618640001165,None,,,,,,,,,,,,,,,,,,,,,,,,,,,,,,,,,,,52 silent,001,2022_Sep_20_1057,ProdSingRedoBetween,2021.2.3,59.8890256393178,
18,0,18,0,,,,,,,,,,,,,,,,,,,,,,,,,,240.38035400000808,None,narrow,22,19,silent,yellow,238.3808233000018,None,None,238.3808233000018,None,,,,,,,,,,,,,,,,,,,,,,,,,,,,,,,,,,,52 silent,001,2022_Sep_20_1057,ProdSingRedoBetween,2021.2.3,59.8890256393178,
19,0,19,0,,,,,,,,,,,,,,,,,,,,,,,,,,242.89943300001323,None,series,31,20,silent,blue,240.8837906000117,None,None,240.8837906000117,None,,,,,,,,,,,,,,,,,,,,,,,,,,,,,,,,,,,52 silent,001,2022_Sep_20_1057,ProdSingRedoBetween,2021.2.3,59.8890256393178,
20,0,20,0,,,,,,,,,,,,,,,,,,,,,,,,,,245.41843780000636,None,position,79,21,silent,red,243.40342280000914,None,None,243.40342280000914,None,,,,,,,,,,,,,,,,,,,,,,,,,,,,,,,,,,,52 silent,001,2022_Sep_20_1057,ProdSingRedoBetween,2021.2.3,59.8890256393178,
21,0,21,0,,,,,,,,,,,,,,,,,,,,,,,,,,247.9380158000131,None,science,68,22,silent,red,245.92214700000477,None,None,245.92214700000477,None,,,,,,,,,,,,,,,,,,,,,,,,,,,,,,,,,,,52 silent,001,2022_Sep_20_1057,ProdSingRedoBetween,2021.2.3,59.8890256393178,
22,0,22,0,,,,,,,,,,,,,,,,,,,,,,,,,,250.4404868999991,None,light,84,23,silent,red,248.4392649000074,None,None,248.4392649000074,None,,,,,,,,,,,,,,,,,,,,,,,,,,,,,,,,,,,52 silent,001,2022_Sep_20_1057,ProdSingRedoBetween,2021.2.3,59.8890256393178,
23,0,23,0,,,,,,,,,,,,,,,,,,,,,,,,,,252.95926230000623,None,attack,72,24,silent,red,250.94634660000156,None,None,250.94634660000156,None,,,,,,,,,,,,,,,,,,,,,,,,,,,,,,,,,,,52 silent,001,2022_Sep_20_1057,ProdSingRedoBetween,2021.2.3,59.8890256393178,
24,0,24,0,,,,,,,,,,,,,,,,,,,,,,,,,,255.46212890000606,None,turkey,86,25,silent,red,253.46221860000514,None,None,253.46221860000514,None,,,,,,,,,,,,,,,,,,,,,,,,,,,,,,,,,,,52 silent,001,2022_Sep_20_1057,ProdSingRedoBetween,2021.2.3,59.8890256393178,
25,0,25,0,,,,,,,,,,,,,,,,,,,,,,,,,,257.96471179999935,None,commercial,26,26,silent,yellow,255.96446080000896,None,None,255.96446080000896,None,,,,,,,,,,,,,,,,,,,,,,,,,,,,,,,,,,,52 silent,001,2022_Sep_20_1057,ProdSingRedoBetween,2021.2.3,59.8890256393178,
26,0,26,0,,,,,,,,,,,,,,,,,,,,,,,,,,260.4838298000104,None,benefit,88,27,silent,red,258.46818920000806,None,None,258.46818920000806,None,,,,,,,,,,,,,,,,,,,,,,,,,,,,,,,,,,,52 silent,001,2022_Sep_20_1057,ProdSingRedoBetween,2021.2.3,59.8890256393178,
27,0,27,0,,,,,,,,,,,,,,,,,,,,,,,,,,263.0026097000082,None,primary,44,28,silent,blue,260.9885149000038,None,None,260.9885149000038,None,,,,,,,,,,,,,,,,,,,,,,,,,,,,,,,,,,,52 silent,001,2022_Sep_20_1057,ProdSingRedoBetween,2021.2.3,59.8890256393178,
28,0,28,0,,,,,,,,,,,,,,,,,,,,,,,,,,265.50540439999895,None,opening,30,29,silent,blue,263.50504220000585,None,None,263.50504220000585,None,,,,,,,,,,,,,,,,,,,,,,,,,,,,,,,,,,,52 silent,001,2022_Sep_20_1057,ProdSingRedoBetween,2021.2.3,59.8890256393178,
29,0,29,0,,,,,,,,,,,,,,,,,,,,,,,,,,268.00784080001176,None,produce,21,30,silent,yellow,266.00853600000846,None,None,266.00853600000846,None,,,,,,,,,,,,,,,,,,,,,,,,,,,,,,,,,,,52 silent,001,2022_Sep_20_1057,ProdSingRedoBetween,2021.2.3,59.8890256393178,
30,0,30,0,,,,,,,,,,,,,,,,,,,,,,,,,,270.5270353000087,None,treatment,7,31,silent,yellow,268.5124100000103,None,None,268.5124100000103,None,,,,,,,,,,,,,,,,,,,,,,,,,,,,,,,,,,,52 silent,001,2022_Sep_20_1057,ProdSingRedoBetween,2021.2.3,59.8890256393178,
31,0,31,0,,,,,,,,,,,,,,,,,,,,,,,,,,273.02926920000755,None,command,51,32,silent,blue,271.02892480000446,None,None,271.02892480000446,None,,,,,,,,,,,,,,,,,,,,,,,,,,,,,,,,,,,52 silent,001,2022_Sep_20_1057,ProdSingRedoBetween,2021.2.3,59.8890256393178,
32,0,32,0,,,,,,,,,,,,,,,,,,,,,,,,,,275.5319329000049,None,safety,34,33,silent,blue,273.5327071000065,None,None,273.5327071000065,None,,,,,,,,,,,,,,,,,,,,,,,,,,,,,,,,,,,52 silent,001,2022_Sep_20_1057,ProdSingRedoBetween,2021.2.3,59.8890256393178,
33,0,33,0,,,,,,,,,,,,,,,,,,,,,,,,,,278.03466230000777,None,election,5,34,silent,yellow,276.0332165,None,None,276.0332165,None,,,,,,,,,,,,,,,,,,,,,,,,,,,,,,,,,,,52 silent,001,2022_Sep_20_1057,ProdSingRedoBetween,2021.2.3,59.8890256393178,
34,0,34,0,,,,,,,,,,,,,,,,,,,,,,,,,,280.536924,None,spoke,11,35,silent,yellow,278.53831240000727,None,None,278.53831240000727,None,,,,,,,,,,,,,,,,,,,,,,,,,,,,,,,,,,,52 silent,001,2022_Sep_20_1057,ProdSingRedoBetween,2021.2.3,59.8890256393178,
35,0,35,0,,,,,,,,,,,,,,,,,,,,,,,,,,283.03983020001033,None,production,57,36,silent,blue,281.03901260001294,None,None,281.03901260001294,None,,,,,,,,,,,,,,,,,,,,,,,,,,,,,,,,,,,52 silent,001,2022_Sep_20_1057,ProdSingRedoBetween,2021.2.3,59.8890256393178,
36,0,36,0,,,,,,,,,,,,,,,,,,,,,,,,,,285.54172870000184,None,appearance,66,37,silent,red,283.54296220000833,None,None,283.54296220000833,None,,,,,,,,,,,,,,,,,,,,,,,,,,,,,,,,,,,52 silent,001,2022_Sep_20_1057,ProdSingRedoBetween,2021.2.3,59.8890256393178,
37,0,37,0,,,,,,,,,,,,,,,,,,,,,,,,,,288.0449160999997,None,waste,78,38,silent,red,286.0449653000105,None,None,286.0449653000105,None,,,,,,,,,,,,,,,,,,,,,,,,,,,,,,,,,,,52 silent,001,2022_Sep_20_1057,ProdSingRedoBetween,2021.2.3,59.8890256393178,
38,0,38,0,,,,,,,,,,,,,,,,,,,,,,,,,,290.54669719999947,None,health,87,39,silent,red,288.5466613000026,None,None,288.5466613000026,None,,,,,,,,,,,,,,,,,,,,,,,,,,,,,,,,,,,52 silent,001,2022_Sep_20_1057,ProdSingRedoBetween,2021.2.3,59.8890256393178,
39,0,39,0,,,,,,,,,,,,,,,,,,,,,,,,,,293.04949420000776,None,whole,63,40,silent,red,291.05010140000377,None,None,291.05010140000377,None,,,,,,,,,,,,,,,,,,,,,,,,,,,,,,,,,,,52 silent,001,2022_Sep_20_1057,ProdSingRedoBetween,2021.2.3,59.8890256393178,
40,0,40,0,,,,,,,,,,,,,,,,,,,,,,,,,,295.5516823000071,None,beginning,62,41,silent,red,293.55131330000586,None,None,293.55131330000586,None,,,,,,,,,,,,,,,,,,,,,,,,,,,,,,,,,,,52 silent,001,2022_Sep_20_1057,ProdSingRedoBetween,2021.2.3,59.8890256393178,
41,0,41,0,,,,,,,,,,,,,,,,,,,,,,,,,,298.07055210000544,None,native,17,42,silent,yellow,296.06011770000623,None,None,296.06011770000623,None,,,,,,,,,,,,,,,,,,,,,,,,,,,,,,,,,,,52 silent,001,2022_Sep_20_1057,ProdSingRedoBetween,2021.2.3,59.8890256393178,
42,0,42,0,,,,,,,,,,,,,,,,,,,,,,,,,,300.57353610001155,None,curve,76,43,silent,red,298.5720485000056,None,None,298.5720485000056,None,,,,,,,,,,,,,,,,,,,,,,,,,,,,,,,,,,,52 silent,001,2022_Sep_20_1057,ProdSingRedoBetween,2021.2.3,59.8890256393178,
43,0,43,0,,,,,,,,,,,,,,,,,,,,,,,,,,303.0757971999992,None,congress,35,44,silent,blue,301.0761005000095,None,None,301.0761005000095,None,,,,,,,,,,,,,,,,,,,,,,,,,,,,,,,,,,,52 silent,001,2022_Sep_20_1057,ProdSingRedoBetween,2021.2.3,59.8890256393178,
44,0,44,0,,,,,,,,,,,,,,,,,,,,,,,,,,305.57865180000954,None,platform,73,45,silent,red,303.57938210001157,None,None,303.57938210001157,None,,,,,,,,,,,,,,,,,,,,,,,,,,,,,,,,,,,52 silent,001,2022_Sep_20_1057,ProdSingRedoBetween,2021.2.3,59.8890256393178,
45,0,45,0,,,,,,,,,,,,,,,,,,,,,,,,,,308.0804735999991,None,nation,14,46,silent,yellow,306.08100840001134,None,None,306.08100840001134,None,,,,,,,,,,,,,,,,,,,,,,,,,,,,,,,,,,,52 silent,001,2022_Sep_20_1057,ProdSingRedoBetween,2021.2.3,59.8890256393178,
46,0,46,0,,,,,,,,,,,,,,,,,,,,,,,,,,310.6002126000094,None,candidate,4,47,silent,yellow,308.58586099999957,None,None,308.58586099999957,None,,,,,,,,,,,,,,,,,,,,,,,,,,,,,,,,,,,52 silent,001,2022_Sep_20_1057,ProdSingRedoBetween,2021.2.3,59.8890256393178,
47,0,47,0,,,,,,,,,,,,,,,,,,,,,,,,,,313.10273810000217,None,trash,65,48,silent,red,311.1011678000068,None,None,311.1011678000068,None,,,,,,,,,,,,,,,,,,,,,,,,,,,,,,,,,,,52 silent,001,2022_Sep_20_1057,ProdSingRedoBetween,2021.2.3,59.8890256393178,
48,0,48,0,,,,,,,,,,,,,,,,,,,,,,,,,,315.60492800000065,None,generation,6,49,silent,yellow,313.60544200000004,None,None,313.60544200000004,None,,,,,,,,,,,,,,,,,,,,,,,,,,,,,,,,,,,52 silent,001,2022_Sep_20_1057,ProdSingRedoBetween,2021.2.3,59.8890256393178,
49,0,49,0,,,,,,,,,,,,,,,,,,,,,,,,,,318.10796560000745,None,career,53,50,silent,blue,316.1086811000132,None,None,316.1086811000132,None,,,,,,,,,,,,,,,,,,,,,,,,,,,,,,,,,,,52 silent,001,2022_Sep_20_1057,ProdSingRedoBetween,2021.2.3,59.8890256393178,
50,0,50,0,,,,,,,,,,,,,,,,,,,,,,,,,,320.6104062000086,None,goose,37,51,silent,blue,318.611100500013,None,None,318.611100500013,None,,,,,,,,,,,,,,,,,,,,,,,,,,,,,,,,,,,52 silent,001,2022_Sep_20_1057,ProdSingRedoBetween,2021.2.3,59.8890256393178,
51,0,51,0,,,,,,,,,,,,,,,,,,,,,,,,,,323.11275050000404,None,century,56,52,silent,blue,321.11283750001166,None,None,321.11283750001166,None,,,,,,,,,,,,,,,,,,,,,,,,,,,,,,,,,,,52 silent,001,2022_Sep_20_1057,ProdSingRedoBetween,2021.2.3,59.8890256393178,
52,0,52,0,,,,,,,,,,,,,,,,,,,,,,,,,,325.6319380000059,None,executive,18,53,silent,yellow,323.6181013000023,None,None,323.6181013000023,None,,,,,,,,,,,,,,,,,,,,,,,,,,,,,,,,,,,52 silent,001,2022_Sep_20_1057,ProdSingRedoBetween,2021.2.3,59.8890256393178,
53,0,53,0,,,,,,,,,,,,,,,,,,,,,,,,,,328.1507921000011,None,drove,47,54,silent,blue,326.1372570000094,None,None,326.1372570000094,None,,,,,,,,,,,,,,,,,,,,,,,,,,,,,,,,,,,52 silent,001,2022_Sep_20_1057,ProdSingRedoBetween,2021.2.3,59.8890256393178,
54,0,54,0,,,,,,,,,,,,,,,,,,,,,,,,,,330.6534976000112,None,crowd,12,55,silent,yellow,328.65155290000257,None,None,328.65155290000257,None,,,,,,,,,,,,,,,,,,,,,,,,,,,,,,,,,,,52 silent,001,2022_Sep_20_1057,ProdSingRedoBetween,2021.2.3,59.8890256393178,
55,0,55,0,,,,,,,,,,,,,,,,,,,,,,,,,,333.1557647000009,None,background,38,56,silent,blue,331.15647770000214,None,None,331.15647770000214,None,,,,,,,,,,,,,,,,,,,,,,,,,,,,,,,,,,,52 silent,001,2022_Sep_20_1057,ProdSingRedoBetween,2021.2.3,59.8890256393178,
56,0,56,0,,,,,,,,,,,,,,,,,,,,,,,,,,335.6755226000096,None,cross,29,57,silent,blue,333.6596034000104,None,None,333.6596034000104,None,,,,,,,,,,,,,,,,,,,,,,,,,,,,,,,,,,,52 silent,001,2022_Sep_20_1057,ProdSingRedoBetween,2021.2.3,59.8890256393178,
57,0,57,0,,,,,,,,,,,,,,,,,,,,,,,,,,338.1950171000062,None,store,46,58,silent,blue,336.18100400001276,None,None,336.18100400001276,None,,,,,,,,,,,,,,,,,,,,,,,,,,,,,,,,,,,52 silent,001,2022_Sep_20_1057,ProdSingRedoBetween,2021.2.3,59.8890256393178,
58,0,58,0,,,,,,,,,,,,,,,,,,,,,,,,,,340.6972842000105,None,rough,81,59,silent,red,338.6967217000056,None,None,338.6967217000056,None,,,,,,,,,,,,,,,,,,,,,,,,,,,,,,,,,,,52 silent,001,2022_Sep_20_1057,ProdSingRedoBetween,2021.2.3,59.8890256393178,
59,0,59,0,,,,,,,,,,,,,,,,,,,,,,,,,,343.19942750000337,None,thick,75,60,silent,red,341.20000920000894,None,None,341.20000920000894,None,,,,,,,,,,,,,,,,,,,,,,,,,,,,,,,,,,,52 silent,001,2022_Sep_20_1057,ProdSingRedoBetween,2021.2.3,59.8890256393178,
60,0,60,0,,,,,,,,,,,,,,,,,,,,,,,,,,345.7018581000011,None,space,2,61,silent,yellow,343.70169840000744,None,None,343.70169840000744,None,,,,,,,,,,,,,,,,,,,,,,,,,,,,,,,,,,,52 silent,001,2022_Sep_20_1057,ProdSingRedoBetween,2021.2.3,59.8890256393178,
61,0,61,0,,,,,,,,,,,,,,,,,,,,,,,,,,348.2042614000093,None,minute,0,62,silent,yellow,346.20369780001056,None,None,346.20369780001056,None,,,,,,,,,,,,,,,,,,,,,,,,,,,,,,,,,,,52 silent,001,2022_Sep_20_1057,ProdSingRedoBetween,2021.2.3,59.8890256393178,
62,0,62,0,,,,,,,,,,,,,,,,,,,,,,,,,,350.7068342999992,None,column,9,63,silent,yellow,348.70687460000045,None,None,348.70687460000045,None,,,,,,,,,,,,,,,,,,,,,,,,,,,,,,,,,,,52 silent,001,2022_Sep_20_1057,ProdSingRedoBetween,2021.2.3,59.8890256393178,
63,0,63,0,,,,,,,,,,,,,,,,,,,,,,,,,,353.2260774000024,None,trend,77,64,silent,red,351.21196580000105,None,None,351.21196580000105,None,,,,,,,,,,,,,,,,,,,,,,,,,,,,,,,,,,,52 silent,001,2022_Sep_20_1057,ProdSingRedoBetween,2021.2.3,59.8890256393178,
64,0,64,0,,,,,,,,,,,,,,,,,,,,,,,,,,355.7287376000022,None,speech,25,65,silent,yellow,353.72809440000856,None,None,353.72809440000856,None,,,,,,,,,,,,,,,,,,,,,,,,,,,,,,,,,,,52 silent,001,2022_Sep_20_1057,ProdSingRedoBetween,2021.2.3,59.8890256393178,
65,0,65,0,,,,,,,,,,,,,,,,,,,,,,,,,,358.231724199999,None,household,83,66,silent,red,356.23108320000756,None,None,356.23108320000756,None,,,,,,,,,,,,,,,,,,,,,,,,,,,,,,,,,,,52 silent,001,2022_Sep_20_1057,ProdSingRedoBetween,2021.2.3,59.8890256393178,
66,0,66,0,,,,,,,,,,,,,,,,,,,,,,,,,,360.7501334000117,None,measure,71,67,silent,red,358.7400159000099,None,None,358.7400159000099,None,,,,,,,,,,,,,,,,,,,,,,,,,,,,,,,,,,,52 silent,001,2022_Sep_20_1057,ProdSingRedoBetween,2021.2.3,59.8890256393178,
67,0,67,0,,,,,,,,,,,,,,,,,,,,,,,,,,363.25260900000285,None,business,64,68,silent,red,361.25374400000146,None,None,361.25374400000146,None,,,,,,,,,,,,,,,,,,,,,,,,,,,,,,,,,,,52 silent,001,2022_Sep_20_1057,ProdSingRedoBetween,2021.2.3,59.8890256393178,
68,0,68,0,,,,,,,,,,,,,,,,,,,,,,,,,,365.7551785000105,None,rural,23,69,silent,yellow,363.7547537000064,None,None,363.7547537000064,None,,,,,,,,,,,,,,,,,,,,,,,,,,,,,,,,,,,52 silent,001,2022_Sep_20_1057,ProdSingRedoBetween,2021.2.3,59.8890256393178,
69,0,69,0,,,,,,,,,,,,,,,,,,,,,,,,,,368.257660400006,None,relation,45,70,silent,blue,366.2574118000048,None,None,366.2574118000048,None,,,,,,,,,,,,,,,,,,,,,,,,,,,,,,,,,,,52 silent,001,2022_Sep_20_1057,ProdSingRedoBetween,2021.2.3,59.8890256393178,
70,0,70,0,,,,,,,,,,,,,,,,,,,,,,,,,,370.7601292000036,None,under,48,71,silent,blue,368.7608803000039,None,None,368.7608803000039,None,,,,,,,,,,,,,,,,,,,,,,,,,,,,,,,,,,,52 silent,001,2022_Sep_20_1057,ProdSingRedoBetween,2021.2.3,59.8890256393178,
71,0,71,0,,,,,,,,,,,,,,,,,,,,,,,,,,373.2629290000041,None,marriage,42,72,silent,blue,371.2627690000081,None,None,371.2627690000081,None,,,,,,,,,,,,,,,,,,,,,,,,,,,,,,,,,,,52 silent,001,2022_Sep_20_1057,ProdSingRedoBetween,2021.2.3,59.8890256393178,
72,0,72,0,,,,,,,,,,,,,,,,,,,,,,,,,,375.7652506000013,None,question,69,73,silent,red,373.76615680000396,None,None,373.76615680000396,None,,,,,,,,,,,,,,,,,,,,,,,,,,,,,,,,,,,52 silent,001,2022_Sep_20_1057,ProdSingRedoBetween,2021.2.3,59.8890256393178,
73,0,73,0,,,,,,,,,,,,,,,,,,,,,,,,,,378.2845267000084,None,entrance,67,74,silent,red,376.2699500000017,None,None,376.2699500000017,None,,,,,,,,,,,,,,,,,,,,,,,,,,,,,,,,,,,52 silent,001,2022_Sep_20_1057,ProdSingRedoBetween,2021.2.3,59.8890256393178,
74,0,74,0,,,,,,,,,,,,,,,,,,,,,,,,,,380.78714700001,None,throw,43,75,silent,blue,378.78626280000026,None,None,378.78626280000026,None,,,,,,,,,,,,,,,,,,,,,,,,,,,,,,,,,,,52 silent,001,2022_Sep_20_1057,ProdSingRedoBetween,2021.2.3,59.8890256393178,
75,0,75,0,,,,,,,,,,,,,,,,,,,,,,,,,,383.3061144000094,None,nature,15,76,silent,yellow,381.2921667000046,None,None,381.2921667000046,None,,,,,,,,,,,,,,,,,,,,,,,,,,,,,,,,,,,52 silent,001,2022_Sep_20_1057,ProdSingRedoBetween,2021.2.3,59.8890256393178,
76,0,76,0,,,,,,,,,,,,,,,,,,,,,,,,,,385.8084794000024,None,problem,33,77,silent,blue,383.8064535000012,None,None,383.8064535000012,None,,,,,,,,,,,,,,,,,,,,,,,,,,,,,,,,,,,52 silent,001,2022_Sep_20_1057,ProdSingRedoBetween,2021.2.3,59.8890256393178,
77,0,77,0,,,,,,,,,,,,,,,,,,,,,,,,,,388.31062800000655,None,service,41,78,silent,blue,386.31113950000145,None,None,386.31113950000145,None,,,,,,,,,,,,,,,,,,,,,,,,,,,,,,,,,,,52 silent,001,2022_Sep_20_1057,ProdSingRedoBetween,2021.2.3,59.8890256393178,
78,0,78,0,,,,,,,,,,,,,,,,,,,,,,,,,,390.8301775,None,report,61,79,silent,red,388.81462050000846,None,None,388.81462050000846,None,,,,,,,,,,,,,,,,,,,,,,,,,,,,,,,,,,,52 silent,001,2022_Sep_20_1057,ProdSingRedoBetween,2021.2.3,59.8890256393178,
79,0,79,0,,,,,,,,,,,,,,,,,,,,,,,,,,393.34925140000996,None,close,54,80,silent,blue,391.3379074000113,None,None,391.3379074000113,None,,,,,,,,,,,,,,,,,,,,,,,,,,,,,,,,,,,52 silent,001,2022_Sep_20_1057,ProdSingRedoBetween,2021.2.3,59.8890256393178,
80,0,80,0,,,,,,,,,,,,,,,,,,,,,,,,,,395.85223580000456,None,present,74,81,silent,red,393.84993140000734,None,None,393.84993140000734,None,,,,,,,,,,,,,,,,,,,,,,,,,,,,,,,,,,,52 silent,001,2022_Sep_20_1057,ProdSingRedoBetween,2021.2.3,59.8890256393178,
81,0,81,0,,,,,,,,,,,,,,,,,,,,,,,,,,398.3547581000021,None,plane,36,82,silent,blue,396.35408960000495,None,None,396.35408960000495,None,,,,,,,,,,,,,,,,,,,,,,,,,,,,,,,,,,,52 silent,001,2022_Sep_20_1057,ProdSingRedoBetween,2021.2.3,59.8890256393178,
82,0,82,0,,,,,,,,,,,,,,,,,,,,,,,,,,400.87390700000105,None,crisis,80,83,silent,red,398.85903570000664,None,None,398.85903570000664,None,,,,,,,,,,,,,,,,,,,,,,,,,,,,,,,,,,,52 silent,001,2022_Sep_20_1057,ProdSingRedoBetween,2021.2.3,59.8890256393178,
83,0,83,0,,,,,,,,,,,,,,,,,,,,,,,,,,403.3765570000105,None,danger,59,84,silent,yellow,401.3760140000086,None,None,401.3760140000086,None,,,,,,,,,,,,,,,,,,,,,,,,,,,,,,,,,,,52 silent,001,2022_Sep_20_1057,ProdSingRedoBetween,2021.2.3,59.8890256393178,
84,0,84,0,,,,,,,,,,,,,,,,,,,,,,,,,,405.8953842000046,None,force,16,85,silent,yellow,403.88100600001053,None,None,403.88100600001053,None,,,,,,,,,,,,,,,,,,,,,,,,,,,,,,,,,,,52 silent,001,2022_Sep_20_1057,ProdSingRedoBetween,2021.2.3,59.8890256393178,
85,0,85,0,,,,,,,,,,,,,,,,,,,,,,,,,,408.39765009999974,None,volume,60,86,silent,red,406.397801900006,None,None,406.397801900006,None,,,,,,,,,,,,,,,,,,,,,,,,,,,,,,,,,,,52 silent,001,2022_Sep_20_1057,ProdSingRedoBetween,2021.2.3,59.8890256393178,
86,0,86,0,,,,,,,,,,,,,,,,,,,,,,,,,,410.9005201000109,None,vision,20,87,silent,yellow,408.9005088000122,None,None,408.9005088000122,None,,,,,,,,,,,,,,,,,,,,,,,,,,,,,,,,,,,52 silent,001,2022_Sep_20_1057,ProdSingRedoBetween,2021.2.3,59.8890256393178,
87,0,87,0,,,,,,,,,,,,,,,,,,,,,,,,,,413.41967719999957,None,subject,85,88,silent,red,411.4093314000056,None,None,411.4093314000056,None,,,,,,,,,,,,,,,,,,,,,,,,,,,,,,,,,,,52 silent,001,2022_Sep_20_1057,ProdSingRedoBetween,2021.2.3,59.8890256393178,
88,0,88,0,,,,,,,,,,,,,,,,,,,,,,,,,,415.92204910000146,None,solution,89,89,silent,red,413.92059280000103,None,None,413.92059280000103,None,,,,,,,,,,,,,,,,,,,,,,,,,,,,,,,,,,,52 silent,001,2022_Sep_20_1057,ProdSingRedoBetween,2021.2.3,59.8890256393178,
89,0,89,0,,,,,,,,,,,,,,,,,,,,,,,,,,418.42453340000066,None,figure,50,90,silent,blue,416.4248147000035,None,None,416.4248147000035,None,,,,,,,,,,,,,,,,,,,,,,,,,,,,,,,,,,,52 silent,001,2022_Sep_20_1057,ProdSingRedoBetween,2021.2.3,59.8890256393178,
,,,,,,,,,,,,,,,,,,,,,,,,,,,,,,,,,,,,,,,,,418.9251046999998,None,k,70.93301039999642,418.9251046999998,None,,,,,,,,,,,,,,,,,,,,,,,,,,,,,52 silent,001,2022_Sep_20_1057,ProdSingRedoBetween,2021.2.3,59.8890256393178,
,,,,0,0,0,0,,,,,,,,,,,,,,,,,,,,,,498.9227775000036,None,,,,,,,,,,,,,,,,,frank,107,1,silent,new,null,490.3878423999995,None,490.3878423999995,None,1,3.2142521000059787,490.3878423999995,None,3.2142521000059787,493.63728940000874,None,494.1522178000014,None,494.1522178000014,None,n,4.737767700004042,494.1522178000014,None,4.737767700004042,,,52 silent,001,2022_Sep_20_1057,ProdSingRedoBetween,2021.2.3,59.8890256393178,
,,,,1,0,1,0,,,,,,,,,,,,,,,,,,,,,,505.22903510001197,None,,,,,,,,,,,,,,,,,opening,30,2,silent,old,blue,499.42497650001314,None,499.42497650001314,None,2,3.7529912000027252,499.42497650001314,None,3.7529912000027252,503.21443590000854,None,503.72670160001144,None,503.72670160001144,None,f,1.4835957999894163,503.72670160001144,None,1.4835957999894163,,,52 silent,001,2022_Sep_20_1057,ProdSingRedoBetween,2021.2.3,59.8890256393178,
,,,,2,0,2,0,,,,,,,,,,,,,,,,,,,,,,512.1867297999997,None,,,,,,,,,,,,,,,,,rough,81,3,silent,old,red,505.7347121000057,None,505.7347121000057,None,1,3.3313158999953885,505.7347121000057,None,3.3313158999953885,509.0837889000104,None,509.5984951999999,None,509.5984951999999,None,n,2.5555683999991743,509.5984951999999,None,2.5555683999991743,,,52 silent,001,2022_Sep_20_1057,ProdSingRedoBetween,2021.2.3,59.8890256393178,
,,,,3,0,3,0,,,,,,,,,,,,,,,,,,,,,,515.4564584000036,None,,,,,,,,,,,,,,,,,afternoon,132,4,silent,new,null,512.7037750000018,None,512.7037750000018,None,1,2.0583107999991626,512.7037750000018,None,2.0583107999991626,514.7908103000082,None,515.3111619000119,None,515.3111619000119,None,n,0.11489430000074208,515.3111619000119,None,0.11489430000074208,,,52 silent,001,2022_Sep_20_1057,ProdSingRedoBetween,2021.2.3,59.8890256393178,
,,,,4,0,4,0,,,,,,,,,,,,,,,,,,,,,,521.8301873000019,None,,,,,,,,,,,,,,,,,crisis,80,5,silent,old,red,515.9800162000029,None,515.9800162000029,None,6,4.238045799997053,515.9800162000029,None,4.238045799997053,520.251245899999,None,520.7742833000084,None,520.7742833000084,None,r,1.0360036000056425,520.7742833000084,None,1.0360036000056425,,,52 silent,001,2022_Sep_20_1057,ProdSingRedoBetween,2021.2.3,59.8890256393178,
,,,,5,0,5,0,,,,,,,,,,,,,,,,,,,,,,527.4847391000076,None,,,,,,,,,,,,,,,,,crowd,12,6,silent,old,yellow,522.3503156000079,None,522.3503156000079,None,3,2.979852500007837,522.3503156000079,None,2.979852500007837,525.3500487000128,None,525.8563902000024,None,525.8563902000024,None,f,1.6016558999981498,525.8563902000024,None,1.6016558999981498,,,52 silent,001,2022_Sep_20_1057,ProdSingRedoBetween,2021.2.3,59.8890256393178,
,,,,6,0,6,0,,,,,,,,,,,,,,,,,,,,,,530.9883927000046,None,,,,,,,,,,,,,,,,,space,2,7,silent,old,yellow,527.9895947000041,None,527.9895947000041,None,6,2.2523711000103503,527.9895947000041,None,2.2523711000103503,530.27238390001,None,530.7868254000059,None,530.7868254000059,None,r,0.18318370000633877,530.7868254000059,None,0.18318370000633877,,,52 silent,001,2022_Sep_20_1057,ProdSingRedoBetween,2021.2.3,59.8890256393178,
,,,,7,0,7,0,,,,,,,,,,,,,,,,,,,,,,538.5288167000108,None,,,,,,,,,,,,,,,,,figure,50,8,silent,old,blue,531.5093278000131,None,531.5093278000131,None,5,4.044664300003205,531.5093278000131,None,4.044664300003205,535.5776471999998,None,536.0918961000134,None,536.0918961000134,None,f,2.406103500004974,536.0918961000134,None,2.406103500004974,,,52 silent,001,2022_Sep_20_1057,ProdSingRedoBetween,2021.2.3,59.8890256393178,
,,,,8,0,8,0,,,,,,,,,,,,,,,,,,,,,,543.116751300011,None,,,,,,,,,,,,,,,,,dozen,55,9,silent,old,blue,539.0319573000015,None,539.0319573000015,None,1,1.7541574999922886,539.0319573000015,None,1.7541574999922886,540.815297100009,None,541.331006700013,None,541.331006700013,None,n,1.7589560000051279,541.331006700013,None,1.7589560000051279,,,52 silent,001,2022_Sep_20_1057,ProdSingRedoBetween,2021.2.3,59.8890256393178,
,,,,9,0,9,0,,,,,,,,,,,,,,,,,,,,,,545.9528138000023,None,,,,,,,,,,,,,,,,,signal,110,10,silent,new,null,543.6214190000028,None,543.6214190000028,None,1,1.6845338999992236,543.6214190000028,None,1.6845338999992236,545.3383239000104,None,545.8521864000068,None,545.8521864000068,None,n,0.0777955999947153,545.8521864000068,None,0.0777955999947153,,,52 silent,001,2022_Sep_20_1057,ProdSingRedoBetween,2021.2.3,59.8890256393178,
,,,,10,0,10,0,,,,,,,,,,,,,,,,,,,,,,549.5908000000054,None,,,,,,,,,,,,,,,,,incident,152,11,silent,new,null,546.4556460000022,None,546.4556460000022,None,1,1.4824924999993527,546.4556460000022,None,1.4824924999993527,547.9646080000093,None,548.4733260000066,None,548.4733260000066,None,n,1.0886801000015112,548.4733260000066,None,1.0886801000015112,,,52 silent,001,2022_Sep_20_1057,ProdSingRedoBetween,2021.2.3,59.8890256393178,
,,,,11,0,11,0,,,,,,,,,,,,,,,,,,,,,,553.3442510000023,None,,,,,,,,,,,,,,,,,beginning,62,12,silent,old,red,550.1090585000056,None,550.1090585000056,None,2,1.3648493999935454,550.1090585000056,None,1.3648493999935454,551.4931952000043,None,552.0074259000103,None,552.0074259000103,None,f,1.3065602999995463,552.0074259000103,None,1.3065602999995463,,,52 silent,001,2022_Sep_20_1057,ProdSingRedoBetween,2021.2.3,59.8890256393178,
,,,,12,0,12,0,,,,,,,,,,,,,,,,,,,,,,557.0645368000114,None,,,,,,,,,,,,,,,,,birth,19,13,silent,old,yellow,553.879410900001,None,553.879410900001,None,1,2.4905609999987064,553.879410900001,None,2.4905609999987064,556.3973045000021,None,556.9123457000096,None,556.9123457000096,None,n,0.12955700000748038,556.9123457000096,None,0.12955700000748038,,,52 silent,001,2022_Sep_20_1057,ProdSingRedoBetween,2021.2.3,59.8890256393178,
,,,,13,0,13,0,,,,,,,,,,,,,,,,,,,,,,560.468712700007,None,,,,,,,,,,,,,,,,,place,139,14,silent,new,null,557.587815100007,None,557.587815100007,None,2,1.3981330999959027,557.587815100007,None,1.3981330999959027,559.0161607000045,None,559.53262920001,None,559.53262920001,None,f,0.9175706999958493,559.53262920001,None,0.9175706999958493,,,52 silent,001,2022_Sep_20_1057,ProdSingRedoBetween,2021.2.3,59.8890256393178,
,,,,14,0,14,0,,,,,,,,,,,,,,,,,,,,,,564.3879438000004,None,,,,,,,,,,,,,,,,,watch,93,15,silent,new,null,560.9852645000065,None,560.9852645000065,None,1,1.8006083999935072,560.9852645000065,None,1.8006083999935072,562.8238402999996,None,563.3389579000068,None,563.3389579000068,None,n,1.0229588999936823,563.3389579000068,None,1.0229588999936823,,,52 silent,001,2022_Sep_20_1057,ProdSingRedoBetween,2021.2.3,59.8890256393178,
,,,,15,0,15,0,,,,,,,,,,,,,,,,,,,,,,566.757806900001,None,,,,,,,,,,,,,,,,,agreement,101,16,silent,new,null,564.8894471000094,None,564.8894471000094,None,1,1.1444413999997778,564.8894471000094,None,1.1444413999997778,566.0571695000108,None,566.5722716000018,None,566.5722716000018,None,n,0.15770419999898877,566.5722716000018,None,0.15770419999898877,,,52 silent,001,2022_Sep_20_1057,ProdSingRedoBetween,2021.2.3,59.8890256393178,
,,,,16,0,16,0,,,,,,,,,,,,,,,,,,,,,,572.8593079999991,None,,,,,,,,,,,,,,,,,period,10,17,silent,old,yellow,567.2741731999995,None,567.2741731999995,None,6,3.727763799994136,567.2741731999995,None,3.727763799994136,571.0293699000031,None,571.553018999999,None,571.553018999999,None,r,1.273146799998358,571.553018999999,None,1.273146799998358,,,52 silent,001,2022_Sep_20_1057,ProdSingRedoBetween,2021.2.3,59.8890256393178,
,,,,17,0,17,0,,,,,,,,,,,,,,,,,,,,,,576.3323361000075,None,,,,,,,,,,,,,,,,,executive,18,18,silent,old,yellow,573.3655904000043,None,573.3655904000043,None,6,2.3163716999988537,573.3655904000043,None,2.3163716999988537,575.7174888000009,None,576.245717400001,None,576.245717400001,None,r,0.06016909999016207,576.245717400001,None,0.06016909999016207,,,52 silent,001,2022_Sep_20_1057,ProdSingRedoBetween,2021.2.3,59.8890256393178,
,,,,18,0,18,0,,,,,,,,,,,,,,,,,,,,,,580.0543487000105,None,,,,,,,,,,,,,,,,,season,40,19,silent,old,blue,576.842513800002,None,576.842513800002,None,6,2.5356202999973902,576.842513800002,None,2.5356202999973902,579.4048548999999,None,579.9183805000066,None,579.9183805000066,None,r,0.11563220000243746,579.9183805000066,None,0.11563220000243746,,,52 silent,001,2022_Sep_20_1057,ProdSingRedoBetween,2021.2.3,59.8890256393178,
,,,,19,0,19,0,,,,,,,,,,,,,,,,,,,,,,583.2243705000001,None,,,,,,,,,,,,,,,,,interview,176,20,silent,new,null,580.583537700004,None,580.583537700004,None,1,1.4186681999999564,580.583537700004,None,1.4186681999999564,582.0243243000004,None,582.5477860000101,None,582.5477860000101,None,n,0.6546420999948168,582.5477860000101,None,0.6546420999948168,,,52 silent,001,2022_Sep_20_1057,ProdSingRedoBetween,2021.2.3,59.8890256393178,
,,,,20,0,20,0,,,,,,,,,,,,,,,,,,,,,,585.4935741000081,None,,,,,,,,,,,,,,,,,comedy,92,21,silent,new,null,583.7583879000013,None,583.7583879000013,None,1,1.131611000004341,583.7583879000013,None,1.131611000004341,584.9089970000059,None,585.4246353000053,None,585.4246353000053,None,n,0.04958530000294559,585.4246353000053,None,0.04958530000294559,,,52 silent,001,2022_Sep_20_1057,ProdSingRedoBetween,2021.2.3,59.8890256393178,
,,,,21,0,21,0,,,,,,,,,,,,,,,,,,,,,,588.0273572000006,None,,,,,,,,,,,,,,,,,scene,171,22,silent,new,null,586.0112565000018,None,586.0112565000018,None,2,1.0949262999929488,586.0112565000018,None,1.0949262999929488,587.1299753000058,None,587.6448295000009,None,587.6448295000009,None,f,0.3651779999927385,587.6448295000009,None,0.3651779999927385,,,52 silent,001,2022_Sep_20_1057,ProdSingRedoBetween,2021.2.3,59.8890256393178,
,,,,22,0,22,0,,,,,,,,,,,,,,,,,,,,,,591.0482843000063,None,,,,,,,,,,,,,,,,,committee,120,23,silent,new,null,588.5368419000006,None,588.5368419000006,None,1,1.8650060999934794,588.5368419000006,None,1.8650060999934794,590.4316982000018,None,590.9462916000048,None,590.9462916000048,None,n,0.07958679999865126,590.9462916000048,None,0.07958679999865126,,,52 silent,001,2022_Sep_20_1057,ProdSingRedoBetween,2021.2.3,59.8890256393178,
,,,,23,0,23,0,,,,,,,,,,,,,,,,,,,,,,595.3521516000037,None,,,,,,,,,,,,,,,,,surprise,111,24,silent,new,null,591.5745859000017,None,591.5745859000017,None,1,1.2672275999939302,591.5745859000017,None,1.2672275999939302,592.8765669000131,None,593.3841640000028,None,593.3841640000028,None,n,1.945665999999619,593.3841640000028,None,1.945665999999619,,,52 silent,001,2022_Sep_20_1057,ProdSingRedoBetween,2021.2.3,59.8890256393178,
,,,,24,0,24,0,,,,,,,,,,,,,,,,,,,,,,598.0884829000133,None,,,,,,,,,,,,,,,,,spoke,11,25,silent,old,yellow,595.865326900006,None,595.865326900006,None,1,1.3286177999980282,595.865326900006,None,1.3286177999980282,597.2221250000002,None,597.7392955000105,None,597.7392955000105,None,n,0.3265780000074301,597.7392955000105,None,0.3265780000074301,,,52 silent,001,2022_Sep_20_1057,ProdSingRedoBetween,2021.2.3,59.8890256393178,
,,,,25,0,25,0,,,,,,,,,,,,,,,,,,,,,,601.907531600009,None,,,,,,,,,,,,,,,,,substance,151,26,silent,new,null,598.6025870000012,None,598.6025870000012,None,6,1.9912965000112308,598.6025870000012,None,1.9912965000112308,600.6247265000129,None,601.1410705000017,None,601.1410705000017,None,r,0.7409453000000212,601.1410705000017,None,0.7409453000000212,,,52 silent,001,2022_Sep_20_1057,ProdSingRedoBetween,2021.2.3,59.8890256393178,
,,,,26,0,26,0,,,,,,,,,,,,,,,,,,,,,,607.7147507000045,None,,,,,,,,,,,,,,,,,close,54,27,silent,old,blue,602.4109049000108,None,602.4109049000108,None,4,3.438963099993998,602.4109049000108,None,3.438963099993998,605.8868289000093,None,606.3954727000091,None,606.3954727000091,None,f,1.3023996999982046,606.3954727000091,None,1.3023996999982046,,,52 silent,001,2022_Sep_20_1057,ProdSingRedoBetween,2021.2.3,59.8890256393178,
,,,,27,0,27,0,,,,,,,,,,,,,,,,,,,,,,610.3991095000092,None,,,,,,,,,,,,,,,,,finish,124,28,silent,new,null,608.241428600013,None,608.241428600013,None,1,1.240432000005967,608.241428600013,None,1.240432000005967,609.5000760000112,None,610.0158855000045,None,610.0158855000045,None,n,0.35398739999800455,610.0158855000045,None,0.35398739999800455,,,52 silent,001,2022_Sep_20_1057,ProdSingRedoBetween,2021.2.3,59.8890256393178,
,,,,28,0,28,0,,,,,,,,,,,,,,,,,,,,,,614.2702667000121,None,,,,,,,,,,,,,,,,,power,90,29,silent,new,null,610.9022990000085,None,610.9022990000085,None,2,2.7235863999958383,610.9022990000085,None,2.7235863999958383,613.6552806000109,None,614.1851275000081,None,614.1851275000081,None,f,0.04112090000126045,614.1851275000081,None,0.04112090000126045,,,52 silent,001,2022_Sep_20_1057,ProdSingRedoBetween,2021.2.3,59.8890256393178,
,,,,29,0,29,0,,,,,,,,,,,,,,,,,,,,,,618.491422600011,None,,,,,,,,,,,,,,,,,object,155,30,silent,new,null,614.7762995000085,None,614.7762995000085,None,2,2.873559600004228,614.7762995000085,None,2.873559600004228,617.6768391000078,None,618.1906298000104,None,618.1906298000104,None,f,0.28358570000273176,618.1906298000104,None,0.28358570000273176,,,52 silent,001,2022_Sep_20_1057,ProdSingRedoBetween,2021.2.3,59.8890256393178,
,,,,30,0,30,0,,,,,,,,,,,,,,,,,,,,,,622.5632704000018,None,,,,,,,,,,,,,,,,,trend,77,31,silent,old,red,619.005250400005,None,619.005250400005,None,6,2.236637200010591,619.005250400005,None,2.236637200010591,621.2617851000105,None,621.7788992999995,None,621.7788992999995,None,r,0.758931800010032,621.7788992999995,None,0.758931800010032,,,52 silent,001,2022_Sep_20_1057,ProdSingRedoBetween,2021.2.3,59.8890256393178,
,,,,31,0,31,0,,,,,,,,,,,,,,,,,,,,,,628.0682946000015,None,,,,,,,,,,,,,,,,,degree,119,32,silent,new,null,623.0804736999999,None,623.0804736999999,None,1,3.3693655999959446,623.0804736999999,None,3.3693655999959446,626.4673677000101,None,626.9823595000053,None,626.9823595000053,None,n,1.0675879000045825,626.9823595000053,None,1.0675879000045825,,,52 silent,001,2022_Sep_20_1057,ProdSingRedoBetween,2021.2.3,59.8890256393178,
,,,,32,0,32,0,,,,,,,,,,,,,,,,,,,,,,630.5374517000018,None,,,,,,,,,,,,,,,,,judge,145,33,silent,new,null,628.5702490000112,None,628.5702490000112,None,2,1.2636256999976467,628.5702490000112,None,1.2636256999976467,629.8545938000025,None,630.368999600003,None,630.368999600003,None,f,0.13684600000851788,630.368999600003,None,0.13684600000851788,,,52 silent,001,2022_Sep_20_1057,ProdSingRedoBetween,2021.2.3,59.8890256393178,
,,,,33,0,33,0,,,,,,,,,,,,,,,,,,,,,,633.4240882000013,None,,,,,,,,,,,,,,,,,citizen,150,34,silent,new,null,631.0496783000126,None,631.0496783000126,None,1,1.000118800002383,631.0496783000126,None,1.000118800002383,632.0778187000105,None,632.5886160000082,None,632.5886160000082,None,n,0.8052368000062415,632.5886160000082,None,0.8052368000062415,,,52 silent,001,2022_Sep_20_1057,ProdSingRedoBetween,2021.2.3,59.8890256393178,
,,,,34,0,34,0,,,,,,,,,,,,,,,,,,,,,,636.8063860000111,None,,,,,,,,,,,,,,,,,nature,15,35,silent,old,yellow,633.9329720000096,None,633.9329720000096,None,6,2.2608087999979034,633.9329720000096,None,2.2608087999979034,636.2266693999991,None,636.7422539000108,None,636.7422539000108,None,r,0.027610499993897974,636.7422539000108,None,0.027610499993897974,,,52 silent,001,2022_Sep_20_1057,ProdSingRedoBetween,2021.2.3,59.8890256393178,
,,,,35,0,35,0,,,,,,,,,,,,,,,,,,,,,,638.8277374000027,None,,,,,,,,,,,,,,,,,motion,102,36,silent,new,null,637.3100735000044,None,637.3100735000044,None,1,0.9077381999959471,637.3100735000044,None,0.9077381999959471,638.2502553000086,None,638.7603978000116,None,638.7603978000116,None,n,0.04168349999235943,638.7603978000116,None,0.04168349999235943,,,52 silent,001,2022_Sep_20_1057,ProdSingRedoBetween,2021.2.3,59.8890256393178,
,,,,36,0,36,0,,,,,,,,,,,,,,,,,,,,,,642.3492952000088,None,,,,,,,,,,,,,,,,,resistance,158,37,silent,new,null,639.330428900008,None,639.330428900008,None,6,2.38333209999837,639.330428900008,None,2.38333209999837,641.7324990000052,None,642.2486631000065,None,642.2486631000065,None,r,0.08138450000842568,642.2486631000065,None,0.08138450000842568,,,52 silent,001,2022_Sep_20_1057,ProdSingRedoBetween,2021.2.3,59.8890256393178,
,,,,37,0,37,0,,,,,,,,,,,,,,,,,,,,,,647.5038992000045,None,,,,,,,,,,,,,,,,,center,121,38,silent,new,null,642.853343300012,None,642.853343300012,None,2,3.7646070000046166,642.853343300012,None,3.7646070000046166,646.6377023000096,None,647.1524915000045,None,647.1524915000045,None,f,0.3212781000038376,647.1524915000045,None,0.3212781000038376,,,52 silent,001,2022_Sep_20_1057,ProdSingRedoBetween,2021.2.3,59.8890256393178,
,,,,38,0,38,0,,,,,,,,,,,,,,,,,,,,,,649.6402139000129,None,,,,,,,,,,,,,,,,,curve,76,39,silent,old,red,648.0088293000008,None,648.0088293000008,None,1,1.0330376999918371,648.0088293000008,None,1.0330376999918371,649.0823778000049,None,649.5925073000108,None,649.5925073000108,None,n,0.017544000002089888,649.5925073000108,None,0.017544000002089888,,,52 silent,001,2022_Sep_20_1057,ProdSingRedoBetween,2021.2.3,59.8890256393178,
,,,,39,0,39,0,,,,,,,,,,,,,,,,,,,,,,653.112016900006,None,,,,,,,,,,,,,,,,,turkey,86,40,silent,old,red,650.1619355000003,None,650.1619355000003,None,4,2.2879533000086667,650.1619355000003,None,2.2879533000086667,652.4797265000088,None,652.9945093999995,None,652.9945093999995,None,f,0.09563530000741594,652.9945093999995,None,0.09563530000741594,,,52 silent,001,2022_Sep_20_1057,ProdSingRedoBetween,2021.2.3,59.8890256393178,
,,,,40,0,40,0,,,,,,,,,,,,,,,,,,,,,,656.3657483000134,None,,,,,,,,,,,,,,,,,shear,97,41,silent,new,null,653.6259403000004,None,653.6259403000004,None,1,1.9438429999863729,653.6259403000004,None,1.9438429999863729,655.5979999000119,None,656.1156449000118,None,656.1156449000118,None,n,0.22233079999568872,656.1156449000118,None,0.22233079999568872,,,52 silent,001,2022_Sep_20_1057,ProdSingRedoBetween,2021.2.3,59.8890256393178,
,,,,41,0,41,0,,,,,,,,,,,,,,,,,,,,,,658.5988473000034,None,,,,,,,,,,,,,,,,,fellow,52,42,silent,old,blue,656.8812962000084,None,656.8812962000084,None,1,1.1288220999995247,656.8812962000084,None,1.1288220999995247,658.032537600011,None,658.5492344000086,None,658.5492344000086,None,n,0.02891039999667555,658.5492344000086,None,0.02891039999667555,,,52 silent,001,2022_Sep_20_1057,ProdSingRedoBetween,2021.2.3,59.8890256393178,
,,,,42,0,42,0,,,,,,,,,,,,,,,,,,,,,,662.0689813000063,None,,,,,,,,,,,,,,,,,under,48,43,silent,old,blue,659.1241732000053,None,659.1241732000053,None,1,1.7578636000107508,659.1241732000053,None,1.7578636000107508,660.9016532000096,None,661.4163961000013,None,661.4163961000013,None,n,0.6255167000053916,661.4163961000013,None,0.6255167000053916,,,52 silent,001,2022_Sep_20_1057,ProdSingRedoBetween,2021.2.3,59.8890256393178,
,,,,43,0,43,0,,,,,,,,,,,,,,,,,,,,,,665.6732221000129,None,,,,,,,,,,,,,,,,,stranger,136,44,silent,new,null,662.5987574000028,None,662.5987574000028,None,2,2.1871979999996256,662.5987574000028,None,2.1871979999996256,664.8091418000113,None,665.3214418999996,None,665.3214418999996,None,f,0.32833959998970386,665.3214418999996,None,0.32833959998970386,,,52 silent,001,2022_Sep_20_1057,ProdSingRedoBetween,2021.2.3,59.8890256393178,
,,,,44,0,44,0,,,,,,,,,,,,,,,,,,,,,,670.2595686999994,None,,,,,,,,,,,,,,,,,problem,33,45,silent,old,blue,666.2036862000095,None,666.2036862000095,None,6,2.574128300009761,666.2036862000095,None,2.574128300009761,668.8090121000132,None,669.3101993000018,None,669.3101993000018,None,r,0.9236068000027444,669.3101993000018,None,0.9236068000027444,,,52 silent,001,2022_Sep_20_1057,ProdSingRedoBetween,2021.2.3,59.8890256393178,
,,,,45,0,45,0,,,,,,,,,,,,,,,,,,,,,,673.4635266000114,None,,,,,,,,,,,,,,,,,cross,29,46,silent,old,blue,670.7621853000019,None,670.7621853000019,None,1,1.5275393999909284,670.7621853000019,None,1.5275393999909284,672.3129886000097,None,672.8283401000081,None,672.8283401000081,None,n,0.605423700006213,672.8283401000081,None,0.605423700006213,,,52 silent,001,2022_Sep_20_1057,ProdSingRedoBetween,2021.2.3,59.8890256393178,
,,,,46,0,46,0,,,,,,,,,,,,,,,,,,,,,,676.219528600006,None,,,,,,,,,,,,,,,,,subject,85,47,silent,old,red,673.972256699999,None,673.972256699999,None,6,1.5417733999929624,673.972256699999,None,1.5417733999929624,675.5342953000072,None,676.0499946000054,None,676.0499946000054,None,r,0.13582039999892004,676.0499946000054,None,0.13582039999892004,,,52 silent,001,2022_Sep_20_1057,ProdSingRedoBetween,2021.2.3,59.8890256393178,
,,,,47,0,47,0,,,,,,,,,,,,,,,,,,,,,,678.685040299999,None,,,,,,,,,,,,,,,,,narrow,22,48,silent,old,yellow,676.7364692000119,None,676.7364692000119,None,6,1.3774440000124741,676.7364692000119,None,1.3774440000124741,678.1367438000016,None,678.650993800009,None,678.650993800009,None,r,0.006809699989389628,678.650993800009,None,0.006809699989389628,,,52 silent,001,2022_Sep_20_1057,ProdSingRedoBetween,2021.2.3,59.8890256393178,
,,,,48,0,48,0,,,,,,,,,,,,,,,,,,,,,,681.9224893000064,None,,,,,,,,,,,,,,,,,measure,71,49,silent,old,red,679.1929137000116,None,679.1929137000116,None,6,1.0729747000004863,679.1929137000116,None,1.0729747000004863,680.2916140000016,None,680.8037530000001,None,680.8037530000001,None,r,1.102185499999905,680.8037530000001,None,1.102185499999905,,,52 silent,001,2022_Sep_20_1057,ProdSingRedoBetween,2021.2.3,59.8890256393178,
,,,,49,0,49,0,,,,,,,,,,,,,,,,,,,,,,684.3421851000021,None,,,,,,,,,,,,,,,,,safety,34,50,silent,old,blue,682.439077300005,None,682.439077300005,None,6,1.1627431999950204,682.439077300005,None,1.1627431999950204,683.6275079000043,None,684.1396252000122,None,684.1396252000122,None,r,0.17414709999866318,684.1396252000122,None,0.17414709999866318,,,52 silent,001,2022_Sep_20_1057,ProdSingRedoBetween,2021.2.3,59.8890256393178,
,,,,50,0,50,0,,,,,,,,,,,,,,,,,,,,,,688.2773545000091,None,,,,,,,,,,,,,,,,,goose,37,51,silent,old,blue,684.8591092000133,None,684.8591092000133,None,1,1.654595200001495,684.8591092000133,None,1.654595200001495,686.5446040000097,None,687.07053550001,None,687.07053550001,None,f,1.1791166000039084,687.07053550001,None,1.1791166000039084,,,52 silent,001,2022_Sep_20_1057,ProdSingRedoBetween,2021.2.3,59.8890256393178,
,,,,51,0,51,0,,,,,,,,,,,,,,,,,,,,,,692.3168586000102,None,,,,,,,,,,,,,,,,,course,154,52,silent,new,null,688.788787100013,None,688.788787100013,None,4,2.9568827000039164,688.788787100013,None,2.9568827000039164,691.7661861000088,None,692.2827332000015,None,692.2827332000015,None,f,0.007045999998808838,692.2827332000015,None,0.007045999998808838,,,52 silent,001,2022_Sep_20_1057,ProdSingRedoBetween,2021.2.3,59.8890256393178,
,,,,52,0,52,0,,,,,,,,,,,,,,,,,,,,,,694.9684762000106,None,,,,,,,,,,,,,,,,,couch,96,53,silent,new,null,692.8331643999991,None,692.8331643999991,None,1,1.400422399994568,692.8331643999991,None,1.400422399994568,694.2527061000001,None,694.7662091000093,None,694.7662091000093,None,n,0.17157230000884738,694.7662091000093,None,0.17157230000884738,,,52 silent,001,2022_Sep_20_1057,ProdSingRedoBetween,2021.2.3,59.8890256393178,
,,,,53,0,53,0,,,,,,,,,,,,,,,,,,,,,,697.8892768000078,None,,,,,,,,,,,,,,,,,health,87,54,silent,old,red,695.4704531000025,None,695.4704531000025,None,5,1.699287399998866,695.4704531000025,None,1.699287399998866,697.1881005000032,None,697.7048730000097,None,697.7048730000097,None,f,0.15284399999654852,697.7048730000097,None,0.15284399999654852,,,52 silent,001,2022_Sep_20_1057,ProdSingRedoBetween,2021.2.3,59.8890256393178,
,,,,54,0,54,0,,,,,,,,,,,,,,,,,,,,,,700.6072456000111,None,,,,,,,,,,,,,,,,,height,162,55,silent,new,null,698.4051802000031,None,698.4051802000031,None,1,1.1085257999948226,698.4051802000031,None,1.1085257999948226,699.5407187000092,None,700.0555817999993,None,700.0555817999993,None,n,0.5304718999977922,700.0555817999993,None,0.5304718999977922,,,52 silent,001,2022_Sep_20_1057,ProdSingRedoBetween,2021.2.3,59.8890256393178,
,,,,55,0,55,0,,,,,,,,,,,,,,,,,,,,,,704.9113775000005,None,,,,,,,,,,,,,,,,,background,38,56,silent,old,blue,701.1097394000099,None,701.1097394000099,None,6,2.843982899998082,701.1097394000099,None,2.843982899998082,703.9801464000047,None,704.4968060000101,None,704.4968060000101,None,r,0.3932453000015812,704.4968060000101,None,0.3932453000015812,,,52 silent,001,2022_Sep_20_1057,ProdSingRedoBetween,2021.2.3,59.8890256393178,
,,,,56,0,56,0,,,,,,,,,,,,,,,,,,,,,,707.7499794000032,None,,,,,,,,,,,,,,,,,region,168,57,silent,new,null,705.4132566000044,None,705.4132566000044,None,1,1.3485865999973612,705.4132566000044,None,1.3485865999973612,706.7835978000076,None,707.2968473000074,None,707.2968473000074,None,n,0.4248082999984035,707.2968473000074,None,0.4248082999984035,,,52 silent,001,2022_Sep_20_1057,ProdSingRedoBetween,2021.2.3,59.8890256393178,
,,,,57,0,57,0,,,,,,,,,,,,,,,,,,,,,,710.3676719000068,None,,,,,,,,,,,,,,,,,trash,65,58,silent,old,red,708.2687562000065,None,708.2687562000065,None,6,1.404931699988083,708.2687562000065,None,1.404931699988083,709.700268200002,None,710.2156638000015,None,710.2156638000015,None,r,0.130267599990475,710.2156638000015,None,0.130267599990475,,,52 silent,001,2022_Sep_20_1057,ProdSingRedoBetween,2021.2.3,59.8890256393178,
,,,,58,0,58,0,,,,,,,,,,,,,,,,,,,,,,712.4698836000025,None,,,,,,,,,,,,,,,,,century,56,59,silent,old,blue,710.8963920000097,None,710.8963920000097,None,1,0.9693454999942333,710.8963920000097,None,0.9693454999942333,711.8904064000089,None,712.4018261000019,None,712.4018261000019,None,n,0.047998800000641495,712.4018261000019,None,0.047998800000641495,,,52 silent,001,2022_Sep_20_1057,ProdSingRedoBetween,2021.2.3,59.8890256393178,
,,,,59,0,59,0,,,,,,,,,,,,,,,,,,,,,,715.8733875000034,None,,,,,,,,,,,,,,,,,range,149,60,silent,new,null,712.9887205000123,None,712.9887205000123,None,6,1.9889509000058752,712.9887205000123,None,1.9889509000058752,715.005662800002,None,715.5205377000093,None,715.5205377000093,None,r,0.3291663999989396,715.5205377000093,None,0.3291663999989396,,,52 silent,001,2022_Sep_20_1057,ProdSingRedoBetween,2021.2.3,59.8890256393178,
,,,,60,0,60,0,,,,,,,,,,,,,,,,,,,,,,719.092876900002,None,,,,,,,,,,,,,,,,,whole,63,61,silent,old,red,716.3900623000081,None,716.3900623000081,None,1,2.107831499990425,716.3900623000081,None,2.107831499990425,718.5254752000037,None,719.0250011000026,None,719.0250011000026,None,n,0.04081919998861849,719.0250011000026,None,0.04081919998861849,,,52 silent,001,2022_Sep_20_1057,ProdSingRedoBetween,2021.2.3,59.8890256393178,
,,,,61,0,61,0,,,,,,,,,,,,,,,,,,,,,,721.2959769000008,None,,,,,,,,,,,,,,,,,little,32,62,silent,old,blue,719.6100552999997,None,719.6100552999997,None,1,0.8317898999957833,719.6100552999997,None,0.8317898999957833,720.461578500006,None,720.9763693000132,None,720.9763693000132,None,n,0.28935639999690466,720.9763693000132,None,0.28935639999690466,,,52 silent,001,2022_Sep_20_1057,ProdSingRedoBetween,2021.2.3,59.8890256393178,
,,,,62,0,62,0,,,,,,,,,,,,,,,,,,,,,,724.1170659000054,None,,,,,,,,,,,,,,,,,level,160,63,silent,new,null,721.8124129000062,None,721.8124129000062,None,2,1.6532833999954164,721.8124129000062,None,1.6532833999954164,723.4984085000033,None,724.0172039000026,None,724.0172039000026,None,f,0.05680850001226645,724.0172039000026,None,0.05680850001226645,,,52 silent,001,2022_Sep_20_1057,ProdSingRedoBetween,2021.2.3,59.8890256393178,
,,,,63,0,63,0,,,,,,,,,,,,,,,,,,,,,,727.1171258000104,None,,,,,,,,,,,,,,,,,general,103,64,silent,new,null,724.6405174000101,None,724.6405174000101,None,1,1.2252867999923183,724.6405174000101,None,1.2252867999923183,725.8994462000119,None,726.4153164000018,None,726.4153164000018,None,n,0.6824324000044726,726.4153164000018,None,0.6824324000044726,,,52 silent,001,2022_Sep_20_1057,ProdSingRedoBetween,2021.2.3,59.8890256393178,
,,,,64,0,64,0,,,,,,,,,,,,,,,,,,,,,,729.8359827000095,None,,,,,,,,,,,,,,,,,platform,73,65,silent,old,red,727.6390874000062,None,727.6390874000062,None,1,1.4985279999964405,727.6390874000062,None,1.4985279999964405,729.1799920000049,None,729.688931800003,None,729.688931800003,None,n,0.12901980000606272,729.688931800003,None,0.12901980000606272,,,52 silent,001,2022_Sep_20_1057,ProdSingRedoBetween,2021.2.3,59.8890256393178,
,,,,65,0,65,0,,,,,,,,,,,,,,,,,,,,,,732.741592300008,None,,,,,,,,,,,,,,,,,silence,146,66,silent,new,null,730.3382676000037,None,730.3382676000037,None,4,1.735344200002146,730.3382676000037,None,1.735344200002146,732.1057725999999,None,732.6243109000061,None,732.6243109000061,None,f,0.09736030000203755,732.6243109000061,None,0.09736030000203755,,,52 silent,001,2022_Sep_20_1057,ProdSingRedoBetween,2021.2.3,59.8890256393178,
,,,,66,0,66,0,,,,,,,,,,,,,,,,,,,,,,736.6095048000134,None,,,,,,,,,,,,,,,,,foundation,141,67,silent,new,null,733.2586421000015,None,733.2586421000015,None,1,2.590985000002547,733.2586421000015,None,2.590985000002547,735.8770083000127,None,736.3913208000013,None,736.3913208000013,None,n,0.19438650000665803,736.3913208000013,None,0.19438650000665803,,,52 silent,001,2022_Sep_20_1057,ProdSingRedoBetween,2021.2.3,59.8890256393178,
,,,,67,0,67,0,,,,,,,,,,,,,,,,,,,,,,740.2472956000129,None,,,,,,,,,,,,,,,,,country,128,68,silent,new,null,737.111536100012,None,737.111536100012,None,1,1.9061435999901732,737.111536100012,None,1.9061435999901732,739.0466382000013,None,739.5630823000101,None,739.5630823000101,None,n,0.6545207000017399,739.5630823000101,None,0.6545207000017399,,,52 silent,001,2022_Sep_20_1057,ProdSingRedoBetween,2021.2.3,59.8890256393178,
,,,,68,0,68,0,,,,,,,,,,,,,,,,,,,,,,742.0988283000042,None,,,,,,,,,,,,,,,,,benefit,88,69,silent,old,red,740.7648857000022,None,740.7648857000022,None,1,0.708778500003973,740.7648857000022,None,0.708778500003973,741.4987991000089,None,742.014285600002,None,742.014285600002,None,n,0.0674247999995714,742.014285600002,None,0.0674247999995714,,,52 silent,001,2022_Sep_20_1057,ProdSingRedoBetween,2021.2.3,59.8890256393178,
,,,,69,0,69,0,,,,,,,,,,,,,,,,,,,,,,745.0687281999999,None,,,,,,,,,,,,,,,,,union,49,70,silent,old,blue,742.6026353000052,None,742.6026353000052,None,6,1.6070472999999765,742.6026353000052,None,1.6070472999999765,744.2363482000073,None,744.749893500004,None,744.749893500004,None,r,0.2921824000077322,744.749893500004,None,0.2921824000077322,,,52 silent,001,2022_Sep_20_1057,ProdSingRedoBetween,2021.2.3,59.8890256393178,
,,,,70,0,70,0,,,,,,,,,,,,,,,,,,,,,,748.1541702000104,None,,,,,,,,,,,,,,,,,balance,159,71,silent,new,null,745.5852911000111,None,745.5852911000111,None,4,1.8325603999983286,745.5852911000111,None,1.8325603999983286,747.4380500000116,None,747.9573352000007,None,747.9573352000007,None,f,0.17228339999564923,747.9573352000007,None,0.17228339999564923,,,52 silent,001,2022_Sep_20_1057,ProdSingRedoBetween,2021.2.3,59.8890256393178,
,,,,71,0,71,0,,,,,,,,,,,,,,,,,,,,,,750.5244267000089,None,,,,,,,,,,,,,,,,,estate,156,72,silent,new,null,748.6636933000118,None,748.6636933000118,None,1,1.1061169000022346,748.6636933000118,None,1.1061169000022346,749.7900363000081,None,750.3099026999989,None,750.3099026999989,None,n,0.19602809999196324,750.3099026999989,None,0.19602809999196324,,,52 silent,001,2022_Sep_20_1057,ProdSingRedoBetween,2021.2.3,59.8890256393178,
,,,,72,0,72,0,,,,,,,,,,,,,,,,,,,,,,753.422601600003,None,,,,,,,,,,,,,,,,,nation,14,73,silent,old,yellow,751.0407813000056,None,751.0407813000056,None,1,1.120848799997475,751.0407813000056,None,1.120848799997475,752.1921858000132,None,752.7079382000084,None,752.7079382000084,None,f,0.6777040000015404,752.7079382000084,None,0.6777040000015404,,,52 silent,001,2022_Sep_20_1057,ProdSingRedoBetween,2021.2.3,59.8890256393178,
,,,,73,0,73,0,,,,,,,,,,,,,,,,,,,,,,756.0949894000078,None,,,,,,,,,,,,,,,,,series,31,74,silent,old,blue,753.9480929999991,None,753.9480929999991,None,1,1.149459799999022,753.9480929999991,None,1.149459799999022,755.1284021000029,None,755.6490540000086,None,755.6490540000086,None,n,0.41654280001239385,755.6490540000086,None,0.41654280001239385,,,52 silent,001,2022_Sep_20_1057,ProdSingRedoBetween,2021.2.3,59.8890256393178,
,,,,74,0,74,0,,,,,,,,,,,,,,,,,,,,,,758.6824982000107,None,,,,,,,,,,,,,,,,,notice,174,75,silent,new,null,756.5975953000016,None,756.5975953000016,None,1,1.0283011999999871,756.5975953000016,None,1.0283011999999871,757.6491354000027,None,758.1638305000088,None,758.1638305000088,None,n,0.4938355999911437,758.1638305000088,None,0.4938355999911437,,,52 silent,001,2022_Sep_20_1057,ProdSingRedoBetween,2021.2.3,59.8890256393178,
,,,,75,0,75,0,,,,,,,,,,,,,,,,,,,,,,760.6964955000003,None,,,,,,,,,,,,,,,,,style,109,76,silent,new,null,759.2001370000071,None,759.2001370000071,None,1,0.9135004999989178,759.2001370000071,None,0.9135004999989178,760.1359710000106,None,760.6491765000101,None,760.6491765000101,None,n,0.008418800003710203,760.6491765000101,None,0.008418800003710203,,,52 silent,001,2022_Sep_20_1057,ProdSingRedoBetween,2021.2.3,59.8890256393178,
,,,,76,0,76,0,,,,,,,,,,,,,,,,,,,,,,763.3202204000117,None,,,,,,,,,,,,,,,,,detective,134,77,silent,new,null,761.2193903000007,None,761.2193903000007,None,1,0.9182415000104811,761.2193903000007,None,0.9182415000104811,762.1755687000114,None,762.684968600006,None,762.684968600006,None,n,0.6046220999996876,762.684968600006,None,0.6046220999996876,,,52 silent,001,2022_Sep_20_1057,ProdSingRedoBetween,2021.2.3,59.8890256393178,
,,,,77,0,77,0,,,,,,,,,,,,,,,,,,,,,,765.8392335000099,None,,,,,,,,,,,,,,,,,tennis,3,78,silent,old,yellow,763.8388779000088,None,763.8388779000088,None,1,0.9790027999988524,763.8388779000088,None,0.9790027999988524,764.8400072000077,None,765.3567605999997,None,765.3567605999997,None,n,0.4528030000074068,765.3567605999997,None,0.4528030000074068,,,52 silent,001,2022_Sep_20_1057,ProdSingRedoBetween,2021.2.3,59.8890256393178,
,,,,78,0,78,0,,,,,,,,,,,,,,,,,,,,,,768.0746620999998,None,,,,,,,,,,,,,,,,,guest,112,79,silent,new,null,766.356517600012,None,766.356517600012,None,1,0.8930978999997023,766.356517600012,None,0.8930978999997023,767.2765051000024,None,767.7893615000066,None,767.7893615000066,None,n,0.25236149999545887,767.7893615000066,None,0.25236149999545887,,,52 silent,001,2022_Sep_20_1057,ProdSingRedoBetween,2021.2.3,59.8890256393178,
,,,,79,0,79,0,,,,,,,,,,,,,,,,,,,,,,770.6607999000116,None,,,,,,,,,,,,,,,,,produce,21,80,silent,old,yellow,768.5956317000091,None,768.5956317000091,None,3,1.44597889999568,768.5956317000091,None,1.44597889999568,770.0618972000084,None,770.5764497000055,None,770.5764497000055,None,f,0.057076400000369176,770.5764497000055,None,0.057076400000369176,,,52 silent,001,2022_Sep_20_1057,ProdSingRedoBetween,2021.2.3,59.8890256393178,
,,,,80,0,80,0,,,,,,,,,,,,,,,,,,,,,,775.3481805000047,None,,,,,,,,,,,,,,,,,order,172,81,silent,new,null,771.1780438999995,None,771.1780438999995,None,6,3.1034933000046294,771.1780438999995,None,3.1034933000046294,774.3145186000038,None,774.8243358000036,None,774.8243358000036,None,r,0.49727949999214616,774.8243358000036,None,0.49727949999214616,,,52 silent,001,2022_Sep_20_1057,ProdSingRedoBetween,2021.2.3,59.8890256393178,
,,,,81,0,81,0,,,,,,,,,,,,,,,,,,,,,,777.8516433000041,None,,,,,,,,,,,,,,,,,passage,167,82,silent,new,null,775.8518926000106,None,775.8518926000106,None,1,1.149735500002862,775.8518926000106,None,1.149735500002862,777.0360865000112,None,777.5494818000006,None,777.5494818000006,None,n,0.27611230000911746,777.5494818000006,None,0.27611230000911746,,,52 silent,001,2022_Sep_20_1057,ProdSingRedoBetween,2021.2.3,59.8890256393178,
,,,,82,0,82,0,,,,,,,,,,,,,,,,,,,,,,780.0048368999996,None,,,,,,,,,,,,,,,,,heavy,113,83,silent,new,null,778.3688231000124,None,778.3688231000124,None,1,0.8888473999977577,778.3688231000124,None,0.8888473999977577,779.2874346000026,None,779.807003000009,None,779.807003000009,None,n,0.17867920000571758,779.807003000009,None,0.17867920000571758,,,52 silent,001,2022_Sep_20_1057,ProdSingRedoBetween,2021.2.3,59.8890256393178,
,,,,83,0,83,0,,,,,,,,,,,,,,,,,,,,,,781.938403600012,None,,,,,,,,,,,,,,,,,captain,127,84,silent,new,null,780.5329976000066,None,780.5329976000066,None,1,0.8127620999875944,780.5329976000066,None,0.8127620999875944,781.3735718000098,None,781.8872848000028,None,781.8872848000028,None,n,0.03433690000383649,781.8872848000028,None,0.03433690000383649,,,52 silent,001,2022_Sep_20_1057,ProdSingRedoBetween,2021.2.3,59.8890256393178,
,,,,84,0,84,0,,,,,,,,,,,,,,,,,,,,,,784.740398000009,None,,,,,,,,,,,,,,,,,question,69,85,silent,old,red,782.4406065000076,None,782.4406065000076,None,3,1.6009249000053387,782.4406065000076,None,1.6009249000053387,784.0772027000057,None,784.5900324000104,None,784.5900324000104,None,f,0.13164149998920038,784.5900324000104,None,0.13164149998920038,,,52 silent,001,2022_Sep_20_1057,ProdSingRedoBetween,2021.2.3,59.8890256393178,
,,,,85,0,85,0,,,,,,,,,,,,,,,,,,,,,,787.2762243000034,None,,,,,,,,,,,,,,,,,territory,133,86,silent,new,null,785.243077200008,None,785.243077200008,None,1,0.8065268999926047,785.243077200008,None,0.8065268999926047,786.0772758000094,None,786.5922254000034,None,786.5922254000034,None,n,0.6572775000095135,786.5922254000034,None,0.6572775000095135,,,52 silent,001,2022_Sep_20_1057,ProdSingRedoBetween,2021.2.3,59.8890256393178,
,,,,86,0,86,0,,,,,,,,,,,,,,,,,,,,,,789.4583933000104,None,,,,,,,,,,,,,,,,,personnel,148,87,silent,new,null,787.7791859999998,None,787.7791859999998,None,1,0.8465058000001591,787.7791859999998,None,0.8465058000001591,788.6469843000086,None,789.1710954000009,None,789.1710954000009,None,n,0.24637900000379886,789.1710954000009,None,0.24637900000379886,,,52 silent,001,2022_Sep_20_1057,ProdSingRedoBetween,2021.2.3,59.8890256393178,
,,,,87,0,87,0,,,,,,,,,,,,,,,,,,,,,,791.3527081000066,None,,,,,,,,,,,,,,,,,minute,0,88,silent,old,yellow,789.9692790000117,None,789.9692790000117,None,1,0.6002308000024641,789.9692790000117,None,0.6002308000024641,790.5977371000045,None,791.112819300004,None,791.112819300004,None,n,0.2168935999943642,791.112819300004,None,0.2168935999943642,,,52 silent,001,2022_Sep_20_1057,ProdSingRedoBetween,2021.2.3,59.8890256393178,
,,,,88,0,88,0,,,,,,,,,,,,,,,,,,,,,,794.233876600003,None,,,,,,,,,,,,,,,,,recall,94,89,silent,new,null,791.8656591000035,None,791.8656591000035,None,1,1.6879213000065647,791.8656591000035,None,1.6879213000065647,793.5837675000075,None,794.1019081000122,None,794.1019081000122,None,n,0.10776290000649169,794.1019081000122,None,0.10776290000649169,,,52 silent,001,2022_Sep_20_1057,ProdSingRedoBetween,2021.2.3,59.8890256393178,
,,,,89,0,89,0,,,,,,,,,,,,,,,,,,,,,,796.3705274000095,None,,,,,,,,,,,,,,,,,murder,118,90,silent,new,null,794.7510880000045,None,794.7510880000045,None,1,0.9704485999973258,794.7510880000045,None,0.9704485999973258,795.7522580000077,None,796.2675987000111,None,796.2675987000111,None,n,0.0780077999952482,796.2675987000111,None,0.0780077999952482,,,52 silent,001,2022_Sep_20_1057,ProdSingRedoBetween,2021.2.3,59.8890256393178,
,,,,90,0,90,0,,,,,,,,,,,,,,,,,,,,,,798.4041798000108,None,,,,,,,,,,,,,,,,,science,68,91,silent,old,red,796.8870096000028,None,796.8870096000028,None,1,0.7788198000052944,796.8870096000028,None,0.7788198000052944,797.6884804000001,None,798.2085053000046,None,798.2085053000046,None,n,0.17729880000115372,798.2085053000046,None,0.17729880000115372,,,52 silent,001,2022_Sep_20_1057,ProdSingRedoBetween,2021.2.3,59.8890256393178,
,,,,91,0,91,0,,,,,,,,,,,,,,,,,,,,,,802.5578677000012,None,,,,,,,,,,,,,,,,,music,116,92,silent,new,null,798.9105404000002,None,798.9105404000002,None,4,1.4431116999912774,798.9105404000002,None,1.4431116999912774,800.375325800007,None,800.8901279999991,None,800.8901279999991,None,f,1.647599400006584,800.8901279999991,None,1.647599400006584,,,52 silent,001,2022_Sep_20_1057,ProdSingRedoBetween,2021.2.3,59.8890256393178,
,,,,92,0,92,0,,,,,,,,,,,,,,,,,,,,,,806.575665100012,None,,,,,,,,,,,,,,,,,trial,173,93,silent,new,null,803.0617647000036,None,803.0617647000036,None,3,2.835728799997014,803.0617647000036,None,2.835728799997014,805.9291811000003,None,806.4388348000066,None,806.4388348000066,None,f,0.09879450000880752,806.4388348000066,None,0.09879450000880752,,,52 silent,001,2022_Sep_20_1057,ProdSingRedoBetween,2021.2.3,59.8890256393178,
,,,,93,0,93,0,,,,,,,,,,,,,,,,,,,,,,812.3019433000009,None,,,,,,,,,,,,,,,,,escape,131,94,silent,new,null,807.0810543000116,None,807.0810543000116,None,1,4.552409399999306,807.0810543000116,None,4.552409399999306,811.6523326000024,None,812.1675902999996,None,812.1675902999996,None,n,0.11430400000244845,812.1675902999996,None,0.11430400000244845,,,52 silent,001,2022_Sep_20_1057,ProdSingRedoBetween,2021.2.3,59.8890256393178,
,,,,94,0,94,0,,,,,,,,,,,,,,,,,,,,,,818.7071377000102,None,,,,,,,,,,,,,,,,,listen,8,95,silent,old,yellow,812.8040230000042,None,812.8040230000042,None,3,4.437510999996448,812.8040230000042,None,4.437510999996448,817.2748951000103,None,817.7901029000059,None,817.7901029000059,None,f,0.8914777000027243,817.7901029000059,None,0.8914777000027243,,,52 silent,001,2022_Sep_20_1057,ProdSingRedoBetween,2021.2.3,59.8890256393178,
,,,,95,0,95,0,,,,,,,,,,,,,,,,,,,,,,821.0941710000043,None,,,,,,,,,,,,,,,,,engineer,122,96,silent,new,null,819.2100219999993,None,819.2100219999993,None,1,1.0079687999968883,819.2100219999993,None,1.0079687999968883,820.2673245000042,None,820.7799066000007,None,820.7799066000007,None,n,0.29384870000649244,820.7799066000007,None,0.29384870000649244,,,52 silent,001,2022_Sep_20_1057,ProdSingRedoBetween,2021.2.3,59.8890256393178,
,,,,96,0,96,0,,,,,,,,,,,,,,,,,,,,,,823.8095629000018,None,,,,,,,,,,,,,,,,,waste,78,97,silent,old,red,821.6117805000104,None,821.6117805000104,None,2,1.4777419999882113,821.6117805000104,None,1.4777419999882113,823.11472160001,None,823.6290283000126,None,823.6290283000126,None,f,0.14846789999864995,823.6290283000126,None,0.14846789999864995,,,52 silent,001,2022_Sep_20_1057,ProdSingRedoBetween,2021.2.3,59.8890256393178,
,,,,97,0,97,0,,,,,,,,,,,,,,,,,,,,,,826.7666707000026,None,,,,,,,,,,,,,,,,,marriage,42,98,silent,old,blue,824.3143027000042,None,824.3143027000042,None,1,0.7272206000052392,824.3143027000042,None,0.7272206000052392,825.0658945000032,None,825.5802945000032,None,825.5802945000032,None,f,1.1572856999991927,825.5802945000032,None,1.1572856999991927,,,52 silent,001,2022_Sep_20_1057,ProdSingRedoBetween,2021.2.3,59.8890256393178,
,,,,98,0,98,0,,,,,,,,,,,,,,,,,,,,,,829.1190175000083,None,,,,,,,,,,,,,,,,,thing,163,99,silent,new,null,827.2705592999991,None,827.2705592999991,None,1,1.1470955999975558,827.2705592999991,None,1.1470955999975558,828.4370067999989,None,828.9505048999999,None,828.9505048999999,None,n,0.14721409999765456,828.9505048999999,None,0.14721409999765456,,,52 silent,001,2022_Sep_20_1057,ProdSingRedoBetween,2021.2.3,59.8890256393178,
,,,,99,0,99,0,,,,,,,,,,,,,,,,,,,,,,831.3376038999995,None,,,,,,,,,,,,,,,,,track,108,100,silent,new,null,829.6275676000078,None,829.6275676000078,None,1,0.7019213000021409,829.6275676000078,None,0.7019213000021409,830.354244400005,None,830.8697290000127,None,830.8697290000127,None,n,0.4359297000046354,830.8697290000127,None,0.4359297000046354,,,52 silent,001,2022_Sep_20_1057,ProdSingRedoBetween,2021.2.3,59.8890256393178,
,,,,100,0,100,0,,,,,,,,,,,,,,,,,,,,,,833.2589894000121,None,,,,,,,,,,,,,,,,,employment,114,101,silent,new,null,831.8424940000114,None,831.8424940000114,None,1,0.5829762999928789,831.8424940000114,None,0.5829762999928789,832.4561600000015,None,832.973536400008,None,832.973536400008,None,n,0.259858899997198,832.973536400008,None,0.259858899997198,,,52 silent,001,2022_Sep_20_1057,ProdSingRedoBetween,2021.2.3,59.8890256393178,
,,,,101,0,101,0,,,,,,,,,,,,,,,,,,,,,,836.0442856000009,None,,,,,,,,,,,,,,,,,sound,115,102,silent,new,null,833.7784037000092,None,833.7784037000092,None,4,1.4951549999968847,833.7784037000092,None,1.4951549999968847,835.2928515000094,None,835.8070135000016,None,835.8070135000016,None,f,0.21852840000065044,835.8070135000016,None,0.21852840000065044,,,52 silent,001,2022_Sep_20_1057,ProdSingRedoBetween,2021.2.3,59.8890256393178,
,,,,102,0,102,0,,,,,,,,,,,,,,,,,,,,,,838.4447885000118,None,,,,,,,,,,,,,,,,,husband,39,103,silent,old,blue,836.5700199999992,None,836.5700199999992,None,1,1.1594831999973394,836.5700199999992,None,1.1594831999973394,837.7608390000096,None,838.2769797000074,None,838.2769797000074,None,n,0.14872459998878185,838.2769797000074,None,0.14872459998878185,,,52 silent,001,2022_Sep_20_1057,ProdSingRedoBetween,2021.2.3,59.8890256393178,
,,,,103,0,103,0,,,,,,,,,,,,,,,,,,,,,,840.4792051000113,None,,,,,,,,,,,,,,,,,travel,153,104,silent,new,null,838.9540402999992,None,838.9540402999992,None,1,0.8155535999976564,838.9540402999992,None,0.8155535999976564,839.7986884999991,None,840.3150110000133,None,840.3150110000133,None,n,0.14243480000004638,840.3150110000133,None,0.14243480000004638,,,52 silent,001,2022_Sep_20_1057,ProdSingRedoBetween,2021.2.3,59.8890256393178,
,,,,104,0,104,0,,,,,,,,,,,,,,,,,,,,,,842.3229592000134,None,,,,,,,,,,,,,,,,,report,61,105,silent,old,red,840.9871274000034,None,840.9871274000034,None,1,0.6703820999973686,840.9871274000034,None,0.6703820999973686,841.6829893000104,None,842.1973307000007,None,842.1973307000007,None,n,0.10057330000563525,842.1973307000007,None,0.10057330000563525,,,52 silent,001,2022_Sep_20_1057,ProdSingRedoBetween,2021.2.3,59.8890256393178,
,,,,105,0,105,0,,,,,,,,,,,,,,,,,,,,,,844.8072402000107,None,,,,,,,,,,,,,,,,,interior,98,106,silent,new,null,842.8332099000108,None,842.8332099000108,None,1,1.3442964999994729,842.8332099000108,None,1.3442964999994729,844.2007892000111,None,844.7070552000077,None,844.7070552000077,None,n,0.06260249999468215,844.7070552000077,None,0.06260249999468215,,,52 silent,001,2022_Sep_20_1057,ProdSingRedoBetween,2021.2.3,59.8890256393178,
,,,,106,0,106,0,,,,,,,,,,,,,,,,,,,,,,846.7869214000093,None,,,,,,,,,,,,,,,,,individual,164,107,silent,new,null,845.3211806000036,None,845.3211806000036,None,1,0.768230500005302,845.3211806000036,None,0.768230500005302,846.1190781000041,None,846.6245494000032,None,846.6245494000032,None,n,0.13715670000237878,846.6245494000032,None,0.13715670000237878,,,52 silent,001,2022_Sep_20_1057,ProdSingRedoBetween,2021.2.3,59.8890256393178,
,,,,107,0,107,0,,,,,,,,,,,,,,,,,,,,,,849.806413600003,None,,,,,,,,,,,,,,,,,entrance,67,108,silent,old,red,847.3062449999998,None,847.3062449999998,None,6,1.9113600999990012,847.3062449999998,None,1.9113600999990012,849.2398117000121,None,849.7544786000071,None,849.7544786000071,None,r,0.022921299998415634,849.7544786000071,None,0.022921299998415634,,,52 silent,001,2022_Sep_20_1057,ProdSingRedoBetween,2021.2.3,59.8890256393178,
,,,,108,0,108,0,,,,,,,,,,,,,,,,,,,,,,851.9628489000024,None,,,,,,,,,,,,,,,,,attack,72,109,silent,old,red,850.3237841000082,None,850.3237841000082,None,1,1.0301642999984324,850.3237841000082,None,1.0301642999984324,851.3762280000083,None,851.8953839000023,None,851.8953839000023,None,n,0.033956100000068545,851.8953839000023,None,0.033956100000068545,,,52 silent,001,2022_Sep_20_1057,ProdSingRedoBetween,2021.2.3,59.8890256393178,
,,,,109,0,109,0,,,,,,,,,,,,,,,,,,,,,,855.0618020000111,None,,,,,,,,,,,,,,,,,business,64,110,silent,old,red,852.4760482999991,None,852.4760482999991,None,1,1.7414330000028713,852.4760482999991,None,1.7414330000028713,854.2452475000027,None,854.7597246000078,None,854.7597246000078,None,n,0.2820922000100836,854.7597246000078,None,0.2820922000100836,,,52 silent,001,2022_Sep_20_1057,ProdSingRedoBetween,2021.2.3,59.8890256393178,
,,,,110,0,110,0,,,,,,,,,,,,,,,,,,,,,,858.0819544000115,None,,,,,,,,,,,,,,,,,republic,165,111,silent,new,null,855.5790583000053,None,855.5790583000053,None,1,1.6305520000023535,855.5790583000053,None,1.6305520000023535,857.2309204000048,None,857.746618300007,None,857.746618300007,None,n,0.3028409999969881,857.746618300007,None,0.3028409999969881,,,52 silent,001,2022_Sep_20_1057,ProdSingRedoBetween,2021.2.3,59.8890256393178,
,,,,111,0,111,0,,,,,,,,,,,,,,,,,,,,,,859.8820864000008,None,,,,,,,,,,,,,,,,,swift,129,112,silent,new,null,858.5985943000123,None,858.5985943000123,None,1,0.650930599993444,858.5985943000123,None,0.650930599993444,859.2821999000007,None,859.7982970000012,None,859.7982970000012,None,n,0.059300399996573105,859.7982970000012,None,0.059300399996573105,,,52 silent,001,2022_Sep_20_1057,ProdSingRedoBetween,2021.2.3,59.8890256393178,
,,,,112,0,112,0,,,,,,,,,,,,,,,,,,,,,,861.968465900005,None,,,,,,,,,,,,,,,,,throw,43,113,silent,old,blue,860.3849418000027,None,860.3849418000027,None,1,0.9204659999959404,860.3849418000027,None,0.9204659999959404,861.3346738000109,None,861.8501404000126,None,861.8501404000126,None,n,0.09526759998698253,861.8501404000126,None,0.09526759998698253,,,52 silent,001,2022_Sep_20_1057,ProdSingRedoBetween,2021.2.3,59.8890256393178,
,,,,113,0,113,0,,,,,,,,,,,,,,,,,,,,,,865.1387186000065,None,,,,,,,,,,,,,,,,,burden,13,114,silent,old,yellow,862.4790134000068,None,862.4790134000068,None,6,2.0023631999938516,862.4790134000068,None,2.0023631999938516,864.5049328000023,None,865.0203511,None,865.0203511,None,r,0.0930742999917129,865.0203511,None,0.0930742999917129,,,52 silent,001,2022_Sep_20_1057,ProdSingRedoBetween,2021.2.3,59.8890256393178,
,,,,114,0,114,0,,,,,,,,,,,,,,,,,,,,,,867.9265593000018,None,,,,,,,,,,,,,,,,,treatment,7,115,silent,old,yellow,865.655622700011,None,865.655622700011,None,6,1.681933999992907,865.655622700011,None,1.681933999992907,867.3582732000068,None,867.876884199999,None,867.876884199999,None,r,0.020834500013734214,867.876884199999,None,0.020834500013734214,,,52 silent,001,2022_Sep_20_1057,ProdSingRedoBetween,2021.2.3,59.8890256393178,
,,,,115,0,115,0,,,,,,,,,,,,,,,,,,,,,,871.7449781000032,None,,,,,,,,,,,,,,,,,pattern,135,116,silent,new,null,868.4509542000014,None,868.4509542000014,None,1,2.6546013000042876,868.4509542000014,None,2.6546013000042876,871.1280471000064,None,871.644733100009,None,871.644733100009,None,n,0.07657950000429992,871.644733100009,None,0.07657950000429992,,,52 silent,001,2022_Sep_20_1057,ProdSingRedoBetween,2021.2.3,59.8890256393178,
,,,,116,0,116,0,,,,,,,,,,,,,,,,,,,,,,874.5976498000091,None,,,,,,,,,,,,,,,,,plane,36,117,silent,old,blue,872.2612880000088,None,872.2612880000088,None,1,1.57204620000266,872.2612880000088,None,1.57204620000266,873.8648707000102,None,874.378823600011,None,874.378823600011,None,n,0.19894110001041554,874.378823600011,None,0.19894110001041554,,,52 silent,001,2022_Sep_20_1057,ProdSingRedoBetween,2021.2.3,59.8890256393178,
,,,,117,0,117,0,,,,,,,,,,,,,,,,,,,,,,876.9168340000033,None,,,,,,,,,,,,,,,,,private,91,118,silent,new,null,875.1155278000078,None,875.1155278000078,None,1,1.0698861999990186,875.1155278000078,None,1.0698861999990186,876.2175082000031,None,876.7313330000034,None,876.7313330000034,None,n,0.16650140000274405,876.7313330000034,None,0.16650140000274405,,,52 silent,001,2022_Sep_20_1057,ProdSingRedoBetween,2021.2.3,59.8890256393178,
,,,,118,0,118,0,,,,,,,,,,,,,,,,,,,,,,879.8322530000005,None,,,,,,,,,,,,,,,,,design,100,119,silent,new,null,877.4347215000016,None,877.4347215000016,None,4,1.6470352000033017,877.4347215000016,None,1.6470352000033017,879.1037719000014,None,879.6266803000035,None,879.6266803000035,None,f,0.16687860000820365,879.6266803000035,None,0.16687860000820365,,,52 silent,001,2022_Sep_20_1057,ProdSingRedoBetween,2021.2.3,59.8890256393178,
,,,,119,0,119,0,,,,,,,,,,,,,,,,,,,,,,882.1569443000044,None,,,,,,,,,,,,,,,,,skill,147,120,silent,new,null,880.3377083000087,None,880.3377083000087,None,1,1.0959258999937447,880.3377083000087,None,1.0959258999937447,881.4559881000023,None,881.9766667000076,None,881.9766667000076,None,n,0.15282979999028612,881.9766667000076,None,0.15282979999028612,,,52 silent,001,2022_Sep_20_1057,ProdSingRedoBetween,2021.2.3,59.8890256393178,
,,,,120,0,120,0,,,,,,,,,,,,,,,,,,,,,,884.1908421000117,None,,,,,,,,,,,,,,,,,quiet,95,121,silent,new,null,882.6731365000014,None,882.6731365000014,None,1,0.8802980000036769,882.6731365000014,None,0.8802980000036769,883.5750510000071,None,884.0893156000093,None,884.0893156000093,None,n,0.08029430000169668,884.0893156000093,None,0.08029430000169668,,,52 silent,001,2022_Sep_20_1057,ProdSingRedoBetween,2021.2.3,59.8890256393178,
,,,,121,0,121,0,,,,,,,,,,,,,,,,,,,,,,887.177832100002,None,,,,,,,,,,,,,,,,,vision,20,122,silent,old,yellow,884.718070700008,None,884.718070700008,None,1,1.3952091000101063,884.718070700008,None,1.3952091000101063,886.1449654000025,None,886.6620576000132,None,886.6620576000132,None,n,0.49140020000049844,886.6620576000132,None,0.49140020000049844,,,52 silent,001,2022_Sep_20_1057,ProdSingRedoBetween,2021.2.3,59.8890256393178,
,,,,122,0,122,0,,,,,,,,,,,,,,,,,,,,,,889.1621301000123,None,,,,,,,,,,,,,,,,,broke,170,123,silent,new,null,887.7067234999995,None,887.7067234999995,None,1,0.6386568000016268,887.7067234999995,None,0.6386568000016268,888.377925400011,None,888.8939985000034,None,888.8939985000034,None,n,0.2354226000024937,888.8939985000034,None,0.2354226000024937,,,52 silent,001,2022_Sep_20_1057,ProdSingRedoBetween,2021.2.3,59.8890256393178,
,,,,123,0,123,0,,,,,,,,,,,,,,,,,,,,,,891.63165570001,None,,,,,,,,,,,,,,,,,research,140,124,silent,new,null,889.6683867000102,None,889.6683867000102,None,1,1.157393300003605,889.6683867000102,None,1.157393300003605,890.8512290000072,None,891.3631402000028,None,891.3631402000028,None,n,0.24643300000752788,891.3631402000028,None,0.24643300000752788,,,52 silent,001,2022_Sep_20_1057,ProdSingRedoBetween,2021.2.3,59.8890256393178,
,,,,124,0,124,0,,,,,,,,,,,,,,,,,,,,,,895.2019662000093,None,,,,,,,,,,,,,,,,,appearance,66,125,silent,old,red,892.148637300008,None,892.148637300008,None,6,2.4207459000026574,892.148637300008,None,2.4207459000026574,894.6028233000106,None,895.1172337000025,None,895.1172337000025,None,r,0.05222350000985898,895.1172337000025,None,0.05222350000985898,,,52 silent,001,2022_Sep_20_1057,ProdSingRedoBetween,2021.2.3,59.8890256393178,
,,,,125,0,125,0,,,,,,,,,,,,,,,,,,,,,,900.6262612999999,None,,,,,,,,,,,,,,,,,message,1,126,silent,old,yellow,895.7312199000007,None,895.7312199000007,None,4,3.758187400002498,895.7312199000007,None,3.758187400002498,899.5080893000122,None,900.0293183000031,None,900.0293183000031,None,f,0.5720933999982662,900.0293183000031,None,0.5720933999982662,,,52 silent,001,2022_Sep_20_1057,ProdSingRedoBetween,2021.2.3,59.8890256393178,
,,,,126,0,126,0,,,,,,,,,,,,,,,,,,,,,,904.0775996000011,None,,,,,,,,,,,,,,,,,generation,6,127,silent,old,yellow,901.1486135000014,None,901.1486135000014,None,6,1.828779300005408,901.1486135000014,None,1.828779300005408,903.0128495000099,None,903.5283696000115,None,903.5283696000115,None,r,0.5290153000096325,903.5283696000115,None,0.5290153000096325,,,52 silent,001,2022_Sep_20_1057,ProdSingRedoBetween,2021.2.3,59.8890256393178,
,,,,127,0,127,0,,,,,,,,,,,,,,,,,,,,,,907.3648388000001,None,,,,,,,,,,,,,,,,,audience,143,128,silent,new,null,904.5968958000012,None,904.5968958000012,None,6,2.1004726000101073,904.5968958000012,None,2.1004726000101073,906.7296643000009,None,907.2375303000008,None,907.2375303000008,None,r,0.08415799999784213,907.2375303000008,None,0.08415799999784213,,,52 silent,001,2022_Sep_20_1057,ProdSingRedoBetween,2021.2.3,59.8890256393178,
,,,,128,0,128,0,,,,,,,,,,,,,,,,,,,,,,909.5828108999995,None,,,,,,,,,,,,,,,,,bright,130,129,silent,new,null,907.8804405000119,None,907.8804405000119,None,1,0.9610140999866417,907.8804405000119,None,0.9610140999866417,908.8660845000122,None,909.3852671000059,None,909.3852671000059,None,n,0.16804719998617657,909.3852671000059,None,0.16804719998617657,,,52 silent,001,2022_Sep_20_1057,ProdSingRedoBetween,2021.2.3,59.8890256393178,
,,,,129,0,129,0,,,,,,,,,,,,,,,,,,,,,,912.2930106999993,None,,,,,,,,,,,,,,,,,present,74,130,silent,old,red,910.1031262000033,None,910.1031262000033,None,3,1.5142170000035549,910.1031262000033,None,1.5142170000035549,911.6348531000112,None,912.1551200000104,None,912.1551200000104,None,f,0.11046189999615308,912.1551200000104,None,0.11046189999615308,,,52 silent,001,2022_Sep_20_1057,ProdSingRedoBetween,2021.2.3,59.8890256393178,
,,,,130,0,130,0,,,,,,,,,,,,,,,,,,,,,,914.6203132000082,None,,,,,,,,,,,,,,,,,native,17,131,silent,old,yellow,912.8061108000111,None,912.8061108000111,None,1,1.1551810000091791,912.8061108000111,None,1.1551810000091791,913.9953754000016,None,914.5065590000013,None,914.5065590000013,None,n,0.09477950001019053,914.5065590000013,None,0.09477950001019053,,,52 silent,001,2022_Sep_20_1057,ProdSingRedoBetween,2021.2.3,59.8890256393178,
,,,,131,0,131,0,,,,,,,,,,,,,,,,,,,,,,916.8573887000093,None,,,,,,,,,,,,,,,,,volume,60,132,silent,old,red,915.1312309000059,None,915.1312309000059,None,1,0.8780426000012085,915.1312309000059,None,0.8780426000012085,916.0456046000036,None,916.5561375000107,None,916.5561375000107,None,n,0.2773360999999568,916.5561375000107,None,0.2773360999999568,,,52 silent,001,2022_Sep_20_1057,ProdSingRedoBetween,2021.2.3,59.8890256393178,
,,,,132,0,132,0,,,,,,,,,,,,,,,,,,,,,,920.138958399999,None,,,,,,,,,,,,,,,,,corner,117,133,silent,new,null,917.3803611000039,None,917.3803611000039,None,1,1.716925500004436,917.3803611000039,None,1.716925500004436,919.1254579000088,None,919.641319900009,None,919.641319900009,None,n,0.46431209999718703,919.641319900009,None,0.46431209999718703,,,52 silent,001,2022_Sep_20_1057,ProdSingRedoBetween,2021.2.3,59.8890256393178,
,,,,133,0,133,0,,,,,,,,,,,,,,,,,,,,,,922.1774580000056,None,,,,,,,,,,,,,,,,,command,51,134,silent,old,blue,920.6442152000091,None,920.6442152000091,None,1,0.6691455999971367,920.6442152000091,None,0.6691455999971367,921.3443490000063,None,921.8600887000066,None,921.8600887000066,None,n,0.28537430000142194,921.8600887000066,None,0.28537430000142194,,,52 silent,001,2022_Sep_20_1057,ProdSingRedoBetween,2021.2.3,59.8890256393178,
,,,,134,0,134,0,,,,,,,,,,,,,,,,,,,,,,924.0824256000051,None,,,,,,,,,,,,,,,,,council,125,135,silent,new,null,922.6884783000132,None,922.6884783000132,None,1,0.6007778999919537,922.6884783000132,None,0.6007778999919537,923.3150712000061,None,923.828448500004,None,923.828448500004,None,n,0.2289576000039233,923.828448500004,None,0.2289576000039233,,,52 silent,001,2022_Sep_20_1057,ProdSingRedoBetween,2021.2.3,59.8890256393178,
,,,,135,0,135,0,,,,,,,,,,,,,,,,,,,,,,926.0660357000015,None,,,,,,,,,,,,,,,,,finance,169,136,silent,new,null,924.6100847000052,None,924.6100847000052,None,1,0.6553201999922749,924.6100847000052,None,0.6553201999922749,925.3018830000074,None,925.8213956000109,None,925.8213956000109,None,n,0.2199145999911707,925.8213956000109,None,0.2199145999911707,,,52 silent,001,2022_Sep_20_1057,ProdSingRedoBetween,2021.2.3,59.8890256393178,
,,,,136,0,136,0,,,,,,,,,,,,,,,,,,,,,,929.2523447999993,None,,,,,,,,,,,,,,,,,danger,59,137,silent,old,yellow,926.582854799999,None,926.582854799999,None,6,1.826467999999295,926.582854799999,None,1.826467999999295,928.435069900006,None,928.9508132000046,None,928.9508132000046,None,r,0.2827564000035636,928.9508132000046,None,0.2827564000035636,,,52 silent,001,2022_Sep_20_1057,ProdSingRedoBetween,2021.2.3,59.8890256393178,
,,,,137,0,137,0,,,,,,,,,,,,,,,,,,,,,,933.3898669000046,None,,,,,,,,,,,,,,,,,sight,82,138,silent,old,red,929.7727574000019,None,929.7727574000019,None,1,2.99662520000129,929.7727574000019,None,2.99662520000129,932.7900297000015,None,933.3051634000003,None,933.3051634000003,None,n,0.06443660000513773,933.3051634000003,None,0.06443660000513773,,,52 silent,001,2022_Sep_20_1057,ProdSingRedoBetween,2021.2.3,59.8890256393178,
,,,,138,0,138,0,,,,,,,,,,,,,,,,,,,,,,938.3071361000038,None,,,,,,,,,,,,,,,,,property,179,139,silent,new,null,933.919395200006,None,933.919395200006,None,1,3.2259228999901097,933.919395200006,None,3.2259228999901097,937.1779077000101,None,937.6990556000092,None,937.6990556000092,None,n,0.5745281999988947,937.6990556000092,None,0.5745281999988947,,,52 silent,001,2022_Sep_20_1057,ProdSingRedoBetween,2021.2.3,59.8890256393178,
,,,,139,0,139,0,,,,,,,,,,,,,,,,,,,,,,941.9645242000115,None,,,,,,,,,,,,,,,,,production,57,140,silent,old,blue,938.8195307999995,None,938.8195307999995,None,1,2.4217446999973617,938.8195307999995,None,2.4217446999973617,941.2657803000038,None,941.786471200001,None,941.786471200001,None,n,0.15082549999351613,941.786471200001,None,0.15082549999351613,,,52 silent,001,2022_Sep_20_1057,ProdSingRedoBetween,2021.2.3,59.8890256393178,
,,,,140,0,140,0,,,,,,,,,,,,,,,,,,,,,,944.2507872000133,None,,,,,,,,,,,,,,,,,cousin,138,141,silent,new,null,942.4825137000007,None,942.4825137000007,None,1,1.079129700010526,942.4825137000007,None,1.079129700010526,943.5845789000014,None,944.100883600011,None,944.100883600011,None,n,0.13246500000241213,944.100883600011,None,0.13246500000241213,,,52 silent,001,2022_Sep_20_1057,ProdSingRedoBetween,2021.2.3,59.8890256393178,
,,,,141,0,141,0,,,,,,,,,,,,,,,,,,,,,,946.1524072000029,None,,,,,,,,,,,,,,,,,drama,177,142,silent,new,null,944.7697719000134,None,944.7697719000134,None,1,0.6637542999960715,944.7697719000134,None,0.6637542999960715,945.452615400005,None,945.9687025000021,None,945.9687025000021,None,n,0.15266320000228006,945.9687025000021,None,0.15266320000228006,,,52 silent,001,2022_Sep_20_1057,ProdSingRedoBetween,2021.2.3,59.8890256393178,
,,,,142,0,142,0,,,,,,,,,,,,,,,,,,,,,,948.6379134000017,None,,,,,,,,,,,,,,,,,force,16,143,silent,old,yellow,946.6822994000104,None,946.6822994000104,None,3,1.3109808000008343,946.6822994000104,None,1.3109808000008343,948.0219907999999,None,948.5364858000103,None,948.5364858000103,None,f,0.08108189998893067,948.5364858000103,None,0.08108189998893067,,,52 silent,001,2022_Sep_20_1057,ProdSingRedoBetween,2021.2.3,59.8890256393178,
,,,,143,0,143,0,,,,,,,,,,,,,,,,,,,,,,950.9991760000121,None,,,,,,,,,,,,,,,,,dream,104,144,silent,new,null,949.1544875000109,None,949.1544875000109,None,1,1.0067724000109592,949.1544875000109,None,1.0067724000109592,950.1909963000071,None,950.7057831999991,None,950.7057831999991,None,n,0.2557009000011021,950.7057831999991,None,0.2557009000011021,,,52 silent,001,2022_Sep_20_1057,ProdSingRedoBetween,2021.2.3,59.8890256393178,
,,,,144,0,144,0,,,,,,,,,,,,,,,,,,,,,,952.8392946000095,None,,,,,,,,,,,,,,,,,solution,89,145,silent,old,red,951.5124080000096,None,951.5124080000096,None,1,0.6969459000101779,951.5124080000096,None,0.6969459000101779,952.2457732000039,None,952.7576136999996,None,952.7576136999996,None,n,0.059584900009213015,952.7576136999996,None,0.059584900009213015,,,52 silent,001,2022_Sep_20_1057,ProdSingRedoBetween,2021.2.3,59.8890256393178,
,,,,145,0,145,0,,,,,,,,,,,,,,,,,,,,,,954.8275248999998,None,,,,,,,,,,,,,,,,,testimony,28,146,silent,old,yellow,953.3507152000093,None,953.3507152000093,None,1,0.8584524000034435,953.3507152000093,None,0.8584524000034435,954.2283781000006,None,954.7428893000033,None,954.7428893000033,None,n,0.06637709999631625,954.7428893000033,None,0.06637709999631625,,,52 silent,001,2022_Sep_20_1057,ProdSingRedoBetween,2021.2.3,59.8890256393178,
,,,,146,0,146,0,,,,,,,,,,,,,,,,,,,,,,956.7509617000032,None,,,,,,,,,,,,,,,,,light,84,147,silent,old,red,955.3457073000027,None,955.3457073000027,None,1,0.7916316000046209,955.3457073000027,None,0.7916316000046209,956.1686759000004,None,956.6821216000099,None,956.6821216000099,None,n,0.031179300000076182,956.6821216000099,None,0.031179300000076182,,,52 silent,001,2022_Sep_20_1057,ProdSingRedoBetween,2021.2.3,59.8890256393178,
,,,,147,0,147,0,,,,,,,,,,,,,,,,,,,,,,959.066027000008,None,,,,,,,,,,,,,,,,,point,137,148,silent,new,null,957.2703352000099,None,957.2703352000099,None,1,0.6508784999896307,957.2703352000099,None,0.6508784999896307,957.9501454000128,None,958.4638102000026,None,958.4638102000026,None,n,0.5775277999928221,958.4638102000026,None,0.5775277999928221,,,52 silent,001,2022_Sep_20_1057,ProdSingRedoBetween,2021.2.3,59.8890256393178,
,,,,148,0,148,0,,,,,,,,,,,,,,,,,,,,,,961.3506930000003,None,,,,,,,,,,,,,,,,,household,83,149,silent,old,red,959.5838250000088,None,959.5838250000088,None,1,1.0414518999896245,959.5838250000088,None,1.0414518999896245,960.6522786999994,None,961.1699118000106,None,961.1699118000106,None,n,0.15953790000639856,961.1699118000106,None,0.15953790000639856,,,52 silent,001,2022_Sep_20_1057,ProdSingRedoBetween,2021.2.3,59.8890256393178,
,,,,149,0,149,0,,,,,,,,,,,,,,,,,,,,,,963.9204608,None,,,,,,,,,,,,,,,,,position,79,150,silent,old,red,961.8686225999991,None,961.8686225999991,None,4,1.2527382000116631,961.8686225999991,None,1.2527382000116631,963.1703411000053,None,963.6851426000067,None,963.6851426000067,None,f,0.21208060000208206,963.6851426000067,None,0.21208060000208206,,,52 silent,001,2022_Sep_20_1057,ProdSingRedoBetween,2021.2.3,59.8890256393178,
,,,,150,0,150,0,,,,,,,,,,,,,,,,,,,,,,966.3405075000046,None,,,,,,,,,,,,,,,,,damage,99,151,silent,new,null,964.4375388000044,None,964.4375388000044,None,1,1.0356702000135556,964.4375388000044,None,1.0356702000135556,965.5066989000043,None,966.0382771000004,None,966.0382771000004,None,n,0.28295919999072794,966.0382771000004,None,0.28295919999072794,,,52 silent,001,2022_Sep_20_1057,ProdSingRedoBetween,2021.2.3,59.8890256393178,
,,,,151,0,151,0,,,,,,,,,,,,,,,,,,,,,,970.140907500012,None,,,,,,,,,,,,,,,,,profession,58,152,silent,old,blue,966.8564029000117,None,966.8564029000117,None,3,2.6248481000075117,966.8564029000117,None,2.6248481000075117,969.5096159000095,None,970.0249469000119,None,970.0249469000119,None,f,0.08825860000797547,970.0249469000119,None,0.08825860000797547,,,52 silent,001,2022_Sep_20_1057,ProdSingRedoBetween,2021.2.3,59.8890256393178,
,,,,152,0,152,0,,,,,,,,,,,,,,,,,,,,,,972.5127336000005,None,,,,,,,,,,,,,,,,,split,106,153,silent,new,null,970.6450719000131,None,970.6450719000131,None,1,1.1562045000027865,970.6450719000131,None,1.1562045000027865,971.8287426000024,None,972.3444278000097,None,972.3444278000097,None,n,0.14478159999998752,972.3444278000097,None,0.14478159999998752,,,52 silent,001,2022_Sep_20_1057,ProdSingRedoBetween,2021.2.3,59.8890256393178,
,,,,153,0,153,0,,,,,,,,,,,,,,,,,,,,,,974.8646440000011,None,,,,,,,,,,,,,,,,,youth,166,154,silent,new,null,973.0296734000003,None,973.0296734000003,None,1,1.0195727000100305,973.0296734000003,None,1.0195727000100305,974.0803419000003,None,974.596074800007,None,974.596074800007,None,n,0.24521059999824502,974.596074800007,None,0.24521059999824502,,,52 silent,001,2022_Sep_20_1057,ProdSingRedoBetween,2021.2.3,59.8890256393178,
,,,,154,0,154,0,,,,,,,,,,,,,,,,,,,,,,977.1861694000108,None,,,,,,,,,,,,,,,,,running,70,155,silent,old,red,975.3853827999992,None,975.3853827999992,None,1,1.0557533000101103,975.3853827999992,None,1.0557533000101103,976.473880000005,None,976.9818135000096,None,976.9818135000096,None,n,0.1713657000072999,976.9818135000096,None,0.1713657000072999,,,52 silent,001,2022_Sep_20_1057,ProdSingRedoBetween,2021.2.3,59.8890256393178,
,,,,155,0,155,0,,,,,,,,,,,,,,,,,,,,,,980.896299,None,,,,,,,,,,,,,,,,,column,9,156,silent,old,yellow,977.7006115000113,None,977.7006115000113,None,1,2.548914300001343,977.7006115000113,None,2.548914300001343,980.2710228000069,None,980.7915655000106,None,980.7915655000106,None,n,0.07396890000381973,980.7915655000106,None,0.07396890000381973,,,52 silent,001,2022_Sep_20_1057,ProdSingRedoBetween,2021.2.3,59.8890256393178,
,,,,156,0,156,0,,,,,,,,,,,,,,,,,,,,,,984.8867775000108,None,,,,,,,,,,,,,,,,,rural,23,157,silent,old,yellow,981.4241059000051,None,981.4241059000051,None,5,2.225084399993648,981.4241059000051,None,2.225084399993648,983.6799033999996,None,984.1934815999994,None,984.1934815999994,None,f,0.6557534000021406,984.1934815999994,None,0.6557534000021406,,,52 silent,001,2022_Sep_20_1057,ProdSingRedoBetween,2021.2.3,59.8890256393178,
,,,,157,0,157,0,,,,,,,,,,,,,,,,,,,,,,987.3266065000062,None,,,,,,,,,,,,,,,,,drink,105,158,silent,new,null,985.394465800011,None,985.394465800011,None,1,1.1507795999932569,985.394465800011,None,1.1507795999932569,986.5780897000077,None,987.0919073000114,None,987.0919073000114,None,n,0.2052587000071071,987.0919073000114,None,0.2052587000071071,,,52 silent,001,2022_Sep_20_1057,ProdSingRedoBetween,2021.2.3,59.8890256393178,
,,,,158,0,158,0,,,,,,,,,,,,,,,,,,,,,,989.8123533000035,None,,,,,,,,,,,,,,,,,store,46,159,silent,old,blue,987.8442040000082,None,987.8442040000082,None,1,1.2292637999926228,987.8442040000082,None,1.2292637999926228,989.0955888000026,None,989.6108849000011,None,989.6108849000011,None,n,0.18249540000397246,989.6108849000011,None,0.18249540000397246,,,52 silent,001,2022_Sep_20_1057,ProdSingRedoBetween,2021.2.3,59.8890256393178,
,,,,159,0,159,0,,,,,,,,,,,,,,,,,,,,,,993.2205747000116,None,,,,,,,,,,,,,,,,,bicycle,24,160,silent,old,yellow,990.3297376000119,None,990.3297376000119,None,1,2.3194651000085287,990.3297376000119,None,2.3194651000085287,992.685438600005,None,993.1985756000067,None,993.1985756000067,None,n,0.002845600000000559,993.1985756000067,None,0.002845600000000559,,,52 silent,001,2022_Sep_20_1057,ProdSingRedoBetween,2021.2.3,59.8890256393178,
,,,,160,0,160,0,,,,,,,,,,,,,,,,,,,,,,999.1409459000133,None,,,,,,,,,,,,,,,,,candidate,4,161,silent,old,yellow,993.7351686000038,None,993.7351686000038,None,4,3.8740034000074957,993.7351686000038,None,3.8740034000074957,997.6372529000073,None,998.1665509000013,None,998.1665509000013,None,f,0.9466549999924609,998.1665509000013,None,0.9466549999924609,,,52 silent,001,2022_Sep_20_1057,ProdSingRedoBetween,2021.2.3,59.8890256393178,
,,,,161,0,161,0,,,,,,,,,,,,,,,,,,,,,,1001.3416443000024,None,,,,,,,,,,,,,,,,,service,41,162,silent,old,blue,999.6566956000024,None,999.6566956000024,None,1,0.9287133000034373,999.6566956000024,None,0.9287133000034373,1000.6095590000041,None,1001.122935300009,None,1001.122935300009,None,n,0.19035140000050887,1001.122935300009,None,0.19035140000050887,,,52 silent,001,2022_Sep_20_1057,ProdSingRedoBetween,2021.2.3,59.8890256393178,
,,,,162,0,162,0,,,,,,,,,,,,,,,,,,,,,,1003.343219500006,None,,,,,,,,,,,,,,,,,commercial,26,163,silent,old,yellow,1001.8578895000101,None,1001.8578895000101,None,1,0.8952263999963179,1001.8578895000101,None,0.8952263999963179,1002.7760920000001,None,1003.2914932000131,None,1003.2914932000131,None,n,0.029959899999084882,1003.2914932000131,None,0.029959899999084882,,,52 silent,001,2022_Sep_20_1057,ProdSingRedoBetween,2021.2.3,59.8890256393178,
,,,,163,0,163,0,,,,,,,,,,,,,,,,,,,,,,1005.4612870000128,None,,,,,,,,,,,,,,,,,thick,75,164,silent,old,red,1003.8708678000112,None,1003.8708678000112,None,1,0.9303743000054965,1003.8708678000112,None,0.9303743000054965,1004.8284459999995,None,1005.342779300001,None,1005.342779300001,None,n,0.09043710000696592,1005.342779300001,None,0.09043710000696592,,,52 silent,001,2022_Sep_20_1057,ProdSingRedoBetween,2021.2.3,59.8890256393178,
,,,,164,0,164,0,,,,,,,,,,,,,,,,,,,,,,1007.6987784000085,None,,,,,,,,,,,,,,,,,strength,178,165,silent,new,null,1005.9639852000109,None,1005.9639852000109,None,1,1.0852144999953452,1005.9639852000109,None,1.0852144999953452,1007.0806269000022,None,1007.5990561000071,None,1007.5990561000071,None,n,0.08217680000234395,1007.5990561000071,None,0.08217680000234395,,,52 silent,001,2022_Sep_20_1057,ProdSingRedoBetween,2021.2.3,59.8890256393178,
,,,,165,0,165,0,,,,,,,,,,,,,,,,,,,,,,1009.8498338000063,None,,,,,,,,,,,,,,,,,speech,25,166,silent,old,yellow,1008.2181936000125,None,1008.2181936000125,None,1,1.0390354999981355,1008.2181936000125,None,1.0390354999981355,1009.2844426000083,None,1009.7973872000002,None,1009.7973872000002,None,n,0.019823399998131208,1009.7973872000002,None,0.019823399998131208,,,52 silent,001,2022_Sep_20_1057,ProdSingRedoBetween,2021.2.3,59.8890256393178,
,,,,166,0,166,0,,,,,,,,,,,,,,,,,,,,,,1012.1682141000056,None,,,,,,,,,,,,,,,,,career,53,167,silent,old,blue,1010.3669752999995,None,1010.3669752999995,None,2,1.0182570000033593,1010.3669752999995,None,1.0182570000033593,1011.4173414000106,None,1011.9185220000072,None,1011.9185220000072,None,f,0.22671540000010282,1011.9185220000072,None,0.22671540000010282,,,52 silent,001,2022_Sep_20_1057,ProdSingRedoBetween,2021.2.3,59.8890256393178,
,,,,167,0,167,0,,,,,,,,,,,,,,,,,,,,,,1014.2966196000052,None,,,,,,,,,,,,,,,,,south,123,168,silent,new,null,1012.6890977000003,None,1012.6890977000003,None,1,0.920050300002913,1012.6890977000003,None,0.920050300002913,1013.6376481000043,None,1014.1523326000024,None,1014.1523326000024,None,n,0.10484549999819137,1014.1523326000024,None,0.10484549999819137,,,52 silent,001,2022_Sep_20_1057,ProdSingRedoBetween,2021.2.3,59.8890256393178,
,,,,168,0,168,0,,,,,,,,,,,,,,,,,,,,,,1017.0564755000087,None,,,,,,,,,,,,,,,,,express,161,169,silent,new,null,1014.8206654000096,None,1014.8206654000096,None,1,1.5244868000008864,1014.8206654000096,None,1.5244868000008864,1016.3757597000076,None,1016.8895536000055,None,1016.8895536000055,None,n,0.13568520000262652,1016.8895536000055,None,0.13568520000262652,,,52 silent,001,2022_Sep_20_1057,ProdSingRedoBetween,2021.2.3,59.8890256393178,
,,,,169,0,169,0,,,,,,,,,,,,,,,,,,,,,,1020.8596472000063,None,,,,,,,,,,,,,,,,,congress,35,170,silent,old,blue,1017.5744356000068,None,1017.5744356000068,None,6,2.626782199993613,1017.5744356000068,None,2.626782199993613,1020.232296800008,None,1020.7591219000024,None,1020.7591219000024,None,r,0.07417970000824425,1020.7591219000024,None,0.07417970000824425,,,52 silent,001,2022_Sep_20_1057,ProdSingRedoBetween,2021.2.3,59.8890256393178,
,,,,170,0,170,0,,,,,,,,,,,,,,,,,,,,,,1023.4626873000088,None,,,,,,,,,,,,,,,,,relation,45,171,silent,old,blue,1021.3618894000101,None,1021.3618894000101,None,4,1.4872253999928944,1021.3618894000101,None,1.4872253999928944,1022.8795519000123,None,1023.4030870999995,None,1023.4030870999995,None,f,0.0301579000079073,1023.4030870999995,None,0.0301579000079073,,,52 silent,001,2022_Sep_20_1057,ProdSingRedoBetween,2021.2.3,59.8890256393178,
,,,,171,0,171,0,,,,,,,,,,,,,,,,,,,,,,1025.7008895000035,None,,,,,,,,,,,,,,,,,court,142,172,silent,new,null,1023.9669959000021,None,1023.9669959000021,None,1,1.018172099997173,1023.9669959000021,None,1.018172099997173,1025.0162402000133,None,1025.5316492999991,None,1025.5316492999991,None,n,0.14948649999860208,1025.5316492999991,None,0.14948649999860208,,,52 silent,001,2022_Sep_20_1057,ProdSingRedoBetween,2021.2.3,59.8890256393178,
,,,,172,0,172,0,,,,,,,,,,,,,,,,,,,,,,1029.3688192000118,None,,,,,,,,,,,,,,,,,growth,175,173,silent,new,null,1026.2203874000115,None,1026.2203874000115,None,5,2.508719999997993,1026.2203874000115,None,2.508719999997993,1028.7561603000067,None,1029.2670552000054,None,1029.2670552000054,None,f,0.07013480000023264,1029.2670552000054,None,0.07013480000023264,,,52 silent,001,2022_Sep_20_1057,ProdSingRedoBetween,2021.2.3,59.8890256393178,
,,,,173,0,173,0,,,,,,,,,,,,,,,,,,,,,,1032.8885746000014,None,,,,,,,,,,,,,,,,,drove,47,174,silent,old,blue,1029.8862816000037,None,1029.8862816000037,None,1,1.322859799998696,1029.8862816000037,None,1.322859799998696,1031.2377024000016,None,1031.7529950000026,None,1031.7529950000026,None,n,1.1122004000062589,1031.7529950000026,None,1.1122004000062589,,,52 silent,001,2022_Sep_20_1057,ProdSingRedoBetween,2021.2.3,59.8890256393178,
,,,,174,0,174,0,,,,,,,,,,,,,,,,,,,,,,1035.7587483000098,None,,,,,,,,,,,,,,,,,primary,44,175,silent,old,blue,1033.3908614000102,None,1033.3908614000102,None,6,1.7862830999947619,1033.3908614000102,None,1.7862830999947619,1035.2096003000042,None,1035.723861400009,None,1035.723861400009,None,r,0.005248699992080219,1035.723861400009,None,0.005248699992080219,,,52 silent,001,2022_Sep_20_1057,ProdSingRedoBetween,2021.2.3,59.8890256393178,
,,,,175,0,175,0,,,,,,,,,,,,,,,,,,,,,,1039.5990421000024,None,,,,,,,,,,,,,,,,,front,144,176,silent,new,null,1036.2793101999996,None,1036.2793101999996,None,4,2.7140779000037583,1036.2793101999996,None,2.7140779000037583,1039.0229923000006,None,1039.5325779000123,None,1039.5325779000123,None,f,0.036852799996268004,1039.5325779000123,None,0.036852799996268004,,,52 silent,001,2022_Sep_20_1057,ProdSingRedoBetween,2021.2.3,59.8890256393178,
,,,,176,0,176,0,,,,,,,,,,,,,,,,,,,,,,1042.1305174000008,None,,,,,,,,,,,,,,,,,junior,157,177,silent,new,null,1040.1251234000083,None,1040.1251234000083,None,1,0.9800157999998191,1040.1251234000083,None,0.9800157999998191,1041.130531600007,None,1041.6515036000055,None,1041.6515036000055,None,n,0.4536394000024302,1041.6515036000055,None,0.4536394000024302,,,52 silent,001,2022_Sep_20_1057,ProdSingRedoBetween,2021.2.3,59.8890256393178,
