StudyLoop.thisRepN,StudyLoop.thisTrialN,StudyLoop.thisN,StudyLoop.thisIndex,TestLoop.thisRepN,TestLoop.thisTrialN,TestLoop.thisN,TestLoop.thisIndex,textCondition.started,textCondition.stopped,keyCondition.keys,keyCondition.rt,keyCondition.started,keyCondition.stopped,Condition,textWelcome.started,textWelcome.stopped,keyWelcome.keys,keyWelcome.rt,keyWelcome.started,keyWelcome.stopped,textAloud.started,textAloud.stopped,textSilent.started,textSilent.stopped,textSing.started,textSing.stopped,conditional_text.started,conditional_text.stopped,textBlank500.started,textBlank500.stopped,study_word,study_num,study_order,study_type,word_color,textStudy.started,textStudy.stopped,keyStudy.keys,keyStudy.started,keyStudy.stopped,textTestInstructions.started,textTestInstructions.stopped,key_resp_3.keys,key_resp_3.rt,key_resp_3.started,key_resp_3.stopped,test_word,test_num,test_order,test_condition,old_new_test,test_word_original_color,textConf.started,textConf.stopped,textConfScale.started,textConfScale.stopped,keyConf.keys,keyConf.rt,keyConf.started,keyConf.stopped,confidence response time,textTestBlank.started,textTestBlank.stopped,textRKN.started,textRKN.stopped,textRKNScale.started,textRKNScale.stopped,keyRKN.keys,keyRKN.rt,keyRKN.started,keyRKN.stopped,rkn response time,textEnd.started,textEnd.stopped,participant,session,date,expName,psychopyVersion,frameRate,
,,,,,,,,689.9710259999847,None,b,121.85882870000205,689.9710259999847,None,,,,,,,,,,,,,,,,,,,,,,,,,,,,,,,,,,,,,,,,,,,,,,,,,,,,,,,,,,,,,,53 aloud,001,2022_Sep_22_1053,ProdSingRedoBetween,2021.2.3,59.859055866988164,
,,,,,,,,,,,,,,AloudTest,811.8920111999905,None,space,11.489816199988127,811.8920111999905,None,,,,,,,,,,,,,,,,,,,,,,,,,,,,,,,,,,,,,,,,,,,,,,,,,,,,,,,53 aloud,001,2022_Sep_22_1053,ProdSingRedoBetween,2021.2.3,59.859055866988164,
0,0,0,0,,,,,,,,,,,,,,,,,,811.8920111999905,None,811.8920111999905,None,811.8920111999905,None,811.8920111999905,None,825.9189742000017,None,appeal,45,1,aloud,blue,823.9115638999792,None,None,823.9115638999792,None,,,,,,,,,,,,,,,,,,,,,,,,,,,,,,,,,,,53 aloud,001,2022_Sep_22_1053,ProdSingRedoBetween,2021.2.3,59.859055866988164,
1,0,1,0,,,,,,,,,,,,,,,,,,,,,,,,,,828.4214261999878,None,strain,69,2,aloud,red,826.4218274999876,None,None,826.4218274999876,None,,,,,,,,,,,,,,,,,,,,,,,,,,,,,,,,,,,53 aloud,001,2022_Sep_22_1053,ProdSingRedoBetween,2021.2.3,59.859055866988164,
2,0,2,0,,,,,,,,,,,,,,,,,,,,,,,,,,830.9405689999985,None,track,3,3,aloud,yellow,828.9426488000026,None,None,828.9426488000026,None,,,,,,,,,,,,,,,,,,,,,,,,,,,,,,,,,,,53 aloud,001,2022_Sep_22_1053,ProdSingRedoBetween,2021.2.3,59.859055866988164,
3,0,3,0,,,,,,,,,,,,,,,,,,,,,,,,,,833.4432585999893,None,touch,66,4,aloud,red,831.4432604999747,None,None,831.4432604999747,None,,,,,,,,,,,,,,,,,,,,,,,,,,,,,,,,,,,53 aloud,001,2022_Sep_22_1053,ProdSingRedoBetween,2021.2.3,59.859055866988164,
4,0,4,0,,,,,,,,,,,,,,,,,,,,,,,,,,835.9626738999796,None,foundation,10,5,aloud,yellow,833.9462323999905,None,None,833.9462323999905,None,,,,,,,,,,,,,,,,,,,,,,,,,,,,,,,,,,,53 aloud,001,2022_Sep_22_1053,ProdSingRedoBetween,2021.2.3,59.859055866988164,
5,0,5,0,,,,,,,,,,,,,,,,,,,,,,,,,,838.465152299992,None,block,70,6,aloud,red,836.46307659999,None,None,836.46307659999,None,,,,,,,,,,,,,,,,,,,,,,,,,,,,,,,,,,,53 aloud,001,2022_Sep_22_1053,ProdSingRedoBetween,2021.2.3,59.859055866988164,
6,0,6,0,,,,,,,,,,,,,,,,,,,,,,,,,,840.983846099989,None,signal,49,7,aloud,blue,838.9697324000008,None,None,838.9697324000008,None,,,,,,,,,,,,,,,,,,,,,,,,,,,,,,,,,,,53 aloud,001,2022_Sep_22_1053,ProdSingRedoBetween,2021.2.3,59.859055866988164,
7,0,7,0,,,,,,,,,,,,,,,,,,,,,,,,,,843.4864407999848,None,broad,72,8,aloud,red,841.4869228999887,None,None,841.4869228999887,None,,,,,,,,,,,,,,,,,,,,,,,,,,,,,,,,,,,53 aloud,001,2022_Sep_22_1053,ProdSingRedoBetween,2021.2.3,59.859055866988164,
8,0,8,0,,,,,,,,,,,,,,,,,,,,,,,,,,845.9888470000005,None,permit,59,9,aloud,yellow,843.9895735000027,None,None,843.9895735000027,None,,,,,,,,,,,,,,,,,,,,,,,,,,,,,,,,,,,53 aloud,001,2022_Sep_22_1053,ProdSingRedoBetween,2021.2.3,59.859055866988164,
9,0,9,0,,,,,,,,,,,,,,,,,,,,,,,,,,848.4947027000017,None,skill,15,10,aloud,yellow,846.491641200002,None,None,846.491641200002,None,,,,,,,,,,,,,,,,,,,,,,,,,,,,,,,,,,,53 aloud,001,2022_Sep_22_1053,ProdSingRedoBetween,2021.2.3,59.859055866988164,
10,0,10,0,,,,,,,,,,,,,,,,,,,,,,,,,,851.0109033999906,None,childhood,19,11,aloud,yellow,849.0108877999883,None,None,849.0108877999883,None,,,,,,,,,,,,,,,,,,,,,,,,,,,,,,,,,,,53 aloud,001,2022_Sep_22_1053,ProdSingRedoBetween,2021.2.3,59.859055866988164,
11,0,11,0,,,,,,,,,,,,,,,,,,,,,,,,,,853.529905399977,None,measure,32,12,aloud,blue,851.526311900001,None,None,851.526311900001,None,,,,,,,,,,,,,,,,,,,,,,,,,,,,,,,,,,,53 aloud,001,2022_Sep_22_1053,ProdSingRedoBetween,2021.2.3,59.859055866988164,
12,0,12,0,,,,,,,,,,,,,,,,,,,,,,,,,,856.0322176999762,None,length,50,13,aloud,blue,854.0318787999859,None,None,854.0318787999859,None,,,,,,,,,,,,,,,,,,,,,,,,,,,,,,,,,,,53 aloud,001,2022_Sep_22_1053,ProdSingRedoBetween,2021.2.3,59.859055866988164,
13,0,13,0,,,,,,,,,,,,,,,,,,,,,,,,,,858.5350416000001,None,corner,67,14,aloud,red,856.5345514999935,None,None,856.5345514999935,None,,,,,,,,,,,,,,,,,,,,,,,,,,,,,,,,,,,53 aloud,001,2022_Sep_22_1053,ProdSingRedoBetween,2021.2.3,59.859055866988164,
14,0,14,0,,,,,,,,,,,,,,,,,,,,,,,,,,861.0539660999784,None,mechanical,25,15,aloud,yellow,859.0409291999822,None,None,859.0409291999822,None,,,,,,,,,,,,,,,,,,,,,,,,,,,,,,,,,,,53 aloud,001,2022_Sep_22_1053,ProdSingRedoBetween,2021.2.3,59.859055866988164,
15,0,15,0,,,,,,,,,,,,,,,,,,,,,,,,,,863.5563497999974,None,weather,40,16,aloud,blue,861.5547100999975,None,None,861.5547100999975,None,,,,,,,,,,,,,,,,,,,,,,,,,,,,,,,,,,,53 aloud,001,2022_Sep_22_1053,ProdSingRedoBetween,2021.2.3,59.859055866988164,
16,0,16,0,,,,,,,,,,,,,,,,,,,,,,,,,,866.059222699987,None,trial,62,17,aloud,red,864.0596129999903,None,None,864.0596129999903,None,,,,,,,,,,,,,,,,,,,,,,,,,,,,,,,,,,,53 aloud,001,2022_Sep_22_1053,ProdSingRedoBetween,2021.2.3,59.859055866988164,
17,0,17,0,,,,,,,,,,,,,,,,,,,,,,,,,,868.5616654999903,None,council,36,18,aloud,blue,866.561420699989,None,None,866.561420699989,None,,,,,,,,,,,,,,,,,,,,,,,,,,,,,,,,,,,53 aloud,001,2022_Sep_22_1053,ProdSingRedoBetween,2021.2.3,59.859055866988164,
18,0,18,0,,,,,,,,,,,,,,,,,,,,,,,,,,871.0806917999871,None,comfort,88,19,aloud,red,869.0661301999935,None,None,869.0661301999935,None,,,,,,,,,,,,,,,,,,,,,,,,,,,,,,,,,,,53 aloud,001,2022_Sep_22_1053,ProdSingRedoBetween,2021.2.3,59.859055866988164,
19,0,19,0,,,,,,,,,,,,,,,,,,,,,,,,,,873.5832973999786,None,tough,58,20,aloud,blue,871.582720299979,None,None,871.582720299979,None,,,,,,,,,,,,,,,,,,,,,,,,,,,,,,,,,,,53 aloud,001,2022_Sep_22_1053,ProdSingRedoBetween,2021.2.3,59.859055866988164,
20,0,20,0,,,,,,,,,,,,,,,,,,,,,,,,,,876.0855910999817,None,company,46,21,aloud,blue,874.0862239999988,None,None,874.0862239999988,None,,,,,,,,,,,,,,,,,,,,,,,,,,,,,,,,,,,53 aloud,001,2022_Sep_22_1053,ProdSingRedoBetween,2021.2.3,59.859055866988164,
21,0,21,0,,,,,,,,,,,,,,,,,,,,,,,,,,878.60487499999,None,swift,0,22,aloud,yellow,876.5892603999819,None,None,876.5892603999819,None,,,,,,,,,,,,,,,,,,,,,,,,,,,,,,,,,,,53 aloud,001,2022_Sep_22_1053,ProdSingRedoBetween,2021.2.3,59.859055866988164,
22,0,22,0,,,,,,,,,,,,,,,,,,,,,,,,,,881.1074386999826,None,solution,5,23,aloud,yellow,879.1075310999877,None,None,879.1075310999877,None,,,,,,,,,,,,,,,,,,,,,,,,,,,,,,,,,,,53 aloud,001,2022_Sep_22_1053,ProdSingRedoBetween,2021.2.3,59.859055866988164,
23,0,23,0,,,,,,,,,,,,,,,,,,,,,,,,,,883.6099369000003,None,bright,74,24,aloud,red,881.6087828000018,None,None,881.6087828000018,None,,,,,,,,,,,,,,,,,,,,,,,,,,,,,,,,,,,53 aloud,001,2022_Sep_22_1053,ProdSingRedoBetween,2021.2.3,59.859055866988164,
24,0,24,0,,,,,,,,,,,,,,,,,,,,,,,,,,886.1122639999958,None,engineer,16,25,aloud,yellow,884.1110247999895,None,None,884.1110247999895,None,,,,,,,,,,,,,,,,,,,,,,,,,,,,,,,,,,,53 aloud,001,2022_Sep_22_1053,ProdSingRedoBetween,2021.2.3,59.859055866988164,
25,0,25,0,,,,,,,,,,,,,,,,,,,,,,,,,,888.6316050000023,None,novel,75,26,aloud,red,886.6165579999797,None,None,886.6165579999797,None,,,,,,,,,,,,,,,,,,,,,,,,,,,,,,,,,,,53 aloud,001,2022_Sep_22_1053,ProdSingRedoBetween,2021.2.3,59.859055866988164,
26,0,26,0,,,,,,,,,,,,,,,,,,,,,,,,,,891.1507472999801,None,short,53,27,aloud,blue,889.1465574999747,None,None,889.1465574999747,None,,,,,,,,,,,,,,,,,,,,,,,,,,,,,,,,,,,53 aloud,001,2022_Sep_22_1053,ProdSingRedoBetween,2021.2.3,59.859055866988164,
27,0,27,0,,,,,,,,,,,,,,,,,,,,,,,,,,893.6533270999789,None,force,44,28,aloud,blue,891.6524266999913,None,None,891.6524266999913,None,,,,,,,,,,,,,,,,,,,,,,,,,,,,,,,,,,,53 aloud,001,2022_Sep_22_1053,ProdSingRedoBetween,2021.2.3,59.859055866988164,
28,0,28,0,,,,,,,,,,,,,,,,,,,,,,,,,,896.1729242999863,None,congress,51,29,aloud,blue,894.1579407999816,None,None,894.1579407999816,None,,,,,,,,,,,,,,,,,,,,,,,,,,,,,,,,,,,53 aloud,001,2022_Sep_22_1053,ProdSingRedoBetween,2021.2.3,59.859055866988164,
29,0,29,0,,,,,,,,,,,,,,,,,,,,,,,,,,898.6746994999994,None,recall,73,30,aloud,red,896.6727193999977,None,None,896.6727193999977,None,,,,,,,,,,,,,,,,,,,,,,,,,,,,,,,,,,,53 aloud,001,2022_Sep_22_1053,ProdSingRedoBetween,2021.2.3,59.859055866988164,
30,0,30,0,,,,,,,,,,,,,,,,,,,,,,,,,,901.1939942999743,None,welcome,13,31,aloud,yellow,899.1795645999955,None,None,899.1795645999955,None,,,,,,,,,,,,,,,,,,,,,,,,,,,,,,,,,,,53 aloud,001,2022_Sep_22_1053,ProdSingRedoBetween,2021.2.3,59.859055866988164,
31,0,31,0,,,,,,,,,,,,,,,,,,,,,,,,,,903.6962830999983,None,present,17,32,aloud,yellow,901.6971403999778,None,None,901.6971403999778,None,,,,,,,,,,,,,,,,,,,,,,,,,,,,,,,,,,,53 aloud,001,2022_Sep_22_1053,ProdSingRedoBetween,2021.2.3,59.859055866988164,
32,0,32,0,,,,,,,,,,,,,,,,,,,,,,,,,,906.1988849999907,None,suggestion,83,33,aloud,red,904.1992988999991,None,None,904.1992988999991,None,,,,,,,,,,,,,,,,,,,,,,,,,,,,,,,,,,,53 aloud,001,2022_Sep_22_1053,ProdSingRedoBetween,2021.2.3,59.859055866988164,
33,0,33,0,,,,,,,,,,,,,,,,,,,,,,,,,,908.7017365999927,None,substance,20,34,aloud,yellow,906.7017446999962,None,None,906.7017446999962,None,,,,,,,,,,,,,,,,,,,,,,,,,,,,,,,,,,,53 aloud,001,2022_Sep_22_1053,ProdSingRedoBetween,2021.2.3,59.859055866988164,
34,0,34,0,,,,,,,,,,,,,,,,,,,,,,,,,,911.2041755999962,None,meeting,2,35,aloud,yellow,909.2038793999818,None,None,909.2038793999818,None,,,,,,,,,,,,,,,,,,,,,,,,,,,,,,,,,,,53 aloud,001,2022_Sep_22_1053,ProdSingRedoBetween,2021.2.3,59.859055866988164,
35,0,35,0,,,,,,,,,,,,,,,,,,,,,,,,,,913.7232402999944,None,relation,18,36,aloud,yellow,911.7078513999877,None,None,911.7078513999877,None,,,,,,,,,,,,,,,,,,,,,,,,,,,,,,,,,,,53 aloud,001,2022_Sep_22_1053,ProdSingRedoBetween,2021.2.3,59.859055866988164,
36,0,36,0,,,,,,,,,,,,,,,,,,,,,,,,,,916.2259199999971,None,listen,28,37,aloud,yellow,914.2236843999999,None,None,914.2236843999999,None,,,,,,,,,,,,,,,,,,,,,,,,,,,,,,,,,,,53 aloud,001,2022_Sep_22_1053,ProdSingRedoBetween,2021.2.3,59.859055866988164,
37,0,37,0,,,,,,,,,,,,,,,,,,,,,,,,,,918.7284778999747,None,dance,8,38,aloud,yellow,916.7275459999801,None,None,916.7275459999801,None,,,,,,,,,,,,,,,,,,,,,,,,,,,,,,,,,,,53 aloud,001,2022_Sep_22_1053,ProdSingRedoBetween,2021.2.3,59.859055866988164,
38,0,38,0,,,,,,,,,,,,,,,,,,,,,,,,,,921.2472054999962,None,travel,60,39,aloud,red,919.2338086999953,None,None,919.2338086999953,None,,,,,,,,,,,,,,,,,,,,,,,,,,,,,,,,,,,53 aloud,001,2022_Sep_22_1053,ProdSingRedoBetween,2021.2.3,59.859055866988164,
39,0,39,0,,,,,,,,,,,,,,,,,,,,,,,,,,923.750241199974,None,community,84,40,aloud,red,921.7501797000004,None,None,921.7501797000004,None,,,,,,,,,,,,,,,,,,,,,,,,,,,,,,,,,,,53 aloud,001,2022_Sep_22_1053,ProdSingRedoBetween,2021.2.3,59.859055866988164,
40,0,40,0,,,,,,,,,,,,,,,,,,,,,,,,,,926.252282499976,None,growth,1,41,aloud,yellow,924.2526174999948,None,None,924.2526174999948,None,,,,,,,,,,,,,,,,,,,,,,,,,,,,,,,,,,,53 aloud,001,2022_Sep_22_1053,ProdSingRedoBetween,2021.2.3,59.859055866988164,
41,0,41,0,,,,,,,,,,,,,,,,,,,,,,,,,,928.7548523999867,None,balance,86,42,aloud,red,926.7538551999896,None,None,926.7538551999896,None,,,,,,,,,,,,,,,,,,,,,,,,,,,,,,,,,,,53 aloud,001,2022_Sep_22_1053,ProdSingRedoBetween,2021.2.3,59.859055866988164,
42,0,42,0,,,,,,,,,,,,,,,,,,,,,,,,,,931.2575884999824,None,platform,47,43,aloud,blue,929.2571094000014,None,None,929.2571094000014,None,,,,,,,,,,,,,,,,,,,,,,,,,,,,,,,,,,,53 aloud,001,2022_Sep_22_1053,ProdSingRedoBetween,2021.2.3,59.859055866988164,
43,0,43,0,,,,,,,,,,,,,,,,,,,,,,,,,,933.7597263999924,None,store,68,44,aloud,red,931.7603246999788,None,None,931.7603246999788,None,,,,,,,,,,,,,,,,,,,,,,,,,,,,,,,,,,,53 aloud,001,2022_Sep_22_1053,ProdSingRedoBetween,2021.2.3,59.859055866988164,
44,0,44,0,,,,,,,,,,,,,,,,,,,,,,,,,,936.2626337999827,None,clean,4,45,aloud,yellow,934.2612461999815,None,None,934.2612461999815,None,,,,,,,,,,,,,,,,,,,,,,,,,,,,,,,,,,,53 aloud,001,2022_Sep_22_1053,ProdSingRedoBetween,2021.2.3,59.859055866988164,
45,0,45,0,,,,,,,,,,,,,,,,,,,,,,,,,,938.7813881999755,None,testimony,39,46,aloud,blue,936.7705437999975,None,None,936.7705437999975,None,,,,,,,,,,,,,,,,,,,,,,,,,,,,,,,,,,,53 aloud,001,2022_Sep_22_1053,ProdSingRedoBetween,2021.2.3,59.859055866988164,
46,0,46,0,,,,,,,,,,,,,,,,,,,,,,,,,,941.2847520999785,None,answer,89,47,aloud,red,939.2823573999922,None,None,939.2823573999922,None,,,,,,,,,,,,,,,,,,,,,,,,,,,,,,,,,,,53 aloud,001,2022_Sep_22_1053,ProdSingRedoBetween,2021.2.3,59.859055866988164,
47,0,47,0,,,,,,,,,,,,,,,,,,,,,,,,,,943.786555699975,None,column,22,48,aloud,yellow,941.7857094999927,None,None,941.7857094999927,None,,,,,,,,,,,,,,,,,,,,,,,,,,,,,,,,,,,53 aloud,001,2022_Sep_22_1053,ProdSingRedoBetween,2021.2.3,59.859055866988164,
48,0,48,0,,,,,,,,,,,,,,,,,,,,,,,,,,946.2888730999839,None,revolution,21,49,aloud,yellow,944.2896710999776,None,None,944.2896710999776,None,,,,,,,,,,,,,,,,,,,,,,,,,,,,,,,,,,,53 aloud,001,2022_Sep_22_1053,ProdSingRedoBetween,2021.2.3,59.859055866988164,
49,0,49,0,,,,,,,,,,,,,,,,,,,,,,,,,,948.7916090999788,None,history,27,50,aloud,yellow,946.7919315999898,None,None,946.7919315999898,None,,,,,,,,,,,,,,,,,,,,,,,,,,,,,,,,,,,53 aloud,001,2022_Sep_22_1053,ProdSingRedoBetween,2021.2.3,59.859055866988164,
50,0,50,0,,,,,,,,,,,,,,,,,,,,,,,,,,951.3105788999819,None,sleep,43,51,aloud,blue,949.29537539999,None,None,949.29537539999,None,,,,,,,,,,,,,,,,,,,,,,,,,,,,,,,,,,,53 aloud,001,2022_Sep_22_1053,ProdSingRedoBetween,2021.2.3,59.859055866988164,
51,0,51,0,,,,,,,,,,,,,,,,,,,,,,,,,,953.8126052999869,None,hearing,37,52,aloud,blue,951.8134743999981,None,None,951.8134743999981,None,,,,,,,,,,,,,,,,,,,,,,,,,,,,,,,,,,,53 aloud,001,2022_Sep_22_1053,ProdSingRedoBetween,2021.2.3,59.859055866988164,
52,0,52,0,,,,,,,,,,,,,,,,,,,,,,,,,,956.3153675999783,None,opening,64,53,aloud,red,954.3153565999819,None,None,954.3153565999819,None,,,,,,,,,,,,,,,,,,,,,,,,,,,,,,,,,,,53 aloud,001,2022_Sep_22_1053,ProdSingRedoBetween,2021.2.3,59.859055866988164,
53,0,53,0,,,,,,,,,,,,,,,,,,,,,,,,,,958.834898799978,None,discussion,41,54,aloud,blue,956.8194932999904,None,None,956.8194932999904,None,,,,,,,,,,,,,,,,,,,,,,,,,,,,,,,,,,,53 aloud,001,2022_Sep_22_1053,ProdSingRedoBetween,2021.2.3,59.859055866988164,
54,0,54,0,,,,,,,,,,,,,,,,,,,,,,,,,,961.3539771999931,None,trash,26,55,aloud,yellow,959.3390589999908,None,None,959.3390589999908,None,,,,,,,,,,,,,,,,,,,,,,,,,,,,,,,,,,,53 aloud,001,2022_Sep_22_1053,ProdSingRedoBetween,2021.2.3,59.859055866988164,
55,0,55,0,,,,,,,,,,,,,,,,,,,,,,,,,,963.8566541999753,None,finance,6,56,aloud,yellow,961.8560477999854,None,None,961.8560477999854,None,,,,,,,,,,,,,,,,,,,,,,,,,,,,,,,,,,,53 aloud,001,2022_Sep_22_1053,ProdSingRedoBetween,2021.2.3,59.859055866988164,
56,0,56,0,,,,,,,,,,,,,,,,,,,,,,,,,,966.375947499997,None,heavy,23,57,aloud,yellow,964.3603716999933,None,None,964.3603716999933,None,,,,,,,,,,,,,,,,,,,,,,,,,,,,,,,,,,,53 aloud,001,2022_Sep_22_1053,ProdSingRedoBetween,2021.2.3,59.859055866988164,
57,0,57,0,,,,,,,,,,,,,,,,,,,,,,,,,,968.8782615999808,None,gesture,29,58,aloud,blue,966.8789545999898,None,None,966.8789545999898,None,,,,,,,,,,,,,,,,,,,,,,,,,,,,,,,,,,,53 aloud,001,2022_Sep_22_1053,ProdSingRedoBetween,2021.2.3,59.859055866988164,
58,0,58,0,,,,,,,,,,,,,,,,,,,,,,,,,,971.3803837999876,None,treatment,55,59,aloud,blue,969.3810393999738,None,None,969.3810393999738,None,,,,,,,,,,,,,,,,,,,,,,,,,,,,,,,,,,,53 aloud,001,2022_Sep_22_1053,ProdSingRedoBetween,2021.2.3,59.859055866988164,
59,0,59,0,,,,,,,,,,,,,,,,,,,,,,,,,,973.8836348999757,None,pancakes,30,60,aloud,blue,971.8834079999942,None,None,971.8834079999942,None,,,,,,,,,,,,,,,,,,,,,,,,,,,,,,,,,,,53 aloud,001,2022_Sep_22_1053,ProdSingRedoBetween,2021.2.3,59.859055866988164,
60,0,60,0,,,,,,,,,,,,,,,,,,,,,,,,,,976.3865221999877,None,capital,7,61,aloud,yellow,974.3856443999975,None,None,974.3856443999975,None,,,,,,,,,,,,,,,,,,,,,,,,,,,,,,,,,,,53 aloud,001,2022_Sep_22_1053,ProdSingRedoBetween,2021.2.3,59.859055866988164,
61,0,61,0,,,,,,,,,,,,,,,,,,,,,,,,,,978.8885775999806,None,addition,52,62,aloud,blue,976.887135899975,None,None,976.887135899975,None,,,,,,,,,,,,,,,,,,,,,,,,,,,,,,,,,,,53 aloud,001,2022_Sep_22_1053,ProdSingRedoBetween,2021.2.3,59.859055866988164,
62,0,62,0,,,,,,,,,,,,,,,,,,,,,,,,,,981.4073525999847,None,drink,77,63,aloud,red,979.3928518999892,None,None,979.3928518999892,None,,,,,,,,,,,,,,,,,,,,,,,,,,,,,,,,,,,53 aloud,001,2022_Sep_22_1053,ProdSingRedoBetween,2021.2.3,59.859055866988164,
63,0,63,0,,,,,,,,,,,,,,,,,,,,,,,,,,983.9262520999764,None,quarter,57,64,aloud,blue,981.9123294999881,None,None,981.9123294999881,None,,,,,,,,,,,,,,,,,,,,,,,,,,,,,,,,,,,53 aloud,001,2022_Sep_22_1053,ProdSingRedoBetween,2021.2.3,59.859055866988164,
64,0,64,0,,,,,,,,,,,,,,,,,,,,,,,,,,986.4290596999926,None,author,48,65,aloud,blue,984.4273378999787,None,None,984.4273378999787,None,,,,,,,,,,,,,,,,,,,,,,,,,,,,,,,,,,,53 aloud,001,2022_Sep_22_1053,ProdSingRedoBetween,2021.2.3,59.859055866988164,
65,0,65,0,,,,,,,,,,,,,,,,,,,,,,,,,,988.9482931999955,None,primary,87,66,aloud,red,986.934998599987,None,None,986.934998599987,None,,,,,,,,,,,,,,,,,,,,,,,,,,,,,,,,,,,53 aloud,001,2022_Sep_22_1053,ProdSingRedoBetween,2021.2.3,59.859055866988164,
66,0,66,0,,,,,,,,,,,,,,,,,,,,,,,,,,991.4507807999908,None,broke,79,67,aloud,red,989.4493988999748,None,None,989.4493988999748,None,,,,,,,,,,,,,,,,,,,,,,,,,,,,,,,,,,,53 aloud,001,2022_Sep_22_1053,ProdSingRedoBetween,2021.2.3,59.859055866988164,
67,0,67,0,,,,,,,,,,,,,,,,,,,,,,,,,,993.9534158000024,None,research,78,68,aloud,red,991.9535544999817,None,None,991.9535544999817,None,,,,,,,,,,,,,,,,,,,,,,,,,,,,,,,,,,,53 aloud,001,2022_Sep_22_1053,ProdSingRedoBetween,2021.2.3,59.859055866988164,
68,0,68,0,,,,,,,,,,,,,,,,,,,,,,,,,,996.4734013999987,None,angle,80,69,aloud,red,994.4588125000009,None,None,994.4588125000009,None,,,,,,,,,,,,,,,,,,,,,,,,,,,,,,,,,,,53 aloud,001,2022_Sep_22_1053,ProdSingRedoBetween,2021.2.3,59.859055866988164,
69,0,69,0,,,,,,,,,,,,,,,,,,,,,,,,,,998.9749832999951,None,count,63,70,aloud,red,996.974525699974,None,None,996.974525699974,None,,,,,,,,,,,,,,,,,,,,,,,,,,,,,,,,,,,53 aloud,001,2022_Sep_22_1053,ProdSingRedoBetween,2021.2.3,59.859055866988164,
70,0,70,0,,,,,,,,,,,,,,,,,,,,,,,,,,1001.477813799982,None,escape,42,71,aloud,blue,999.4775803999801,None,None,999.4775803999801,None,,,,,,,,,,,,,,,,,,,,,,,,,,,,,,,,,,,53 aloud,001,2022_Sep_22_1053,ProdSingRedoBetween,2021.2.3,59.859055866988164,
71,0,71,0,,,,,,,,,,,,,,,,,,,,,,,,,,1003.9963642999937,None,volume,24,72,aloud,yellow,1001.9819629999984,None,None,1001.9819629999984,None,,,,,,,,,,,,,,,,,,,,,,,,,,,,,,,,,,,53 aloud,001,2022_Sep_22_1053,ProdSingRedoBetween,2021.2.3,59.859055866988164,
72,0,72,0,,,,,,,,,,,,,,,,,,,,,,,,,,1006.4992083999969,None,afternoon,76,73,aloud,red,1004.4987072999938,None,None,1004.4987072999938,None,,,,,,,,,,,,,,,,,,,,,,,,,,,,,,,,,,,53 aloud,001,2022_Sep_22_1053,ProdSingRedoBetween,2021.2.3,59.859055866988164,
73,0,73,0,,,,,,,,,,,,,,,,,,,,,,,,,,1009.0182626000023,None,chief,56,74,aloud,blue,1007.0037098999892,None,None,1007.0037098999892,None,,,,,,,,,,,,,,,,,,,,,,,,,,,,,,,,,,,53 aloud,001,2022_Sep_22_1053,ProdSingRedoBetween,2021.2.3,59.859055866988164,
74,0,74,0,,,,,,,,,,,,,,,,,,,,,,,,,,1011.5207908999873,None,motion,85,75,aloud,red,1009.5186407000001,None,None,1009.5186407000001,None,,,,,,,,,,,,,,,,,,,,,,,,,,,,,,,,,,,53 aloud,001,2022_Sep_22_1053,ProdSingRedoBetween,2021.2.3,59.859055866988164,
75,0,75,0,,,,,,,,,,,,,,,,,,,,,,,,,,1014.0233061999897,None,household,54,76,aloud,blue,1012.0228369999968,None,None,1012.0228369999968,None,,,,,,,,,,,,,,,,,,,,,,,,,,,,,,,,,,,53 aloud,001,2022_Sep_22_1053,ProdSingRedoBetween,2021.2.3,59.859055866988164,
76,0,76,0,,,,,,,,,,,,,,,,,,,,,,,,,,1016.5422231999983,None,surface,71,77,aloud,red,1014.5284051999915,None,None,1014.5284051999915,None,,,,,,,,,,,,,,,,,,,,,,,,,,,,,,,,,,,53 aloud,001,2022_Sep_22_1053,ProdSingRedoBetween,2021.2.3,59.859055866988164,
77,0,77,0,,,,,,,,,,,,,,,,,,,,,,,,,,1019.0614544999844,None,collection,33,78,aloud,blue,1017.0492680000025,None,None,1017.0492680000025,None,,,,,,,,,,,,,,,,,,,,,,,,,,,,,,,,,,,53 aloud,001,2022_Sep_22_1053,ProdSingRedoBetween,2021.2.3,59.859055866988164,
78,0,78,0,,,,,,,,,,,,,,,,,,,,,,,,,,1021.5641537999909,None,range,14,79,aloud,yellow,1019.562511999975,None,None,1019.562511999975,None,,,,,,,,,,,,,,,,,,,,,,,,,,,,,,,,,,,53 aloud,001,2022_Sep_22_1053,ProdSingRedoBetween,2021.2.3,59.859055866988164,
79,0,79,0,,,,,,,,,,,,,,,,,,,,,,,,,,1024.0836181999766,None,defeat,12,80,aloud,yellow,1022.0704690999992,None,None,1022.0704690999992,None,,,,,,,,,,,,,,,,,,,,,,,,,,,,,,,,,,,53 aloud,001,2022_Sep_22_1053,ProdSingRedoBetween,2021.2.3,59.859055866988164,
80,0,80,0,,,,,,,,,,,,,,,,,,,,,,,,,,1026.5861557999742,None,entrance,31,81,aloud,blue,1024.5843751999782,None,None,1024.5843751999782,None,,,,,,,,,,,,,,,,,,,,,,,,,,,,,,,,,,,53 aloud,001,2022_Sep_22_1053,ProdSingRedoBetween,2021.2.3,59.859055866988164,
81,0,81,0,,,,,,,,,,,,,,,,,,,,,,,,,,1029.088371299993,None,error,38,82,aloud,blue,1027.0871629999892,None,None,1027.0871629999892,None,,,,,,,,,,,,,,,,,,,,,,,,,,,,,,,,,,,53 aloud,001,2022_Sep_22_1053,ProdSingRedoBetween,2021.2.3,59.859055866988164,
82,0,82,0,,,,,,,,,,,,,,,,,,,,,,,,,,1031.5906619000016,None,society,82,83,aloud,red,1029.5910192999872,None,None,1029.5910192999872,None,,,,,,,,,,,,,,,,,,,,,,,,,,,,,,,,,,,53 aloud,001,2022_Sep_22_1053,ProdSingRedoBetween,2021.2.3,59.859055866988164,
83,0,83,0,,,,,,,,,,,,,,,,,,,,,,,,,,1034.093475199974,None,character,61,84,aloud,red,1032.0923379999876,None,None,1032.0923379999876,None,,,,,,,,,,,,,,,,,,,,,,,,,,,,,,,,,,,53 aloud,001,2022_Sep_22_1053,ProdSingRedoBetween,2021.2.3,59.859055866988164,
84,0,84,0,,,,,,,,,,,,,,,,,,,,,,,,,,1036.6124029999773,None,military,35,85,aloud,blue,1034.5980029999919,None,None,1034.5980029999919,None,,,,,,,,,,,,,,,,,,,,,,,,,,,,,,,,,,,53 aloud,001,2022_Sep_22_1053,ProdSingRedoBetween,2021.2.3,59.859055866988164,
85,0,85,0,,,,,,,,,,,,,,,,,,,,,,,,,,1039.115145799995,None,front,81,86,aloud,red,1037.1138723999902,None,None,1037.1138723999902,None,,,,,,,,,,,,,,,,,,,,,,,,,,,,,,,,,,,53 aloud,001,2022_Sep_22_1053,ProdSingRedoBetween,2021.2.3,59.859055866988164,
86,0,86,0,,,,,,,,,,,,,,,,,,,,,,,,,,1041.6172584999877,None,rough,9,87,aloud,yellow,1039.6162637999805,None,None,1039.6162637999805,None,,,,,,,,,,,,,,,,,,,,,,,,,,,,,,,,,,,53 aloud,001,2022_Sep_22_1053,ProdSingRedoBetween,2021.2.3,59.859055866988164,
87,0,87,0,,,,,,,,,,,,,,,,,,,,,,,,,,1044.1366220999917,None,atmosphere,65,88,aloud,red,1042.1258383999811,None,None,1042.1258383999811,None,,,,,,,,,,,,,,,,,,,,,,,,,,,,,,,,,,,53 aloud,001,2022_Sep_22_1053,ProdSingRedoBetween,2021.2.3,59.859055866988164,
88,0,88,0,,,,,,,,,,,,,,,,,,,,,,,,,,1046.639493099996,None,career,34,89,aloud,blue,1044.6373620999802,None,None,1044.6373620999802,None,,,,,,,,,,,,,,,,,,,,,,,,,,,,,,,,,,,53 aloud,001,2022_Sep_22_1053,ProdSingRedoBetween,2021.2.3,59.859055866988164,
89,0,89,0,,,,,,,,,,,,,,,,,,,,,,,,,,1049.141225200001,None,smell,11,90,aloud,yellow,1047.1425599999784,None,None,1047.1425599999784,None,,,,,,,,,,,,,,,,,,,,,,,,,,,,,,,,,,,53 aloud,001,2022_Sep_22_1053,ProdSingRedoBetween,2021.2.3,59.859055866988164,
,,,,,,,,,,,,,,,,,,,,,,,,,,,,,,,,,,,,,,,,,1049.6423525999999,None,k,44.44324259998393,1049.6423525999999,None,,,,,,,,,,,,,,,,,,,,,,,,,,,,,53 aloud,001,2022_Sep_22_1053,ProdSingRedoBetween,2021.2.3,59.859055866988164,
,,,,0,0,0,0,,,,,,,,,,,,,,,,,,,,,,1105.5336909999896,None,,,,,,,,,,,,,,,,,trial,62,1,aloud,old,red,1094.6066462000017,None,1094.6066462000017,None,6,8.519091199996183,1094.6066462000017,None,8.519091199996183,1103.1486779999977,None,1103.6631113999756,None,1103.6631113999756,None,r,1.838171900017187,1103.6631113999756,None,1.838171900017187,,,53 aloud,001,2022_Sep_22_1053,ProdSingRedoBetween,2021.2.3,59.859055866988164,
,,,,1,0,1,0,,,,,,,,,,,,,,,,,,,,,,1110.0873301999818,None,,,,,,,,,,,,,,,,,working,175,2,aloud,new,null,1106.0507559999824,None,1106.0507559999824,None,1,2.4746068000094965,1106.0507559999824,None,2.4746068000094965,1108.5585750000027,None,1109.0683556000004,None,1109.0683556000004,None,n,1.0009976000001188,1109.0683556000004,None,1.0009976000001188,,,53 aloud,001,2022_Sep_22_1053,ProdSingRedoBetween,2021.2.3,59.859055866988164,
,,,,2,0,2,0,,,,,,,,,,,,,,,,,,,,,,1115.2048360999906,None,,,,,,,,,,,,,,,,,finance,6,3,aloud,old,yellow,1110.604600599996,None,1110.604600599996,None,6,2.776769799995236,1110.604600599996,None,2.776769799995236,1113.4082548999868,None,1113.9225420999865,None,1113.9225420999865,None,r,1.242826600006083,1113.9225420999865,None,1.242826600006083,,,53 aloud,001,2022_Sep_22_1053,ProdSingRedoBetween,2021.2.3,59.859055866988164,
,,,,3,0,3,0,,,,,,,,,,,,,,,,,,,,,,1118.5117952,None,,,,,,,,,,,,,,,,,people,169,4,aloud,new,null,1115.7106716999842,None,1115.7106716999842,None,1,1.2707307999953628,1115.7106716999842,None,1.2707307999953628,1117.0112839999783,None,1117.5267801999871,None,1117.5267801999871,None,n,0.9585908000008203,1117.5267801999871,None,0.9585908000008203,,,53 aloud,001,2022_Sep_22_1053,ProdSingRedoBetween,2021.2.3,59.859055866988164,
,,,,4,0,4,0,,,,,,,,,,,,,,,,,,,,,,1123.2172809999902,None,,,,,,,,,,,,,,,,,state,108,5,aloud,new,null,1119.0234149999742,None,1119.0234149999742,None,1,1.9898173999972641,1119.0234149999742,None,1.9898173999972641,1121.0322484999779,None,1121.5470769999956,None,1121.5470769999956,None,n,1.6504328000009991,1121.5470769999956,None,1.6504328000009991,,,53 aloud,001,2022_Sep_22_1053,ProdSingRedoBetween,2021.2.3,59.859055866988164,
,,,,5,0,5,0,,,,,,,,,,,,,,,,,,,,,,1127.3215342999902,None,,,,,,,,,,,,,,,,,running,90,6,aloud,new,null,1123.7346187999938,None,1123.7346187999938,None,1,2.366988099995069,1123.7346187999938,None,2.366988099995069,1126.1279365999799,None,1126.6354246999836,None,1126.6354246999836,None,n,0.65786800000933,1126.6354246999836,None,0.65786800000933,,,53 aloud,001,2022_Sep_22_1053,ProdSingRedoBetween,2021.2.3,59.859055866988164,
,,,,6,0,6,0,,,,,,,,,,,,,,,,,,,,,,1131.3586253999965,None,,,,,,,,,,,,,,,,,company,46,7,aloud,old,blue,1127.8400495999958,None,1127.8400495999958,None,6,1.637194000009913,1127.8400495999958,None,1.637194000009913,1129.5084695999976,None,1130.022799599974,None,1130.022799599974,None,r,1.3105049000005238,1130.022799599974,None,1.3105049000005238,,,53 aloud,001,2022_Sep_22_1053,ProdSingRedoBetween,2021.2.3,59.859055866988164,
,,,,7,0,7,0,,,,,,,,,,,,,,,,,,,,,,1137.7804522999795,None,,,,,,,,,,,,,,,,,production,178,8,aloud,new,null,1131.8753825000022,None,1131.8753825000022,None,1,4.218070600007195,1131.8753825000022,None,4.218070600007195,1136.1151550999784,None,1136.6341614999983,None,1136.6341614999983,None,n,1.1231414999929257,1136.6341614999983,None,1.1231414999929257,,,53 aloud,001,2022_Sep_22_1053,ProdSingRedoBetween,2021.2.3,59.859055866988164,
,,,,8,0,8,0,,,,,,,,,,,,,,,,,,,,,,1143.6870479999925,None,,,,,,,,,,,,,,,,,education,121,9,aloud,new,null,1138.2821266999817,None,1138.2821266999817,None,2,2.8674535999889486,1138.2821266999817,None,2.8674535999889486,1141.1695900999766,None,1141.6842648999882,None,1141.6842648999882,None,f,1.985112800000934,1141.6842648999882,None,1.985112800000934,,,53 aloud,001,2022_Sep_22_1053,ProdSingRedoBetween,2021.2.3,59.859055866988164,
,,,,9,0,9,0,,,,,,,,,,,,,,,,,,,,,,1147.0070611999836,None,,,,,,,,,,,,,,,,,court,165,10,aloud,new,null,1144.1913244999887,None,1144.1913244999887,None,1,1.7899585000122897,1144.1913244999887,None,1.7899585000122897,1146.0075137999956,None,1146.5218070999836,None,1146.5218070999836,None,n,0.45978129998547956,1146.5218070999836,None,0.45978129998547956,,,53 aloud,001,2022_Sep_22_1053,ProdSingRedoBetween,2021.2.3,59.859055866988164,
,,,,10,0,10,0,,,,,,,,,,,,,,,,,,,,,,1151.294208599982,None,,,,,,,,,,,,,,,,,substance,20,11,aloud,old,yellow,1147.5158830999862,None,1147.5158830999862,None,6,1.8973987000063062,1147.5158830999862,None,1.8973987000063062,1149.4453297999862,None,1149.9594503999979,None,1149.9594503999979,None,r,1.3098860000027344,1149.9594503999979,None,1.3098860000027344,,,53 aloud,001,2022_Sep_22_1053,ProdSingRedoBetween,2021.2.3,59.859055866988164,
,,,,11,0,11,0,,,,,,,,,,,,,,,,,,,,,,1156.9026251999894,None,,,,,,,,,,,,,,,,,distance,115,12,aloud,new,null,1151.806734199985,None,1151.806734199985,None,2,3.8547784999827854,1151.806734199985,None,3.8547784999827854,1155.6835733999906,None,1156.1984352,None,1156.1984352,None,f,0.6788215000124183,1156.1984352,None,0.6788215000124183,,,53 aloud,001,2022_Sep_22_1053,ProdSingRedoBetween,2021.2.3,59.859055866988164,
,,,,12,0,12,0,,,,,,,,,,,,,,,,,,,,,,1160.3062196999963,None,,,,,,,,,,,,,,,,,medicine,104,13,aloud,new,null,1157.4168457999767,None,1157.4168457999767,None,1,1.5403685000201222,1157.4168457999767,None,1.5403685000201222,1158.9905119999894,None,1159.5068151000014,None,1159.5068151000014,None,n,0.7705144000065047,1159.5068151000014,None,0.7705144000065047,,,53 aloud,001,2022_Sep_22_1053,ProdSingRedoBetween,2021.2.3,59.859055866988164,
,,,,13,0,13,0,,,,,,,,,,,,,,,,,,,,,,1168.0242723999836,None,,,,,,,,,,,,,,,,,listen,28,14,aloud,old,yellow,1160.8218070000003,None,1160.8218070000003,None,5,5.871460499998648,1160.8218070000003,None,5.871460499998648,1166.7116954999801,None,1167.2292657999787,None,1167.2292657999787,None,f,0.7520375000021886,1167.2292657999787,None,0.7520375000021886,,,53 aloud,001,2022_Sep_22_1053,ProdSingRedoBetween,2021.2.3,59.859055866988164,
,,,,14,0,14,0,,,,,,,,,,,,,,,,,,,,,,1171.327487499977,None,,,,,,,,,,,,,,,,,plane,105,15,aloud,new,null,1168.5289526999986,None,1168.5289526999986,None,1,1.3084238000155892,1168.5289526999986,None,1.3084238000155892,1169.86618859999,None,1170.3793853999814,None,1170.3793853999814,None,n,0.9142273000034038,1170.3793853999814,None,0.9142273000034038,,,53 aloud,001,2022_Sep_22_1053,ProdSingRedoBetween,2021.2.3,59.859055866988164,
,,,,15,0,15,0,,,,,,,,,,,,,,,,,,,,,,1176.3025293999817,None,,,,,,,,,,,,,,,,,welcome,13,16,aloud,old,yellow,1171.8356223999872,None,1171.8356223999872,None,2,2.7695526000170503,1171.8356223999872,None,2.7695526000170503,1174.6359477999795,None,1175.1511645999853,None,1175.1511645999853,None,f,1.133966800000053,1175.1511645999853,None,1.133966800000053,,,53 aloud,001,2022_Sep_22_1053,ProdSingRedoBetween,2021.2.3,59.859055866988164,
,,,,16,0,16,0,,,,,,,,,,,,,,,,,,,,,,1179.823451299977,None,,,,,,,,,,,,,,,,,congress,51,17,aloud,old,blue,1176.8049301999854,None,1176.8049301999854,None,6,1.4162045999837574,1176.8049301999854,None,1.4162045999837574,1178.239354099991,None,1178.755368299986,None,1178.755368299986,None,r,1.0419073000084609,1178.755368299986,None,1.0419073000084609,,,53 aloud,001,2022_Sep_22_1053,ProdSingRedoBetween,2021.2.3,59.859055866988164,
,,,,17,0,17,0,,,,,,,,,,,,,,,,,,,,,,1182.8100344999984,None,,,,,,,,,,,,,,,,,mechanical,25,18,aloud,old,yellow,1180.3399494999903,None,1180.3399494999903,None,6,1.321330599981593,1180.3399494999903,None,1.321330599981593,1181.691689499974,None,1182.2074057999998,None,1182.2074057999998,None,r,0.5737465999845881,1182.2074057999998,None,0.5737465999845881,,,53 aloud,001,2022_Sep_22_1053,ProdSingRedoBetween,2021.2.3,59.859055866988164,
,,,,18,0,18,0,,,,,,,,,,,,,,,,,,,,,,1187.4133054999984,None,,,,,,,,,,,,,,,,,count,63,19,aloud,old,red,1183.3395598999923,None,1183.3395598999923,None,5,2.937643500015838,1183.3395598999923,None,2.937643500015838,1186.2974411999749,None,1186.8145986000018,None,1186.8145986000018,None,f,0.5826088000030722,1186.8145986000018,None,0.5826088000030722,,,53 aloud,001,2022_Sep_22_1053,ProdSingRedoBetween,2021.2.3,59.859055866988164,
,,,,19,0,19,0,,,,,,,,,,,,,,,,,,,,,,1191.1015762999887,None,,,,,,,,,,,,,,,,,motion,85,20,aloud,old,red,1187.919937699975,None,1187.919937699975,None,6,2.0291563000064343,1187.919937699975,None,2.0291563000064343,1189.9698950999882,None,1190.4822230999998,None,1190.4822230999998,None,f,0.5949034999939613,1190.4822230999998,None,0.5949034999939613,,,53 aloud,001,2022_Sep_22_1053,ProdSingRedoBetween,2021.2.3,59.859055866988164,
,,,,20,0,20,0,,,,,,,,,,,,,,,,,,,,,,1196.4400172999885,None,,,,,,,,,,,,,,,,,drink,77,21,aloud,old,red,1191.6191366999992,None,1191.6191366999992,None,6,2.8503232000221033,1191.6191366999992,None,2.8503232000221033,1194.4903585999855,None,1195.0040356999962,None,1195.0040356999962,None,r,1.4092095000087284,1195.0040356999962,None,1.4092095000087284,,,53 aloud,001,2022_Sep_22_1053,ProdSingRedoBetween,2021.2.3,59.859055866988164,
,,,,21,0,21,0,,,,,,,,,,,,,,,,,,,,,,1200.1930176999886,None,,,,,,,,,,,,,,,,,silence,148,22,aloud,new,null,1196.9413167999883,None,1196.9413167999883,None,5,1.960015899996506,1196.9413167999883,None,1.960015899996506,1198.9273884999857,None,1199.4421830999781,None,1199.4421830999781,None,f,0.7312970000202768,1199.4421830999781,None,0.7312970000202768,,,53 aloud,001,2022_Sep_22_1053,ProdSingRedoBetween,2021.2.3,59.859055866988164,
,,,,22,0,22,0,,,,,,,,,,,,,,,,,,,,,,1203.5140980999859,None,,,,,,,,,,,,,,,,,store,68,23,aloud,old,red,1200.6964923999913,None,1200.6964923999913,None,1,1.676625200023409,1200.6964923999913,None,1.676625200023409,1202.4020940999908,None,1202.9124121999776,None,1202.9124121999776,None,n,0.5726909000077285,1202.9124121999776,None,0.5726909000077285,,,53 aloud,001,2022_Sep_22_1053,ProdSingRedoBetween,2021.2.3,59.859055866988164,
,,,,23,0,23,0,,,,,,,,,,,,,,,,,,,,,,1206.9186547999852,None,,,,,,,,,,,,,,,,,shock,142,24,aloud,new,null,1204.0318723999953,None,1204.0318723999953,None,1,1.5495131999778096,1204.0318723999953,None,1.5495131999778096,1205.6004865999857,None,1206.1163699999743,None,1206.1163699999743,None,n,0.7771006000111811,1206.1163699999743,None,0.7771006000111811,,,53 aloud,001,2022_Sep_22_1053,ProdSingRedoBetween,2021.2.3,59.859055866988164,
,,,,24,0,24,0,,,,,,,,,,,,,,,,,,,,,,1211.6368520999968,None,,,,,,,,,,,,,,,,,strength,137,25,aloud,new,null,1207.4364751999965,None,1207.4364751999965,None,2,3.0969574000046123,1207.4364751999965,None,3.0969574000046123,1210.5556193999946,None,1211.0692403999856,None,1211.0692403999856,None,f,0.5518894999986514,1211.0692403999856,None,0.5518894999986514,,,53 aloud,001,2022_Sep_22_1053,ProdSingRedoBetween,2021.2.3,59.859055866988164,
,,,,25,0,25,0,,,,,,,,,,,,,,,,,,,,,,1217.2942161999817,None,,,,,,,,,,,,,,,,,atmosphere,65,26,aloud,old,red,1212.1407834999845,None,1212.1407834999845,None,6,2.488338399998611,1212.1407834999845,None,2.488338399998611,1214.6603400000022,None,1215.1749384999857,None,1215.1749384999857,None,r,2.1024037999741267,1215.1749384999857,None,2.1024037999741267,,,53 aloud,001,2022_Sep_22_1053,ProdSingRedoBetween,2021.2.3,59.859055866988164,
,,,,26,0,26,0,,,,,,,,,,,,,,,,,,,,,,1221.6483618999773,None,,,,,,,,,,,,,,,,,engineer,16,27,aloud,old,yellow,1217.8108340999752,None,1217.8108340999752,None,6,2.738266600004863,1217.8108340999752,None,2.738266600004863,1220.5882587999804,None,1221.0964627999929,None,1221.0964627999929,None,r,0.5328107999812346,1221.0964627999929,None,0.5328107999812346,,,53 aloud,001,2022_Sep_22_1053,ProdSingRedoBetween,2021.2.3,59.859055866988164,
,,,,27,0,27,0,,,,,,,,,,,,,,,,,,,,,,1225.5340495999844,None,,,,,,,,,,,,,,,,,personnel,129,28,aloud,new,null,1222.1646695999952,None,1222.1646695999952,None,1,1.4964771999802906,1222.1646695999952,None,1.4964771999802906,1223.6861703999748,None,1224.1993032999744,None,1224.1993032999744,None,n,1.3097574000130408,1224.1993032999744,None,1.3097574000130408,,,53 aloud,001,2022_Sep_22_1053,ProdSingRedoBetween,2021.2.3,59.859055866988164,
,,,,28,0,28,0,,,,,,,,,,,,,,,,,,,,,,1230.5869248999807,None,,,,,,,,,,,,,,,,,community,84,29,aloud,old,red,1226.0404667999828,None,1226.0404667999828,None,6,3.0608789999969304,1226.0404667999828,None,3.0608789999969304,1229.1232635999913,None,1229.6399173999962,None,1229.6399173999962,None,r,0.9012120999977924,1229.6399173999962,None,0.9012120999977924,,,53 aloud,001,2022_Sep_22_1053,ProdSingRedoBetween,2021.2.3,59.859055866988164,
,,,,29,0,29,0,,,,,,,,,,,,,,,,,,,,,,1234.561183999991,None,,,,,,,,,,,,,,,,,general,173,30,aloud,new,null,1231.0909410000022,None,1231.0909410000022,None,1,1.474326600000495,1231.0909410000022,None,1.474326600000495,1232.5935528999835,None,1233.1082256999798,None,1233.1082256999798,None,n,1.4331109000195283,1233.1082256999798,None,1.4331109000195283,,,53 aloud,001,2022_Sep_22_1053,ProdSingRedoBetween,2021.2.3,59.859055866988164,
,,,,30,0,30,0,,,,,,,,,,,,,,,,,,,,,,1237.5799153999833,None,,,,,,,,,,,,,,,,,discussion,41,31,aloud,old,blue,1235.0639333,None,1235.0639333,None,6,1.2373098999960348,1235.0639333,None,1.2373098999960348,1236.3371404999925,None,1236.850209999975,None,1236.850209999975,None,r,0.6988277999917045,1236.850209999975,None,0.6988277999917045,,,53 aloud,001,2022_Sep_22_1053,ProdSingRedoBetween,2021.2.3,59.859055866988164,
,,,,31,0,31,0,,,,,,,,,,,,,,,,,,,,,,1240.7506696999772,None,,,,,,,,,,,,,,,,,music,113,32,aloud,new,null,1238.0813117999933,None,1238.0813117999933,None,1,1.339805499999784,1238.0813117999933,None,1.339805499999784,1239.4499874999747,None,1239.9709368999756,None,1239.9709368999756,None,n,0.7623478000168689,1239.9709368999756,None,0.7623478000168689,,,53 aloud,001,2022_Sep_22_1053,ProdSingRedoBetween,2021.2.3,59.859055866988164,
,,,,32,0,32,0,,,,,,,,,,,,,,,,,,,,,,1243.7163994000002,None,,,,,,,,,,,,,,,,,hearing,37,33,aloud,old,blue,1241.253283099999,None,1241.253283099999,None,1,1.3918550999951549,1241.253283099999,None,1.3918550999951549,1242.669998199999,None,1243.1860234999913,None,1243.1860234999913,None,n,0.499354300001869,1243.1860234999913,None,0.499354300001869,,,53 aloud,001,2022_Sep_22_1053,ProdSingRedoBetween,2021.2.3,59.859055866988164,
,,,,33,0,33,0,,,,,,,,,,,,,,,,,,,,,,1247.5422068999906,None,,,,,,,,,,,,,,,,,comfort,88,34,aloud,old,red,1244.224101300002,None,1244.224101300002,None,6,2.341174000001047,1244.224101300002,None,2.341174000001047,1246.590921999974,None,1247.1111380999791,None,1247.1111380999791,None,r,0.4059984000050463,1247.1111380999791,None,0.4059984000050463,,,53 aloud,001,2022_Sep_22_1053,ProdSingRedoBetween,2021.2.3,59.859055866988164,
,,,,34,0,34,0,,,,,,,,,,,,,,,,,,,,,,1250.5268571999914,None,,,,,,,,,,,,,,,,,broad,72,35,aloud,old,red,1248.0582775999792,None,1248.0582775999792,None,6,1.5069628000201192,1248.0582775999792,None,1.5069628000201192,1249.5938594999898,None,1250.1032176000008,None,1250.1032176000008,None,r,0.39790219999849796,1250.1032176000008,None,0.39790219999849796,,,53 aloud,001,2022_Sep_22_1053,ProdSingRedoBetween,2021.2.3,59.859055866988164,
,,,,35,0,35,0,,,,,,,,,,,,,,,,,,,,,,1254.4825967999932,None,,,,,,,,,,,,,,,,,route,141,36,aloud,new,null,1251.0278966999904,None,1251.0278966999904,None,1,2.513168499979656,1251.0278966999904,None,2.513168499979656,1253.5646901,None,1254.079227499984,None,1254.079227499984,None,n,0.382074500026647,1254.079227499984,None,0.382074500026647,,,53 aloud,001,2022_Sep_22_1053,ProdSingRedoBetween,2021.2.3,59.859055866988164,
,,,,36,0,36,0,,,,,,,,,,,,,,,,,,,,,,1257.4492621999816,None,,,,,,,,,,,,,,,,,frank,146,37,aloud,new,null,1255.0010602999828,None,1255.0010602999828,None,1,1.3399694999970961,1255.0010602999828,None,1.3399694999970961,1256.3688470999768,None,1256.8828653999954,None,1256.8828653999954,None,n,0.5382168999931309,1256.8828653999954,None,0.5382168999931309,,,53 aloud,001,2022_Sep_22_1053,ProdSingRedoBetween,2021.2.3,59.859055866988164,
,,,,37,0,37,0,,,,,,,,,,,,,,,,,,,,,,1261.3199009999807,None,,,,,,,,,,,,,,,,,expansion,100,38,aloud,new,null,1257.9537244999956,None,1257.9537244999956,None,1,2.1555255000130273,1257.9537244999956,None,2.1555255000130273,1260.1376102999784,None,1260.6538829999918,None,1260.6538829999918,None,n,0.6393250999972224,1260.6538829999918,None,0.6393250999972224,,,53 aloud,001,2022_Sep_22_1053,ProdSingRedoBetween,2021.2.3,59.859055866988164,
,,,,38,0,38,0,,,,,,,,,,,,,,,,,,,,,,1265.207541199983,None,,,,,,,,,,,,,,,,,build,103,39,aloud,new,null,1261.826945399982,None,1261.826945399982,None,5,2.4581027000094764,1261.826945399982,None,2.4581027000094764,1264.3078040999826,None,1264.8089331999945,None,1264.8089331999945,None,f,0.37216100000659935,1264.8089331999945,None,0.37216100000659935,,,53 aloud,001,2022_Sep_22_1053,ProdSingRedoBetween,2021.2.3,59.859055866988164,
,,,,39,0,39,0,,,,,,,,,,,,,,,,,,,,,,1269.5086528999964,None,,,,,,,,,,,,,,,,,damage,125,40,aloud,new,null,1265.7147262999788,None,1265.7147262999788,None,1,2.346470300020883,1265.7147262999788,None,2.346470300020883,1268.0790764999983,None,1268.5932264000003,None,1268.5932264000003,None,n,0.8841352999734227,1268.5932264000003,None,0.8841352999734227,,,53 aloud,001,2022_Sep_22_1053,ProdSingRedoBetween,2021.2.3,59.859055866988164,
,,,,40,0,40,0,,,,,,,,,,,,,,,,,,,,,,1272.654361599998,None,,,,,,,,,,,,,,,,,enemy,162,41,aloud,new,null,1270.0128616000002,None,1270.0128616000002,None,1,1.2401934000081383,1270.0128616000002,None,1.2401934000081383,1271.2821151999815,None,1271.796633799997,None,1271.796633799997,None,n,0.8243713999981992,1271.796633799997,None,0.8243713999981992,,,53 aloud,001,2022_Sep_22_1053,ProdSingRedoBetween,2021.2.3,59.859055866988164,
,,,,41,0,41,0,,,,,,,,,,,,,,,,,,,,,,1281.0415852000006,None,,,,,,,,,,,,,,,,,pretty,160,42,aloud,new,null,1273.1788486999867,None,1273.1788486999867,None,2,6.890367999993032,1273.1788486999867,None,6.890367999993032,1280.0969957999769,None,1280.6060513999837,None,1280.6060513999837,None,f,0.41520909999962896,1280.6060513999837,None,0.41520909999962896,,,53 aloud,001,2022_Sep_22_1053,ProdSingRedoBetween,2021.2.3,59.859055866988164,
,,,,42,0,42,0,,,,,,,,,,,,,,,,,,,,,,1286.2111990999838,None,,,,,,,,,,,,,,,,,volume,24,43,aloud,old,yellow,1281.5613069999963,None,1281.5613069999963,None,6,2.2676672999805305,1281.5613069999963,None,2.2676672999805305,1283.8631107999827,None,1284.3765009999915,None,1284.3765009999915,None,r,1.8125044000044,1284.3765009999915,None,1.8125044000044,,,53 aloud,001,2022_Sep_22_1053,ProdSingRedoBetween,2021.2.3,59.859055866988164,
,,,,43,0,43,0,,,,,,,,,,,,,,,,,,,,,,1290.516671999998,None,,,,,,,,,,,,,,,,,collection,33,44,aloud,old,blue,1286.7235303999914,None,1286.7235303999914,None,1,2.065551800013054,1286.7235303999914,None,2.065551800013054,1288.8157854999881,None,1289.3352469999809,None,1289.3352469999809,None,n,1.1580690999981016,1289.3352469999809,None,1.1580690999981016,,,53 aloud,001,2022_Sep_22_1053,ProdSingRedoBetween,2021.2.3,59.859055866988164,
,,,,44,0,44,0,,,,,,,,,,,,,,,,,,,,,,1293.7043634000001,None,,,,,,,,,,,,,,,,,south,145,45,aloud,new,null,1291.0182139999815,None,1291.0182139999815,None,1,1.218741200020304,1291.0182139999815,None,1.218741200020304,1292.2692296000023,None,1292.7851108999748,None,1292.7851108999748,None,n,0.9002169000159483,1292.7851108999748,None,0.9002169000159483,,,53 aloud,001,2022_Sep_22_1053,ProdSingRedoBetween,2021.2.3,59.859055866988164,
,,,,45,0,45,0,,,,,,,,,,,,,,,,,,,,,,1297.5728257999872,None,,,,,,,,,,,,,,,,,angle,80,46,aloud,old,red,1294.2206928999803,None,1294.2206928999803,None,1,2.304338899994036,1294.2206928999803,None,2.304338899994036,1296.5564603999956,None,1297.072102599981,None,1297.072102599981,None,n,0.476966700021876,1297.072102599981,None,0.476966700021876,,,53 aloud,001,2022_Sep_22_1053,ProdSingRedoBetween,2021.2.3,59.859055866988164,
,,,,46,0,46,0,,,,,,,,,,,,,,,,,,,,,,1301.5781334999774,None,,,,,,,,,,,,,,,,,theme,167,47,aloud,new,null,1298.075605399994,None,1298.075605399994,None,1,2.497620200010715,1298.075605399994,None,2.497620200010715,1300.595218499977,None,1301.1089105999854,None,1301.1089105999854,None,n,0.44831540001905523,1301.1089105999854,None,0.44831540001905523,,,53 aloud,001,2022_Sep_22_1053,ProdSingRedoBetween,2021.2.3,59.859055866988164,
,,,,47,0,47,0,,,,,,,,,,,,,,,,,,,,,,1304.8636973999965,None,,,,,,,,,,,,,,,,,defeat,12,48,aloud,old,yellow,1302.0869067999884,None,1302.0869067999884,None,1,1.718089100002544,1302.0869067999884,None,1.718089100002544,1303.8353876999754,None,1304.346243499982,None,1304.346243499982,None,n,0.4908069000230171,1304.346243499982,None,0.4908069000230171,,,53 aloud,001,2022_Sep_22_1053,ProdSingRedoBetween,2021.2.3,59.859055866988164,
,,,,48,0,48,0,,,,,,,,,,,,,,,,,,,,,,1308.2342305999773,None,,,,,,,,,,,,,,,,,captain,132,49,aloud,new,null,1305.3668534999888,None,1305.3668534999888,None,1,1.6860790999780875,1305.3668534999888,None,1.6860790999780875,1307.0850415999885,None,1307.5992619000026,None,1307.5992619000026,None,n,0.6058077000197954,1307.5992619000026,None,0.6058077000197954,,,53 aloud,001,2022_Sep_22_1053,ProdSingRedoBetween,2021.2.3,59.859055866988164,
,,,,49,0,49,0,,,,,,,,,,,,,,,,,,,,,,1312.2032884999935,None,,,,,,,,,,,,,,,,,public,109,50,aloud,new,null,1308.7500242999813,None,1308.7500242999813,None,1,2.0869770999997854,1308.7500242999813,None,2.0869770999997854,1310.854699699994,None,1311.3701043999754,None,1311.3701043999754,None,n,0.8028136000211816,1311.3701043999754,None,0.8028136000211816,,,53 aloud,001,2022_Sep_22_1053,ProdSingRedoBetween,2021.2.3,59.859055866988164,
,,,,50,0,50,0,,,,,,,,,,,,,,,,,,,,,,1315.4733973999973,None,,,,,,,,,,,,,,,,,course,128,51,aloud,new,null,1312.7073142000008,None,1312.7073142000008,None,1,1.546010699996259,1312.7073142000008,None,1.546010699996259,1314.283161999978,None,1314.7917906999937,None,1314.7917906999937,None,n,0.6531084000016563,1314.7917906999937,None,0.6531084000016563,,,53 aloud,001,2022_Sep_22_1053,ProdSingRedoBetween,2021.2.3,59.859055866988164,
,,,,51,0,51,0,,,,,,,,,,,,,,,,,,,,,,1323.6152259999944,None,,,,,,,,,,,,,,,,,household,54,52,aloud,old,blue,1315.9792529999977,None,1315.9792529999977,None,3,6.4576600000145845,1315.9792529999977,None,6.4576600000145845,1322.4671604999749,None,1322.9810072999971,None,1322.9810072999971,None,f,0.6160390000150073,1322.9810072999971,None,0.6160390000150073,,,53 aloud,001,2022_Sep_22_1053,ProdSingRedoBetween,2021.2.3,59.859055866988164,
,,,,52,0,52,0,,,,,,,,,,,,,,,,,,,,,,1326.417869899975,None,,,,,,,,,,,,,,,,,cover,118,53,aloud,new,null,1324.118406900001,None,1324.118406900001,None,1,1.2944934999977704,1324.118406900001,None,1.2944934999977704,1325.4376461999782,None,1325.950737199979,None,1325.950737199979,None,n,0.44614119999459945,1325.950737199979,None,0.44614119999459945,,,53 aloud,001,2022_Sep_22_1053,ProdSingRedoBetween,2021.2.3,59.859055866988164,
,,,,53,0,53,0,,,,,,,,,,,,,,,,,,,,,,1329.9896787999896,None,,,,,,,,,,,,,,,,,heavy,23,54,aloud,old,yellow,1326.9235316999839,None,1326.9235316999839,None,1,2.1295391999883577,1326.9235316999839,None,2.1295391999883577,1329.0749340999755,None,1329.5882579999743,None,1329.5882579999743,None,n,0.37685859997873195,1329.5882579999743,None,0.37685859997873195,,,53 aloud,001,2022_Sep_22_1053,ProdSingRedoBetween,2021.2.3,59.859055866988164,
,,,,54,0,54,0,,,,,,,,,,,,,,,,,,,,,,1333.4748758999922,None,,,,,,,,,,,,,,,,,testimony,39,55,aloud,old,blue,1330.491123499989,None,1330.491123499989,None,6,2.00185749999946,1330.491123499989,None,2.00185749999946,1332.5259113999782,None,1333.04299419999,None,1333.04299419999,None,r,0.40994559999671765,1333.04299419999,None,0.40994559999671765,,,53 aloud,001,2022_Sep_22_1053,ProdSingRedoBetween,2021.2.3,59.859055866988164,
,,,,55,0,55,0,,,,,,,,,,,,,,,,,,,,,,1338.8159242999973,None,,,,,,,,,,,,,,,,,subject,134,56,aloud,new,null,1333.981614599994,None,1333.981614599994,None,3,3.9116497000213712,1333.981614599994,None,3.9116497000213712,1337.9167381000007,None,1338.4306728999945,None,1338.4306728999945,None,f,0.35837020000326447,1338.4306728999945,None,0.35837020000326447,,,53 aloud,001,2022_Sep_22_1053,ProdSingRedoBetween,2021.2.3,59.859055866988164,
,,,,56,0,56,0,,,,,,,,,,,,,,,,,,,,,,1343.6190991999756,None,,,,,,,,,,,,,,,,,center,112,57,aloud,new,null,1339.3329661999887,None,1339.3329661999887,None,1,3.35245410000789,1339.3329661999887,None,3.35245410000789,1342.7142937999743,None,1343.2204254999815,None,1343.2204254999815,None,n,0.3685217000020202,1343.2204254999815,None,0.3685217000020202,,,53 aloud,001,2022_Sep_22_1053,ProdSingRedoBetween,2021.2.3,59.859055866988164,
,,,,57,0,57,0,,,,,,,,,,,,,,,,,,,,,,1347.4398171999783,None,,,,,,,,,,,,,,,,,character,61,58,aloud,old,red,1344.1260914999875,None,1344.1260914999875,None,6,1.6068359000200871,1344.1260914999875,None,1.6068359000200871,1345.7583088999963,None,1346.271148300002,None,1346.271148300002,None,r,1.1418171000259463,1346.271148300002,None,1.1418171000259463,,,53 aloud,001,2022_Sep_22_1053,ProdSingRedoBetween,2021.2.3,59.859055866988164,
,,,,58,0,58,0,,,,,,,,,,,,,,,,,,,,,,1351.9301795999927,None,,,,,,,,,,,,,,,,,article,143,59,aloud,new,null,1347.9538903999783,None,1347.9538903999783,None,1,1.6353839999937918,1347.9538903999783,None,1.6353839999937918,1349.6098703999887,None,1350.124955999985,None,1350.124955999985,None,n,1.7759124000149313,1350.124955999985,None,1.7759124000149313,,,53 aloud,001,2022_Sep_22_1053,ProdSingRedoBetween,2021.2.3,59.859055866988164,
,,,,59,0,59,0,,,,,,,,,,,,,,,,,,,,,,1354.9469485000009,None,,,,,,,,,,,,,,,,,murder,131,60,aloud,new,null,1352.4465079999936,None,1352.4465079999936,None,1,1.2306912000058219,1352.4465079999936,None,1.2306912000058219,1353.6976480000012,None,1354.212987899984,None,1354.212987899984,None,n,0.7120358999818563,1354.212987899984,None,0.7120358999818563,,,53 aloud,001,2022_Sep_22_1053,ProdSingRedoBetween,2021.2.3,59.859055866988164,
,,,,60,0,60,0,,,,,,,,,,,,,,,,,,,,,,1358.4977595999953,None,,,,,,,,,,,,,,,,,revolution,21,61,aloud,old,yellow,1355.4498640999955,None,1355.4498640999955,None,6,1.9793714000261389,1355.4498640999955,None,1.9793714000261389,1357.453216199996,None,1357.9674840999942,None,1357.9674840999942,None,r,0.4854646000021603,1357.9674840999942,None,0.4854646000021603,,,53 aloud,001,2022_Sep_22_1053,ProdSingRedoBetween,2021.2.3,59.859055866988164,
,,,,61,0,61,0,,,,,,,,,,,,,,,,,,,,,,1362.8727077999793,None,,,,,,,,,,,,,,,,,present,17,62,aloud,old,yellow,1359.0026885999832,None,1359.0026885999832,None,6,2.8582711000053678,1359.0026885999832,None,2.8582711000053678,1361.8886106999998,None,1362.4065526999766,None,1362.4065526999766,None,r,0.43838240002514794,1362.4065526999766,None,0.43838240002514794,,,53 aloud,001,2022_Sep_22_1053,ProdSingRedoBetween,2021.2.3,59.859055866988164,
,,,,62,0,62,0,,,,,,,,,,,,,,,,,,,,,,1366.5430188000028,None,,,,,,,,,,,,,,,,,pancakes,30,63,aloud,old,blue,1363.3836069999961,None,1363.3836069999961,None,6,2.2374461999861524,1363.3836069999961,None,2.2374461999861524,1365.6472472999885,None,1366.1622118999949,None,1366.1622118999949,None,r,0.35474660000181757,1366.1622118999949,None,0.35474660000181757,,,53 aloud,001,2022_Sep_22_1053,ProdSingRedoBetween,2021.2.3,59.859055866988164,
,,,,63,0,63,0,,,,,,,,,,,,,,,,,,,,,,1371.6643547999847,None,,,,,,,,,,,,,,,,,shape,151,64,aloud,new,null,1367.0455853999883,None,1367.0455853999883,None,1,3.1752464000019245,1367.0455853999883,None,3.1752464000019245,1370.2476281999843,None,1370.7637582999887,None,1370.7637582999887,None,n,0.8812501000065822,1370.7637582999887,None,0.8812501000065822,,,53 aloud,001,2022_Sep_22_1053,ProdSingRedoBetween,2021.2.3,59.859055866988164,
,,,,64,0,64,0,,,,,,,,,,,,,,,,,,,,,,1375.935631899978,None,,,,,,,,,,,,,,,,,growth,1,65,aloud,old,yellow,1372.1707534999878,None,1372.1707534999878,None,3,2.778344399994239,1372.1707534999878,None,2.778344399994239,1374.9739062000008,None,1375.4855359999929,None,1375.4855359999929,None,f,0.42327929998282343,1375.4855359999929,None,0.42327929998282343,,,53 aloud,001,2022_Sep_22_1053,ProdSingRedoBetween,2021.2.3,59.859055866988164,
,,,,65,0,65,0,,,,,,,,,,,,,,,,,,,,,,1380.488870399975,None,,,,,,,,,,,,,,,,,military,35,66,aloud,old,blue,1376.4533202999737,None,1376.4533202999737,None,6,2.783836100017652,1376.4533202999737,None,2.783836100017652,1379.2559694999945,None,1379.7716258,None,1379.7716258,None,r,0.6891924999945331,1379.7716258,None,0.6891924999945331,,,53 aloud,001,2022_Sep_22_1053,ProdSingRedoBetween,2021.2.3,59.859055866988164,
,,,,66,0,66,0,,,,,,,,,,,,,,,,,,,,,,1383.5593133999791,None,,,,,,,,,,,,,,,,,sunset,135,67,aloud,new,null,1380.9924180999806,None,1380.9924180999806,None,1,1.324538399989251,1380.9924180999806,None,1.324538399989251,1382.3438152000017,None,1382.8575474999961,None,1382.8575474999961,None,n,0.6754486999998335,1382.8575474999961,None,0.6754486999998335,,,53 aloud,001,2022_Sep_22_1053,ProdSingRedoBetween,2021.2.3,59.859055866988164,
,,,,67,0,67,0,,,,,,,,,,,,,,,,,,,,,,1387.3640879000013,None,,,,,,,,,,,,,,,,,childhood,19,68,aloud,old,yellow,1384.061695499986,None,1384.061695499986,None,1,2.32718439999735,1384.061695499986,None,2.32718439999735,1386.4140070999856,None,1386.928298999992,None,1386.928298999992,None,n,0.404570100014098,1386.928298999992,None,0.404570100014098,,,53 aloud,001,2022_Sep_22_1053,ProdSingRedoBetween,2021.2.3,59.859055866988164,
,,,,68,0,68,0,,,,,,,,,,,,,,,,,,,,,,1391.4803603999899,None,,,,,,,,,,,,,,,,,problem,149,69,aloud,new,null,1387.8817685999966,None,1387.8817685999966,None,1,2.6750935000018217,1387.8817685999966,None,2.6750935000018217,1390.5922458999848,None,1391.1014863000019,None,1391.1014863000019,None,n,0.33528800000203773,1391.1014863000019,None,0.33528800000203773,,,53 aloud,001,2022_Sep_22_1053,ProdSingRedoBetween,2021.2.3,59.859055866988164,
,,,,69,0,69,0,,,,,,,,,,,,,,,,,,,,,,1395.8182807999838,None,,,,,,,,,,,,,,,,,strain,69,70,aloud,old,red,1391.9871349000023,None,1391.9871349000023,None,1,2.849759200005792,1391.9871349000023,None,2.849759200005792,1394.8591434999835,None,1395.3706591999799,None,1395.3706591999799,None,n,0.41023090001544915,1395.3706591999799,None,0.41023090001544915,,,53 aloud,001,2022_Sep_22_1053,ProdSingRedoBetween,2021.2.3,59.859055866988164,
,,,,70,0,70,0,,,,,,,,,,,,,,,,,,,,,,1400.8439005999826,None,,,,,,,,,,,,,,,,,department,152,71,aloud,new,null,1396.3232827999745,None,1396.3232827999745,None,4,3.609541000012541,1396.3232827999745,None,3.609541000012541,1399.9629797999805,None,1400.4760532999935,None,1400.4760532999935,None,f,0.33679159998428077,1400.4760532999935,None,0.33679159998428077,,,53 aloud,001,2022_Sep_22_1053,ProdSingRedoBetween,2021.2.3,59.859055866988164,
,,,,71,0,71,0,,,,,,,,,,,,,,,,,,,,,,1404.129669499991,None,,,,,,,,,,,,,,,,,smell,11,72,aloud,old,yellow,1401.3613709999772,None,1401.3613709999772,None,1,1.8514723000116646,1401.3613709999772,None,1.8514723000116646,1403.2303925000015,None,1403.744974399975,None,1403.744974399975,None,n,0.36415839998517185,1403.744974399975,None,0.36415839998517185,,,53 aloud,001,2022_Sep_22_1053,ProdSingRedoBetween,2021.2.3,59.859055866988164,
,,,,72,0,72,0,,,,,,,,,,,,,,,,,,,,,,1407.9229246999894,None,,,,,,,,,,,,,,,,,executive,97,73,aloud,new,null,1404.6324937999889,None,1404.6324937999889,None,1,2.228296599991154,1404.6324937999889,None,2.228296599991154,1406.8857236999902,None,1407.4133044999908,None,1407.4133044999908,None,n,0.48750019998988137,1407.4133044999908,None,0.48750019998988137,,,53 aloud,001,2022_Sep_22_1053,ProdSingRedoBetween,2021.2.3,59.859055866988164,
,,,,73,0,73,0,,,,,,,,,,,,,,,,,,,,,,1411.2034985999926,None,,,,,,,,,,,,,,,,,opening,64,74,aloud,old,red,1408.434138099983,None,1408.434138099983,None,1,1.8266189999994822,1408.434138099983,None,1.8266189999994822,1410.2878722999885,None,1410.8048369999742,None,1410.8048369999742,None,n,0.368027999997139,1410.8048369999742,None,0.368027999997139,,,53 aloud,001,2022_Sep_22_1053,ProdSingRedoBetween,2021.2.3,59.859055866988164,
,,,,74,0,74,0,,,,,,,,,,,,,,,,,,,,,,1414.9074402999831,None,,,,,,,,,,,,,,,,,dance,8,75,aloud,old,yellow,1411.705718399986,None,1411.705718399986,None,1,2.195073599985335,1411.705718399986,None,2.195073599985335,1413.924880799983,None,1414.4396269999852,None,1414.4396269999852,None,n,0.4452393999963533,1414.4396269999852,None,0.4452393999963533,,,53 aloud,001,2022_Sep_22_1053,ProdSingRedoBetween,2021.2.3,59.859055866988164,
,,,,75,0,75,0,,,,,,,,,,,,,,,,,,,,,,1419.0287932999781,None,,,,,,,,,,,,,,,,,member,130,76,aloud,new,null,1415.4095253999985,None,1415.4095253999985,None,1,2.787238899996737,1415.4095253999985,None,2.787238899996737,1418.2303603999899,None,1418.7437933999754,None,1418.7437933999754,None,n,0.2529987999878358,1418.7437933999754,None,0.2529987999878358,,,53 aloud,001,2022_Sep_22_1053,ProdSingRedoBetween,2021.2.3,59.859055866988164,
,,,,76,0,76,0,,,,,,,,,,,,,,,,,,,,,,1422.0478165999812,None,,,,,,,,,,,,,,,,,republic,168,77,aloud,new,null,1419.5465065999888,None,1419.5465065999888,None,1,1.5863173000107054,1419.5465065999888,None,1.5863173000107054,1421.1644018999941,None,1421.6804362999974,None,1421.6804362999974,None,n,0.34033089998411015,1421.6804362999974,None,0.34033089998411015,,,53 aloud,001,2022_Sep_22_1053,ProdSingRedoBetween,2021.2.3,59.859055866988164,
,,,,77,0,77,0,,,,,,,,,,,,,,,,,,,,,,1429.638985699974,None,,,,,,,,,,,,,,,,,trash,26,78,aloud,old,yellow,1422.549823199981,None,1422.549823199981,None,5,5.503106299991487,1422.549823199981,None,5.503106299991487,1428.080459299992,None,1428.5864981999912,None,1428.5864981999912,None,f,1.026523200009251,1428.5864981999912,None,1.026523200009251,,,53 aloud,001,2022_Sep_22_1053,ProdSingRedoBetween,2021.2.3,59.859055866988164,
,,,,78,0,78,0,,,,,,,,,,,,,,,,,,,,,,1434.1097563999938,None,,,,,,,,,,,,,,,,,answer,89,79,aloud,old,red,1430.1408117999963,None,1430.1408117999963,None,5,3.1199930000002496,1430.1408117999963,None,3.1199930000002496,1433.2932231999876,None,1433.8083486999967,None,1433.8083486999967,None,f,0.28465570000116713,1433.8083486999967,None,0.28465570000116713,,,53 aloud,001,2022_Sep_22_1053,ProdSingRedoBetween,2021.2.3,59.859055866988164,
,,,,79,0,79,0,,,,,,,,,,,,,,,,,,,,,,1437.2126540000027,None,,,,,,,,,,,,,,,,,account,150,80,aloud,new,null,1434.6117862999963,None,1434.6117862999963,None,1,1.576940700004343,1434.6117862999963,None,1.576940700004343,1436.214826499985,None,1436.7433930999832,None,1436.7433930999832,None,n,0.44540349999442697,1436.7433930999832,None,0.44540349999442697,,,53 aloud,001,2022_Sep_22_1053,ProdSingRedoBetween,2021.2.3,59.859055866988164,
,,,,80,0,80,0,,,,,,,,,,,,,,,,,,,,,,1440.383512100001,None,,,,,,,,,,,,,,,,,error,38,81,aloud,old,blue,1437.7328579000023,None,1437.7328579000023,None,6,1.6559140000026673,1437.7328579000023,None,1.6559140000026673,1439.4170145999815,None,1439.9319563999888,None,1439.9319563999888,None,r,0.43288949999259785,1439.9319563999888,None,0.43288949999259785,,,53 aloud,001,2022_Sep_22_1053,ProdSingRedoBetween,2021.2.3,59.859055866988164,
,,,,81,0,81,0,,,,,,,,,,,,,,,,,,,,,,1444.2862338999985,None,,,,,,,,,,,,,,,,,review,123,82,aloud,new,null,1440.9035909999802,None,1440.9035909999802,None,1,1.4452211000025272,1440.9035909999802,None,1.4452211000025272,1442.3710567999806,None,1442.8913239999965,None,1442.8913239999965,None,n,1.3774923000019044,1442.8913239999965,None,1.3774923000019044,,,53 aloud,001,2022_Sep_22_1053,ProdSingRedoBetween,2021.2.3,59.859055866988164,
,,,,82,0,82,0,,,,,,,,,,,,,,,,,,,,,,1451.0731070999755,None,,,,,,,,,,,,,,,,,surface,71,83,aloud,old,red,1444.7887827999948,None,1444.7887827999948,None,5,5.384227600006852,1444.7887827999948,None,5.384227600006852,1450.193752799998,None,1450.7096481999906,None,1450.7096481999906,None,f,0.31914960002177395,1450.7096481999906,None,0.31914960002177395,,,53 aloud,001,2022_Sep_22_1053,ProdSingRedoBetween,2021.2.3,59.859055866988164,
,,,,83,0,83,0,,,,,,,,,,,,,,,,,,,,,,1453.601522299985,None,,,,,,,,,,,,,,,,,still,92,84,aloud,new,null,1451.5781636999745,None,1451.5781636999745,None,1,1.130873000016436,1451.5781636999745,None,1.130873000016436,1452.729872899974,None,1453.244881999999,None,1453.244881999999,None,n,0.31977679999545217,1453.244881999999,None,0.31977679999545217,,,53 aloud,001,2022_Sep_22_1053,ProdSingRedoBetween,2021.2.3,59.859055866988164,
,,,,84,0,84,0,,,,,,,,,,,,,,,,,,,,,,1455.8647582999838,None,,,,,,,,,,,,,,,,,budget,111,85,aloud,new,null,1454.1175789999834,None,1454.1175789999834,None,1,1.0392677999916486,1454.1175789999834,None,1.0392677999916486,1455.1818217999826,None,1455.6970953999844,None,1455.6970953999844,None,n,0.14788950001820922,1455.6970953999844,None,0.14788950001820922,,,53 aloud,001,2022_Sep_22_1053,ProdSingRedoBetween,2021.2.3,59.859055866988164,
,,,,85,0,85,0,,,,,,,,,,,,,,,,,,,,,,1459.5026147999743,None,,,,,,,,,,,,,,,,,meeting,2,86,aloud,old,yellow,1456.3662901999778,None,1456.3662901999778,None,1,2.36671080000815,1456.3662901999778,None,2.36671080000815,1458.7535920999944,None,1459.2807590999873,None,1459.2807590999873,None,n,0.1959461999940686,1459.2807590999873,None,0.1959461999940686,,,53 aloud,001,2022_Sep_22_1053,ProdSingRedoBetween,2021.2.3,59.859055866988164,
,,,,86,0,86,0,,,,,,,,,,,,,,,,,,,,,,1462.6228884999873,None,,,,,,,,,,,,,,,,,history,27,87,aloud,old,yellow,1460.020479400002,None,1460.020479400002,None,6,1.7043511999945622,1460.020479400002,None,1.7043511999945622,1461.759915099974,None,1462.2724338999833,None,1462.2724338999833,None,r,0.33238959999289364,1462.2724338999833,None,0.33238959999289364,,,53 aloud,001,2022_Sep_22_1053,ProdSingRedoBetween,2021.2.3,59.859055866988164,
,,,,87,0,87,0,,,,,,,,,,,,,,,,,,,,,,1466.3766015,None,,,,,,,,,,,,,,,,,treatment,55,88,aloud,old,blue,1463.1407839999883,None,1463.1407839999883,None,5,2.4965965999872424,1463.1407839999883,None,2.4965965999872424,1465.666562999977,None,1466.1746386000013,None,1466.1746386000013,None,f,0.18236430000979453,1466.1746386000013,None,0.18236430000979453,,,53 aloud,001,2022_Sep_22_1053,ProdSingRedoBetween,2021.2.3,59.859055866988164,
,,,,88,0,88,0,,,,,,,,,,,,,,,,,,,,,,1468.9579376999754,None,,,,,,,,,,,,,,,,,crowd,117,89,aloud,new,null,1466.8977185999975,None,1466.8977185999975,None,1,1.1389305999909993,1466.8977185999975,None,1.1389305999909993,1468.0642662999744,None,1468.576820199989,None,1468.576820199989,None,n,0.3399401000060607,1468.576820199989,None,0.3399401000060607,,,53 aloud,001,2022_Sep_22_1053,ProdSingRedoBetween,2021.2.3,59.859055866988164,
,,,,89,0,89,0,,,,,,,,,,,,,,,,,,,,,,1475.2338772999938,None,,,,,,,,,,,,,,,,,bright,74,90,aloud,old,red,1469.4619966000027,None,1469.4619966000027,None,4,5.103040399990277,1469.4619966000027,None,5.103040399990277,1474.603476999997,None,1475.1166924999852,None,1475.1166924999852,None,f,0.0963095000188332,1475.1166924999852,None,0.0963095000188332,,,53 aloud,001,2022_Sep_22_1053,ProdSingRedoBetween,2021.2.3,59.859055866988164,
,,,,90,0,90,0,,,,,,,,,,,,,,,,,,,,,,1477.6738107999845,None,,,,,,,,,,,,,,,,,range,14,91,aloud,old,yellow,1475.7415811999817,None,1475.7415811999817,None,1,1.063202099991031,1475.7415811999817,None,1.063202099991031,1476.8399619999982,None,1477.3633057999832,None,1477.3633057999832,None,n,0.28139369998825714,1477.3633057999832,None,0.28139369998825714,,,53 aloud,001,2022_Sep_22_1053,ProdSingRedoBetween,2021.2.3,59.859055866988164,
,,,,91,0,91,0,,,,,,,,,,,,,,,,,,,,,,1481.5747222999926,None,,,,,,,,,,,,,,,,,career,34,92,aloud,old,blue,1478.1874685999937,None,1478.1874685999937,None,5,2.577328099985607,1478.1874685999937,None,2.577328099985607,1480.795911299996,None,1481.3078228999802,None,1481.3078228999802,None,f,0.24087960002361797,1481.3078228999802,None,0.24087960002361797,,,53 aloud,001,2022_Sep_22_1053,ProdSingRedoBetween,2021.2.3,59.859055866988164,
,,,,92,0,92,0,,,,,,,,,,,,,,,,,,,,,,1485.8279830999963,None,,,,,,,,,,,,,,,,,emergency,174,93,aloud,new,null,1482.0923293999804,None,1482.0923293999804,None,1,2.1925716000259854,1482.0923293999804,None,2.1925716000259854,1484.311270199978,None,1484.8354192999832,None,1484.8354192999832,None,n,0.9692622000002302,1484.8354192999832,None,0.9692622000002302,,,53 aloud,001,2022_Sep_22_1053,ProdSingRedoBetween,2021.2.3,59.859055866988164,
,,,,93,0,93,0,,,,,,,,,,,,,,,,,,,,,,1488.2968693999865,None,,,,,,,,,,,,,,,,,little,98,94,aloud,new,null,1486.3300509999972,None,1486.3300509999972,None,1,1.138692100008484,1486.3300509999972,None,1.138692100008484,1487.4998553999758,None,1488.015924599982,None,1488.015924599982,None,n,0.2610190999985207,1488.015924599982,None,0.2610190999985207,,,53 aloud,001,2022_Sep_22_1053,ProdSingRedoBetween,2021.2.3,59.859055866988164,
,,,,94,0,94,0,,,,,,,,,,,,,,,,,,,,,,1492.5840766999754,None,,,,,,,,,,,,,,,,,research,78,95,aloud,old,red,1488.7985309999785,None,1488.7985309999785,None,6,2.310173300007591,1488.7985309999785,None,2.310173300007591,1491.1357920999872,None,1491.6501448999916,None,1491.6501448999916,None,r,0.9065111999807414,1491.6501448999916,None,0.9065111999807414,,,53 aloud,001,2022_Sep_22_1053,ProdSingRedoBetween,2021.2.3,59.859055866988164,
,,,,95,0,95,0,,,,,,,,,,,,,,,,,,,,,,1496.690705999994,None,,,,,,,,,,,,,,,,,front,81,96,aloud,old,red,1493.086972399993,None,1493.086972399993,None,4,2.6299949000240304,1493.086972399993,None,2.6299949000240304,1495.7421877000015,None,1496.2561341999972,None,1496.2561341999972,None,f,0.4044495999987703,1496.2561341999972,None,0.4044495999987703,,,53 aloud,001,2022_Sep_22_1053,ProdSingRedoBetween,2021.2.3,59.859055866988164,
,,,,96,0,96,0,,,,,,,,,,,,,,,,,,,,,,1501.5931201999774,None,,,,,,,,,,,,,,,,,balance,86,97,aloud,old,red,1497.2054660999856,None,1497.2054660999856,None,1,3.5592871000117157,1497.2054660999856,None,3.5592871000117157,1500.7943390999862,None,1501.3092629999737,None,1501.3092629999737,None,n,0.2553862999775447,1501.3092629999737,None,0.2553862999775447,,,53 aloud,001,2022_Sep_22_1053,ProdSingRedoBetween,2021.2.3,59.859055866988164,
,,,,97,0,97,0,,,,,,,,,,,,,,,,,,,,,,1505.9656415999925,None,,,,,,,,,,,,,,,,,recall,73,98,aloud,old,red,1502.0992923000013,None,1502.0992923000013,None,2,2.9135827999853063,1502.0992923000013,None,2.9135827999853063,1505.031697999977,None,1505.5469286000007,None,1505.5469286000007,None,f,0.3937494000128936,1505.5469286000007,None,0.3937494000128936,,,53 aloud,001,2022_Sep_22_1053,ProdSingRedoBetween,2021.2.3,59.859055866988164,
,,,,98,0,98,0,,,,,,,,,,,,,,,,,,,,,,1508.6695704000012,None,,,,,,,,,,,,,,,,,harmony,119,99,aloud,new,null,1506.483558899985,None,1506.483558899985,None,1,1.2651428000244778,1506.483558899985,None,1.2651428000244778,1507.767701899982,None,1508.2894000999804,None,1508.2894000999804,None,n,0.347272899991367,1508.2894000999804,None,0.347272899991367,,,53 aloud,001,2022_Sep_22_1053,ProdSingRedoBetween,2021.2.3,59.859055866988164,
,,,,99,0,99,0,,,,,,,,,,,,,,,,,,,,,,1514.1735262000002,None,,,,,,,,,,,,,,,,,chief,56,100,aloud,old,blue,1509.1863504999783,None,1509.1863504999783,None,6,4.106339000019943,1509.1863504999783,None,4.106339000019943,1513.3228091999772,None,1513.8412157999992,None,1513.8412157999992,None,r,0.2994355999981053,1513.8412157999992,None,0.2994355999981053,,,53 aloud,001,2022_Sep_22_1053,ProdSingRedoBetween,2021.2.3,59.859055866988164,
,,,,100,0,100,0,,,,,,,,,,,,,,,,,,,,,,1519.5786913999764,None,,,,,,,,,,,,,,,,,author,48,101,aloud,old,blue,1514.6899095999834,None,1514.6899095999834,None,6,4.018776300013997,1514.6899095999834,None,4.018776300013997,1518.728761299979,None,1519.251714299986,None,1519.251714299986,None,r,0.3048347999865655,1519.251714299986,None,0.3048347999865655,,,53 aloud,001,2022_Sep_22_1053,ProdSingRedoBetween,2021.2.3,59.859055866988164,
,,,,101,0,101,0,,,,,,,,,,,,,,,,,,,,,,1522.047082999983,None,,,,,,,,,,,,,,,,,phrase,102,102,aloud,new,null,1520.0896611999779,None,1520.0896611999779,None,1,1.1629356000048574,1520.0896611999779,None,1.1629356000048574,1521.285651699989,None,1521.7964586000016,None,1521.7964586000016,None,n,0.23233780000009574,1521.7964586000016,None,0.23233780000009574,,,53 aloud,001,2022_Sep_22_1053,ProdSingRedoBetween,2021.2.3,59.859055866988164,
,,,,102,0,102,0,,,,,,,,,,,,,,,,,,,,,,1524.770153999998,None,,,,,,,,,,,,,,,,,block,70,103,aloud,old,red,1522.5495849,None,1522.5495849,None,1,1.375068099994678,1522.5495849,None,1.375068099994678,1523.953640599997,None,1524.4654352999933,None,1524.4654352999933,None,n,0.2751304999983404,1524.4654352999933,None,0.2751304999983404,,,53 aloud,001,2022_Sep_22_1053,ProdSingRedoBetween,2021.2.3,59.859055866988164,
,,,,103,0,103,0,,,,,,,,,,,,,,,,,,,,,,1529.3213679999753,None,,,,,,,,,,,,,,,,,column,22,104,aloud,old,yellow,1525.289536199998,None,1525.289536199998,None,5,3.219040199997835,1525.289536199998,None,3.219040199997835,1528.5388214999984,None,1529.0577523999964,None,1529.0577523999964,None,f,0.23485509998863563,1529.0577523999964,None,0.23485509998863563,,,53 aloud,001,2022_Sep_22_1053,ProdSingRedoBetween,2021.2.3,59.859055866988164,
,,,,104,0,104,0,,,,,,,,,,,,,,,,,,,,,,1532.0413186999795,None,,,,,,,,,,,,,,,,,breath,170,105,aloud,new,null,1529.8227697999973,None,1529.8227697999973,None,1,1.3098629999731202,1529.8227697999973,None,1.3098629999731202,1531.168136399996,None,1531.6732217999815,None,1531.6732217999815,None,n,0.347677499987185,1531.6732217999815,None,0.347677499987185,,,53 aloud,001,2022_Sep_22_1053,ProdSingRedoBetween,2021.2.3,59.859055866988164,
,,,,105,0,105,0,,,,,,,,,,,,,,,,,,,,,,1535.0076087999914,None,,,,,,,,,,,,,,,,,partner,172,106,aloud,new,null,1532.5663268999779,None,1532.5663268999779,None,1,1.6943229000025894,1532.5663268999779,None,1.6943229000025894,1534.2971022999845,None,1534.8181051999854,None,1534.8181051999854,None,n,0.1468622999964282,1534.8181051999854,None,0.1468622999964282,,,53 aloud,001,2022_Sep_22_1053,ProdSingRedoBetween,2021.2.3,59.859055866988164,
,,,,106,0,106,0,,,,,,,,,,,,,,,,,,,,,,1538.146603799978,None,,,,,,,,,,,,,,,,,majority,99,107,aloud,new,null,1535.5167829999991,None,1535.5167829999991,None,1,1.767890199989779,1535.5167829999991,None,1.767890199989779,1537.3164974999963,None,1537.8285743999877,None,1537.8285743999877,None,n,0.28810340000200085,1537.8285743999877,None,0.28810340000200085,,,53 aloud,001,2022_Sep_22_1053,ProdSingRedoBetween,2021.2.3,59.859055866988164,
,,,,107,0,107,0,,,,,,,,,,,,,,,,,,,,,,1541.0825841999904,None,,,,,,,,,,,,,,,,,afternoon,76,108,aloud,old,red,1538.6496450999985,None,1538.6496450999985,None,1,1.7229784000082873,1538.6496450999985,None,1.7229784000082873,1540.4012960999971,None,1540.9201460999902,None,1540.9201460999902,None,n,0.1324933999858331,1540.9201460999902,None,0.1324933999858331,,,53 aloud,001,2022_Sep_22_1053,ProdSingRedoBetween,2021.2.3,59.859055866988164,
,,,,108,0,108,0,,,,,,,,,,,,,,,,,,,,,,1543.8366836999776,None,,,,,,,,,,,,,,,,,staff,158,109,aloud,new,null,1541.5850122999982,None,1541.5850122999982,None,1,1.5158793999871705,1541.5850122999982,None,1.5158793999871705,1543.1205814999994,None,1543.6352784999763,None,1543.6352784999763,None,n,0.17734500000369735,1543.6352784999763,None,0.17734500000369735,,,53 aloud,001,2022_Sep_22_1053,ProdSingRedoBetween,2021.2.3,59.859055866988164,
,,,,109,0,109,0,,,,,,,,,,,,,,,,,,,,,,1549.308181899978,None,,,,,,,,,,,,,,,,,escape,42,110,aloud,old,blue,1544.3547917999967,None,1544.3547917999967,None,6,3.9298579999885987,1544.3547917999967,None,3.9298579999885987,1548.3135024999792,None,1548.8229015999823,None,1548.8229015999823,None,r,0.45368429998052306,1548.8229015999823,None,0.45368429998052306,,,53 aloud,001,2022_Sep_22_1053,ProdSingRedoBetween,2021.2.3,59.859055866988164,
,,,,110,0,110,0,,,,,,,,,,,,,,,,,,,,,,1552.4871580999752,None,,,,,,,,,,,,,,,,,design,122,111,aloud,new,null,1549.8293419999827,None,1549.8293419999827,None,1,2.039241699996637,1549.8293419999827,None,2.039241699996637,1551.8971030999965,None,1552.4103276999958,None,1552.4103276999958,None,n,0.058288699976401404,1552.4103276999958,None,0.058288699976401404,,,53 aloud,001,2022_Sep_22_1053,ProdSingRedoBetween,2021.2.3,59.859055866988164,
,,,,111,0,111,0,,,,,,,,,,,,,,,,,,,,,,1555.5511221999768,None,,,,,,,,,,,,,,,,,signal,49,112,aloud,old,blue,1553.0015362999984,None,1553.0015362999984,None,1,1.8030733999912627,1553.0015362999984,None,1.8030733999912627,1554.8315450999944,None,1555.3481491999992,None,1555.3481491999992,None,n,0.16832160000922158,1555.3481491999992,None,0.16832160000922158,,,53 aloud,001,2022_Sep_22_1053,ProdSingRedoBetween,2021.2.3,59.859055866988164,
,,,,112,0,112,0,,,,,,,,,,,,,,,,,,,,,,1559.1349766999774,None,,,,,,,,,,,,,,,,,number,140,113,aloud,new,null,1556.0682448000007,None,1556.0682448000007,None,1,2.3843117999786045,1556.0682448000007,None,2.3843117999786045,1558.4852177999855,None,1558.9999939999834,None,1558.9999939999834,None,n,0.10867139999754727,1558.9999939999834,None,0.10867139999754727,,,53 aloud,001,2022_Sep_22_1053,ProdSingRedoBetween,2021.2.3,59.859055866988164,
,,,,113,0,113,0,,,,,,,,,,,,,,,,,,,,,,1562.1900803000026,None,,,,,,,,,,,,,,,,,question,156,114,aloud,new,null,1559.647533899988,None,1559.647533899988,None,1,1.8051119000010658,1559.647533899988,None,1.8051119000010658,1561.4723429000005,None,1561.9867374000023,None,1561.9867374000023,None,n,0.16235020000021905,1561.9867374000023,None,0.16235020000021905,,,53 aloud,001,2022_Sep_22_1053,ProdSingRedoBetween,2021.2.3,59.859055866988164,
,,,,114,0,114,0,,,,,,,,,,,,,,,,,,,,,,1566.1082385999907,None,,,,,,,,,,,,,,,,,force,44,115,aloud,old,blue,1562.7178357999946,None,1562.7178357999946,None,1,2.414724500005832,1562.7178357999946,None,2.414724500005832,1565.1620960999862,None,1565.6739453999908,None,1565.6739453999908,None,n,0.4026536000019405,1565.6739453999908,None,0.4026536000019405,,,53 aloud,001,2022_Sep_22_1053,ProdSingRedoBetween,2021.2.3,59.859055866988164,
,,,,115,0,115,0,,,,,,,,,,,,,,,,,,,,,,1573.320989300002,None,,,,,,,,,,,,,,,,,property,136,116,aloud,new,null,1566.6107065999822,None,1566.6107065999822,None,2,4.569857499998761,1566.6107065999822,None,4.569857499998761,1571.214361499995,None,1571.7305164999852,None,1571.7305164999852,None,f,1.5623525000119116,1571.7305164999852,None,1.5623525000119116,,,53 aloud,001,2022_Sep_22_1053,ProdSingRedoBetween,2021.2.3,59.859055866988164,
,,,,116,0,116,0,,,,,,,,,,,,,,,,,,,,,,1575.830967099988,None,,,,,,,,,,,,,,,,,sweet,124,117,aloud,new,null,1573.836266599974,None,1573.836266599974,None,1,1.1605633999861311,1573.836266599974,None,1.1605633999861311,1575.0197198999813,None,1575.5330009999743,None,1575.5330009999743,None,n,0.26426419999916106,1575.5330009999743,None,0.26426419999916106,,,53 aloud,001,2022_Sep_22_1053,ProdSingRedoBetween,2021.2.3,59.859055866988164,
,,,,117,0,117,0,,,,,,,,,,,,,,,,,,,,,,1578.2371131999826,None,,,,,,,,,,,,,,,,,narrow,101,118,aloud,new,null,1576.3361723999842,None,1576.3361723999842,None,1,1.1485702999925707,1576.3361723999842,None,1.1485702999925707,1577.5043748999888,None,1578.0192017999943,None,1578.0192017999943,None,n,0.19331150001380593,1578.0192017999943,None,0.19331150001380593,,,53 aloud,001,2022_Sep_22_1053,ProdSingRedoBetween,2021.2.3,59.859055866988164,
,,,,118,0,118,0,,,,,,,,,,,,,,,,,,,,,,1581.0194668999757,None,,,,,,,,,,,,,,,,,mayor,107,119,aloud,new,null,1578.73911949998,None,1578.73911949998,None,1,1.5613689000019804,1578.73911949998,None,1.5613689000019804,1580.3238724999828,None,1580.8427731999836,None,1580.8427731999836,None,n,0.14581020001787692,1580.8427731999836,None,0.14581020001787692,,,53 aloud,001,2022_Sep_22_1053,ProdSingRedoBetween,2021.2.3,59.859055866988164,
,,,,119,0,119,0,,,,,,,,,,,,,,,,,,,,,,1583.4241616999789,None,,,,,,,,,,,,,,,,,clean,4,120,aloud,old,yellow,1581.5256617999985,None,1581.5256617999985,None,1,1.1348848999768961,1581.5256617999985,None,1.1348848999768961,1582.6940169000009,None,1583.2075343999895,None,1583.2075343999895,None,n,0.18895780001184903,1583.2075343999895,None,0.18895780001184903,,,53 aloud,001,2022_Sep_22_1053,ProdSingRedoBetween,2021.2.3,59.859055866988164,
,,,,120,0,120,0,,,,,,,,,,,,,,,,,,,,,,1587.8975157999957,None,,,,,,,,,,,,,,,,,quarter,57,121,aloud,old,blue,1583.9280064999766,None,1583.9280064999766,None,6,1.2450015000067651,1583.9280064999766,None,1.2450015000067651,1585.2104526999756,None,1585.7138406999875,None,1585.7138406999875,None,r,2.15478539999458,1585.7138406999875,None,2.15478539999458,,,53 aloud,001,2022_Sep_22_1053,ProdSingRedoBetween,2021.2.3,59.859055866988164,
,,,,121,0,121,0,,,,,,,,,,,,,,,,,,,,,,1591.85023739998,None,,,,,,,,,,,,,,,,,council,36,122,aloud,old,blue,1588.4158881999901,None,1588.4158881999901,None,6,2.4768820999888703,1588.4158881999901,None,2.4768820999888703,1590.9181822999963,None,1591.4334909000027,None,1591.4334909000027,None,r,0.39500620000762865,1591.4334909000027,None,0.39500620000762865,,,53 aloud,001,2022_Sep_22_1053,ProdSingRedoBetween,2021.2.3,59.859055866988164,
,,,,122,0,122,0,,,,,,,,,,,,,,,,,,,,,,1594.2870391999895,None,,,,,,,,,,,,,,,,,tough,58,123,aloud,old,blue,1592.368556499976,None,1592.368556499976,None,1,1.0439181000110693,1592.368556499976,None,1.0439181000110693,1593.4443415999995,None,1593.9511994999775,None,1593.9511994999775,None,n,0.30928009998751804,1593.9511994999775,None,0.30928009998751804,,,53 aloud,001,2022_Sep_22_1053,ProdSingRedoBetween,2021.2.3,59.859055866988164,
,,,,123,0,123,0,,,,,,,,,,,,,,,,,,,,,,1596.9072105999803,None,,,,,,,,,,,,,,,,,candidate,96,124,aloud,new,null,1594.795773299993,None,1594.795773299993,None,1,1.2487077999976464,1594.795773299993,None,1.2487077999976464,1596.0726432999945,None,1596.5895163999812,None,1596.5895163999812,None,n,0.2870766999840271,1596.5895163999812,None,0.2870766999840271,,,53 aloud,001,2022_Sep_22_1053,ProdSingRedoBetween,2021.2.3,59.859055866988164,
,,,,124,0,124,0,,,,,,,,,,,,,,,,,,,,,,1599.525101599982,None,,,,,,,,,,,,,,,,,express,179,125,aloud,new,null,1597.4262288999744,None,1597.4262288999744,None,1,1.3222816000052262,1597.4262288999744,None,1.3222816000052262,1598.7756269999954,None,1599.293766799994,None,1599.293766799994,None,n,0.21476590001839213,1599.293766799994,None,0.21476590001839213,,,53 aloud,001,2022_Sep_22_1053,ProdSingRedoBetween,2021.2.3,59.859055866988164,
,,,,125,0,125,0,,,,,,,,,,,,,,,,,,,,,,1602.1780329999747,None,,,,,,,,,,,,,,,,,drove,153,126,aloud,new,null,1600.0306310000014,None,1600.0306310000014,None,1,1.2138555999845266,1600.0306310000014,None,1.2138555999845266,1601.2778551999945,None,1601.7955306999793,None,1601.7955306999793,None,n,0.3529518000141252,1601.7955306999793,None,0.3529518000141252,,,53 aloud,001,2022_Sep_22_1053,ProdSingRedoBetween,2021.2.3,59.859055866988164,
,,,,126,0,126,0,,,,,,,,,,,,,,,,,,,,,,1608.2343660999904,None,,,,,,,,,,,,,,,,,measure,32,127,aloud,old,blue,1602.6964592000004,None,1602.6964592000004,None,1,3.4600260999868624,1602.6964592000004,None,3.4600260999868624,1606.1834224999766,None,1606.6982943999756,None,1606.6982943999756,None,n,1.5061837999965064,1606.6982943999756,None,1.5061837999965064,,,53 aloud,001,2022_Sep_22_1053,ProdSingRedoBetween,2021.2.3,59.859055866988164,
,,,,127,0,127,0,,,,,,,,,,,,,,,,,,,,,,1612.0210087999876,None,,,,,,,,,,,,,,,,,entrance,31,128,aloud,old,blue,1608.7512818999821,None,1608.7512818999821,None,2,2.5251925000047777,1608.7512818999821,None,2.5251925000047777,1611.3053749999963,None,1611.8193888999813,None,1611.8193888999813,None,f,0.17723070000647567,1611.8193888999813,None,0.17723070000647567,,,53 aloud,001,2022_Sep_22_1053,ProdSingRedoBetween,2021.2.3,59.859055866988164,
,,,,128,0,128,0,,,,,,,,,,,,,,,,,,,,,,1614.5240761000023,None,,,,,,,,,,,,,,,,,commercial,95,129,aloud,new,null,1612.5415916999918,None,1612.5415916999918,None,1,1.2148949999827892,1612.5415916999918,None,1.2148949999827892,1613.7746144999983,None,1614.2885048000026,None,1614.2885048000026,None,n,0.21213809997425415,1614.2885048000026,None,0.21213809997425415,,,53 aloud,001,2022_Sep_22_1053,ProdSingRedoBetween,2021.2.3,59.859055866988164,
,,,,129,0,129,0,,,,,,,,,,,,,,,,,,,,,,1617.6450323000026,None,,,,,,,,,,,,,,,,,spoke,126,130,aloud,new,null,1615.0410853999783,None,1615.0410853999783,None,1,1.955321700021159,1615.0410853999783,None,1.955321700021159,1617.0264362999878,None,1617.5453967999783,None,1617.5453967999783,None,n,0.0675127999857068,1617.5453967999783,None,0.0675127999857068,,,53 aloud,001,2022_Sep_22_1053,ProdSingRedoBetween,2021.2.3,59.859055866988164,
,,,,130,0,130,0,,,,,,,,,,,,,,,,,,,,,,1623.5164587999752,None,,,,,,,,,,,,,,,,,skill,15,131,aloud,old,yellow,1618.170560300001,None,1618.170560300001,None,6,4.458101800002623,1618.170560300001,None,4.458101800002623,1622.6557868999953,None,1623.1680752999964,None,1623.1680752999964,None,r,0.31641169998329133,1623.1680752999964,None,0.31641169998329133,,,53 aloud,001,2022_Sep_22_1053,ProdSingRedoBetween,2021.2.3,59.859055866988164,
,,,,131,0,131,0,,,,,,,,,,,,,,,,,,,,,,1626.6690033999912,None,,,,,,,,,,,,,,,,,country,155,132,aloud,new,null,1624.0456931999943,None,1624.0456931999943,None,1,1.9907704000070225,1624.0456931999943,None,1.9907704000070225,1626.070065399981,None,1626.5843616999919,None,1626.5843616999919,None,n,0.060204400011571124,1626.5843616999919,None,0.060204400011571124,,,53 aloud,001,2022_Sep_22_1053,ProdSingRedoBetween,2021.2.3,59.859055866988164,
,,,,132,0,132,0,,,,,,,,,,,,,,,,,,,,,,1632.0749358999892,None,,,,,,,,,,,,,,,,,swift,0,133,aloud,old,yellow,1627.1854785999749,None,1627.1854785999749,None,2,4.1868900999834295,1627.1854785999749,None,4.1868900999834295,1631.393648600002,None,1631.9063132999872,None,1631.9063132999872,None,f,0.1381880000117235,1631.9063132999872,None,0.1381880000117235,,,53 aloud,001,2022_Sep_22_1053,ProdSingRedoBetween,2021.2.3,59.859055866988164,
,,,,133,0,133,0,,,,,,,,,,,,,,,,,,,,,,1637.144537699991,None,,,,,,,,,,,,,,,,,weather,40,134,aloud,old,blue,1632.5923081999936,None,1632.5923081999936,None,1,2.4761092999833636,1632.5923081999936,None,2.4761092999833636,1635.0953242999967,None,1635.6104330999951,None,1635.6104330999951,None,n,1.5059427000232972,1635.6104330999951,None,1.5059427000232972,,,53 aloud,001,2022_Sep_22_1053,ProdSingRedoBetween,2021.2.3,59.859055866988164,
,,,,134,0,134,0,,,,,,,,,,,,,,,,,,,,,,1641.6341583999747,None,,,,,,,,,,,,,,,,,scale,91,135,aloud,new,null,1637.658643199975,None,1637.658643199975,None,1,2.4337689999956638,1637.658643199975,None,2.4337689999956638,1640.1167201999924,None,1640.6322814000014,None,1640.6322814000014,None,n,0.9804168999835383,1640.6322814000014,None,0.9804168999835383,,,53 aloud,001,2022_Sep_22_1053,ProdSingRedoBetween,2021.2.3,59.859055866988164,
,,,,135,0,135,0,,,,,,,,,,,,,,,,,,,,,,1645.5558817999845,None,,,,,,,,,,,,,,,,,suggestion,83,136,aloud,old,red,1642.1540915999794,None,1642.1540915999794,None,6,2.4983068000001367,1642.1540915999794,None,2.4983068000001367,1644.6708686999918,None,1645.1898369999835,None,1645.1898369999835,None,r,0.33448829999542795,1645.1898369999835,None,0.33448829999542795,,,53 aloud,001,2022_Sep_22_1053,ProdSingRedoBetween,2021.2.3,59.859055866988164,
,,,,136,0,136,0,,,,,,,,,,,,,,,,,,,,,,1648.3064498000022,None,,,,,,,,,,,,,,,,,region,176,137,aloud,new,null,1646.0728061999835,None,1646.0728061999835,None,1,1.0916224000102375,1646.0728061999835,None,1.0916224000102375,1647.1901997999812,None,1647.7051449999854,None,1647.7051449999854,None,n,0.5713283999939449,1647.7051449999854,None,0.5713283999939449,,,53 aloud,001,2022_Sep_22_1053,ProdSingRedoBetween,2021.2.3,59.859055866988164,
,,,,137,0,137,0,,,,,,,,,,,,,,,,,,,,,,1651.3448828999826,None,,,,,,,,,,,,,,,,,primary,87,138,aloud,old,red,1648.8094084999757,None,1648.8094084999757,None,6,1.619021899998188,1648.8094084999757,None,1.619021899998188,1650.460561099986,None,1650.9753204000008,None,1650.9753204000008,None,r,0.3491574999934528,1650.9753204000008,None,0.3491574999934528,,,53 aloud,001,2022_Sep_22_1053,ProdSingRedoBetween,2021.2.3,59.859055866988164,
,,,,138,0,138,0,,,,,,,,,,,,,,,,,,,,,,1654.1452043000027,None,,,,,,,,,,,,,,,,,estate,164,139,aloud,new,null,1651.858986999985,None,1651.858986999985,None,1,1.0816771000099834,1651.858986999985,None,1.0816771000099834,1652.9627448999963,None,1653.4915167999861,None,1653.4915167999861,None,n,0.624904800002696,1653.4915167999861,None,0.624904800002696,,,53 aloud,001,2022_Sep_22_1053,ProdSingRedoBetween,2021.2.3,59.859055866988164,
,,,,139,0,139,0,,,,,,,,,,,,,,,,,,,,,,1659.5688694999844,None,,,,,,,,,,,,,,,,,length,50,140,aloud,old,blue,1654.650347399991,None,1654.650347399991,None,6,4.122139499988407,1654.650347399991,None,4.122139499988407,1658.8031109999865,None,1659.3177187999827,None,1659.3177187999827,None,r,0.23099330000695772,1659.3177187999827,None,0.23099330000695772,,,53 aloud,001,2022_Sep_22_1053,ProdSingRedoBetween,2021.2.3,59.859055866988164,
,,,,140,0,140,0,,,,,,,,,,,,,,,,,,,,,,1665.0575578999997,None,,,,,,,,,,,,,,,,,light,110,141,aloud,new,null,1660.0856454999885,None,1660.0856454999885,None,3,4.102664900012314,1660.0856454999885,None,4.102664900012314,1664.2067455999786,None,1664.7224929999793,None,1664.7224929999793,None,f,0.3058853000111412,1664.7224929999793,None,0.3058853000111412,,,53 aloud,001,2022_Sep_22_1053,ProdSingRedoBetween,2021.2.3,59.859055866988164,
,,,,141,0,141,0,,,,,,,,,,,,,,,,,,,,,,1671.1123203999887,None,,,,,,,,,,,,,,,,,throw,114,142,aloud,new,null,1665.5754566999967,None,1665.5754566999967,None,1,4.68516880000243,1665.5754566999967,None,4.68516880000243,1670.2803968999942,None,1670.8028317999851,None,1670.8028317999851,None,n,0.28149340001982637,1670.8028317999851,None,0.28149340001982637,,,53 aloud,001,2022_Sep_22_1053,ProdSingRedoBetween,2021.2.3,59.859055866988164,
,,,,142,0,142,0,,,,,,,,,,,,,,,,,,,,,,1675.5379357999773,None,,,,,,,,,,,,,,,,,solution,5,143,aloud,old,yellow,1671.6203410000016,None,1671.6203410000016,None,6,2.8880232999799773,1671.6203410000016,None,2.8880232999799773,1674.5341717999836,None,1675.0494516999752,None,1675.0494516999752,None,f,0.45894910002243705,1675.0494516999752,None,0.45894910002243705,,,53 aloud,001,2022_Sep_22_1053,ProdSingRedoBetween,2021.2.3,59.859055866988164,
,,,,143,0,143,0,,,,,,,,,,,,,,,,,,,,,,1683.2917920999753,None,,,,,,,,,,,,,,,,,society,82,144,aloud,old,red,1676.0528762999747,None,1676.0528762999747,None,6,6.4074785000120755,1676.0528762999747,None,6.4074785000120755,1682.491847199999,None,1683.0076494999812,None,1683.0076494999812,None,r,0.25275740001234226,1683.0076494999812,None,0.25275740001234226,,,53 aloud,001,2022_Sep_22_1053,ProdSingRedoBetween,2021.2.3,59.859055866988164,
,,,,144,0,144,0,,,,,,,,,,,,,,,,,,,,,,1687.1293021999882,None,,,,,,,,,,,,,,,,,touch,66,145,aloud,old,red,1683.7936346999777,None,1683.7936346999777,None,3,2.466701600002125,1683.7936346999777,None,2.466701600002125,1686.278692699998,None,1686.79449499998,None,1686.79449499998,None,f,0.314109400002053,1686.79449499998,None,0.314109400002053,,,53 aloud,001,2022_Sep_22_1053,ProdSingRedoBetween,2021.2.3,59.859055866988164,
,,,,145,0,145,0,,,,,,,,,,,,,,,,,,,,,,1689.897689299978,None,,,,,,,,,,,,,,,,,empty,93,146,aloud,new,null,1687.6459289999912,None,1687.6459289999912,None,1,1.3264557000075001,1687.6459289999912,None,1.3264557000075001,1688.9997094999999,None,1689.5140736999747,None,1689.5140736999747,None,n,0.3543043000099715,1689.5140736999747,None,0.3543043000099715,,,53 aloud,001,2022_Sep_22_1053,ProdSingRedoBetween,2021.2.3,59.859055866988164,
,,,,146,0,146,0,,,,,,,,,,,,,,,,,,,,,,1695.4041634000023,None,,,,,,,,,,,,,,,,,gesture,29,147,aloud,old,blue,1690.4193106999737,None,1690.4193106999737,None,5,4.152906400006032,1690.4193106999737,None,4.152906400006032,1694.6136706999969,None,1695.119539199979,None,1695.119539199979,None,f,0.2528071000124328,1695.119539199979,None,0.2528071000124328,,,53 aloud,001,2022_Sep_22_1053,ProdSingRedoBetween,2021.2.3,59.859055866988164,
,,,,147,0,147,0,,,,,,,,,,,,,,,,,,,,,,1697.922678199975,None,,,,,,,,,,,,,,,,,benefit,139,148,aloud,new,null,1695.9062962000025,None,1695.9062962000025,None,1,1.3144190000020899,1695.9062962000025,None,1.3144190000020899,1697.2444406999857,None,1697.7554746999813,None,1697.7554746999813,None,n,0.13687690001097508,1697.7554746999813,None,0.13687690001097508,,,53 aloud,001,2022_Sep_22_1053,ProdSingRedoBetween,2021.2.3,59.859055866988164,
,,,,148,0,148,0,,,,,,,,,,,,,,,,,,,,,,1701.0819606999867,None,,,,,,,,,,,,,,,,,travel,60,149,aloud,old,red,1698.4250460999901,None,1698.4250460999901,None,1,2.043466700008139,1698.4250460999901,None,2.043466700008139,1700.4944219999888,None,1701.010389299976,None,1701.010389299976,None,n,0.042159899981925264,1701.010389299976,None,0.042159899981925264,,,53 aloud,001,2022_Sep_22_1053,ProdSingRedoBetween,2021.2.3,59.859055866988164,
,,,,149,0,149,0,,,,,,,,,,,,,,,,,,,,,,1705.0466617999773,None,,,,,,,,,,,,,,,,,platform,47,150,aloud,old,blue,1701.5945575999795,None,1701.5945575999795,None,2,2.7057293000107165,1701.5945575999795,None,2.7057293000107165,1704.3308575999981,None,1704.8464727999817,None,1704.8464727999817,None,f,0.1739543000003323,1704.8464727999817,None,0.1739543000003323,,,53 aloud,001,2022_Sep_22_1053,ProdSingRedoBetween,2021.2.3,59.859055866988164,
,,,,150,0,150,0,,,,,,,,,,,,,,,,,,,,,,1708.7044303999864,None,,,,,,,,,,,,,,,,,individual,133,151,aloud,new,null,1705.5528296999983,None,1705.5528296999983,None,1,2.3958012999792118,1705.5528296999983,None,2.3958012999792118,1707.9673578999937,None,1708.4897187000024,None,1708.4897187000024,None,n,0.18664260001969524,1708.4897187000024,None,0.18664260001969524,,,53 aloud,001,2022_Sep_22_1053,ProdSingRedoBetween,2021.2.3,59.859055866988164,
,,,,151,0,151,0,,,,,,,,,,,,,,,,,,,,,,1711.536969799985,None,,,,,,,,,,,,,,,,,alert,144,152,aloud,new,null,1709.218170499982,None,1709.218170499982,None,1,1.6984141999855638,1709.218170499982,None,1.6984141999855638,1710.9370892999868,None,1711.4516391999787,None,1711.4516391999787,None,n,0.06498470000224188,1711.4516391999787,None,0.06498470000224188,,,53 aloud,001,2022_Sep_22_1053,ProdSingRedoBetween,2021.2.3,59.859055866988164,
,,,,152,0,152,0,,,,,,,,,,,,,,,,,,,,,,1715.3587133999972,None,,,,,,,,,,,,,,,,,beginning,147,153,aloud,new,null,1712.054608699982,None,1712.054608699982,None,1,2.3657160000002477,1712.054608699982,None,2.3657160000002477,1714.4409953999857,None,1714.9567819999938,None,1714.9567819999938,None,n,0.36760250001680106,1714.9567819999938,None,0.36760250001680106,,,53 aloud,001,2022_Sep_22_1053,ProdSingRedoBetween,2021.2.3,59.859055866988164,
,,,,153,0,153,0,,,,,,,,,,,,,,,,,,,,,,1718.078303599992,None,,,,,,,,,,,,,,,,,dream,171,154,aloud,new,null,1715.8810545000015,None,1715.8810545000015,None,1,1.323806300002616,1715.8810545000015,None,1.323806300002616,1717.2388609999907,None,1717.742179599998,None,1717.742179599998,None,n,0.3100785000133328,1717.742179599998,None,0.3100785000133328,,,53 aloud,001,2022_Sep_22_1053,ProdSingRedoBetween,2021.2.3,59.859055866988164,
,,,,154,0,154,0,,,,,,,,,,,,,,,,,,,,,,1722.4983520999958,None,,,,,,,,,,,,,,,,,relation,18,155,aloud,old,yellow,1718.5947226999851,None,1718.5947226999851,None,1,3.1055960999801755,1718.5947226999851,None,3.1055960999801755,1721.731122999976,None,1722.2467406999785,None,1722.2467406999785,None,n,0.23010499999509193,1722.2467406999785,None,0.23010499999509193,,,53 aloud,001,2022_Sep_22_1053,ProdSingRedoBetween,2021.2.3,59.859055866988164,
,,,,155,0,155,0,,,,,,,,,,,,,,,,,,,,,,1727.7688837999885,None,,,,,,,,,,,,,,,,,guest,106,156,aloud,new,null,1723.0147052999819,None,1723.0147052999819,None,1,3.8615871999936644,1723.0147052999819,None,3.8615871999936644,1726.903988199978,None,1727.4193628999928,None,1727.4193628999928,None,n,0.3208816999976989,1727.4193628999928,None,0.3208816999976989,,,53 aloud,001,2022_Sep_22_1053,ProdSingRedoBetween,2021.2.3,59.859055866988164,
,,,,156,0,156,0,,,,,,,,,,,,,,,,,,,,,,1732.5850178999826,None,,,,,,,,,,,,,,,,,appeal,45,157,aloud,old,blue,1728.2707432000025,None,1728.2707432000025,None,1,2.5416052999789827,1728.2707432000025,None,2.5416052999789827,1730.840449099982,None,1731.3558856000018,None,1731.3558856000018,None,n,1.1926321999926586,1731.3558856000018,None,1.1926321999926586,,,53 aloud,001,2022_Sep_22_1053,ProdSingRedoBetween,2021.2.3,59.859055866988164,
,,,,157,0,157,0,,,,,,,,,,,,,,,,,,,,,,1736.378243299987,None,,,,,,,,,,,,,,,,,addition,52,158,aloud,old,blue,1733.0958610999805,None,1733.0958610999805,None,5,2.4363061000185553,1733.0958610999805,None,2.4363061000185553,1735.5647590000008,None,1736.077208099974,None,1736.077208099974,None,f,0.2794992000272032,1736.077208099974,None,0.2794992000272032,,,53 aloud,001,2022_Sep_22_1053,ProdSingRedoBetween,2021.2.3,59.859055866988164,
,,,,158,0,158,0,,,,,,,,,,,,,,,,,,,,,,1741.183798299986,None,,,,,,,,,,,,,,,,,corner,67,159,aloud,old,red,1736.8846500999935,None,1736.8846500999935,None,3,3.4960186000098474,1736.8846500999935,None,3.4960186000098474,1740.3999914999877,None,1740.9145687999844,None,1740.9145687999844,None,f,0.2499351000005845,1740.9145687999844,None,0.2499351000005845,,,53 aloud,001,2022_Sep_22_1053,ProdSingRedoBetween,2021.2.3,59.859055866988164,
,,,,159,0,159,0,,,,,,,,,,,,,,,,,,,,,,1744.5689198999899,None,,,,,,,,,,,,,,,,,track,3,160,aloud,old,yellow,1741.7012683999783,None,1741.7012683999783,None,1,1.5429943000199273,1741.7012683999783,None,1.5429943000199273,1743.2702121999755,None,1743.784366899985,None,1743.784366899985,None,n,0.7558575999864843,1743.784366899985,None,0.7558575999864843,,,53 aloud,001,2022_Sep_22_1053,ProdSingRedoBetween,2021.2.3,59.859055866988164,
,,,,160,0,160,0,,,,,,,,,,,,,,,,,,,,,,1747.1216790999752,None,,,,,,,,,,,,,,,,,payment,154,161,aloud,new,null,1745.071981999994,None,1745.071981999994,None,1,1.1162819000019226,1745.071981999994,None,1.1162819000019226,1746.221729699988,None,1746.7400933000026,None,1746.7400933000026,None,n,0.35218479999457486,1746.7400933000026,None,0.35218479999457486,,,53 aloud,001,2022_Sep_22_1053,ProdSingRedoBetween,2021.2.3,59.859055866988164,
,,,,161,0,161,0,,,,,,,,,,,,,,,,,,,,,,1750.5099355999846,None,,,,,,,,,,,,,,,,,institute,127,162,aloud,new,null,1747.6269715999952,None,1747.6269715999952,None,1,1.521423500002129,1747.6269715999952,None,1.521423500002129,1749.1800881999952,None,1749.6911844999995,None,1749.6911844999995,None,n,0.7851985000015702,1749.6911844999995,None,0.7851985000015702,,,53 aloud,001,2022_Sep_22_1053,ProdSingRedoBetween,2021.2.3,59.859055866988164,
,,,,162,0,162,0,,,,,,,,,,,,,,,,,,,,,,1754.0122033999942,None,,,,,,,,,,,,,,,,,sound,116,163,aloud,new,null,1751.026857799996,None,1751.026857799996,None,1,2.2340795999916736,1751.026857799996,None,2.2340795999916736,1753.295294999989,None,1753.8107163999812,None,1753.8107163999812,None,n,0.18551559999468736,1753.8107163999812,None,0.18551559999468736,,,53 aloud,001,2022_Sep_22_1053,ProdSingRedoBetween,2021.2.3,59.859055866988164,
,,,,163,0,163,0,,,,,,,,,,,,,,,,,,,,,,1756.7168701999763,None,,,,,,,,,,,,,,,,,poetry,161,164,aloud,new,null,1754.5143225999782,None,1754.5143225999782,None,1,1.4178300999919884,1754.5143225999782,None,1.4178300999919884,1755.9670839000028,None,1756.4814534999896,None,1756.4814534999896,None,n,0.20269759997609071,1756.4814534999896,None,0.20269759997609071,,,53 aloud,001,2022_Sep_22_1053,ProdSingRedoBetween,2021.2.3,59.859055866988164,
,,,,164,0,164,0,,,,,,,,,,,,,,,,,,,,,,1761.027989299997,None,,,,,,,,,,,,,,,,,colonel,157,165,aloud,new,null,1757.2324563000002,None,1757.2324563000002,None,1,2.9956599000142887,1757.2324563000002,None,2.9956599000142887,1760.2533950999787,None,1760.7682716999843,None,1760.7682716999843,None,n,0.22818170001846738,1760.7682716999843,None,0.22818170001846738,,,53 aloud,001,2022_Sep_22_1053,ProdSingRedoBetween,2021.2.3,59.859055866988164,
,,,,165,0,165,0,,,,,,,,,,,,,,,,,,,,,,1764.2216229999904,None,,,,,,,,,,,,,,,,,novel,75,166,aloud,old,red,1761.546465899999,None,1761.546465899999,None,6,1.6258820999937598,1761.546465899999,None,1.6258820999937598,1763.190122399974,None,1763.7098492999794,None,1763.7098492999794,None,r,0.4864024000125937,1763.7098492999794,None,0.4864024000125937,,,53 aloud,001,2022_Sep_22_1053,ProdSingRedoBetween,2021.2.3,59.859055866988164,
,,,,166,0,166,0,,,,,,,,,,,,,,,,,,,,,,1768.727576299978,None,,,,,,,,,,,,,,,,,election,94,167,aloud,new,null,1764.73115029998,None,1764.73115029998,None,2,3.273027099989122,1764.73115029998,None,3.273027099989122,1768.0276362999866,None,1768.5423022999894,None,1768.5423022999894,None,f,0.16618020000169054,1768.5423022999894,None,0.16618020000169054,,,53 aloud,001,2022_Sep_22_1053,ProdSingRedoBetween,2021.2.3,59.859055866988164,
,,,,167,0,167,0,,,,,,,,,,,,,,,,,,,,,,1772.0295013999857,None,,,,,,,,,,,,,,,,,rough,9,168,aloud,old,yellow,1769.2456059999822,None,1769.2456059999822,None,1,1.7426197000022512,1769.2456059999822,None,1.7426197000022512,1771.013228099997,None,1771.5306502999738,None,1771.5306502999738,None,n,0.481618099991465,1771.5306502999738,None,0.481618099991465,,,53 aloud,001,2022_Sep_22_1053,ProdSingRedoBetween,2021.2.3,59.859055866988164,
,,,,168,0,168,0,,,,,,,,,,,,,,,,,,,,,,1776.6693061999977,None,,,,,,,,,,,,,,,,,disease,120,169,aloud,new,null,1772.5460801000008,None,1772.5460801000008,None,1,3.170294199982891,1772.5460801000008,None,3.170294199982891,1775.7462918999954,None,1776.2534876999853,None,1776.2534876999853,None,n,0.38265970000065863,1776.2534876999853,None,0.38265970000065863,,,53 aloud,001,2022_Sep_22_1053,ProdSingRedoBetween,2021.2.3,59.859055866988164,
,,,,169,0,169,0,,,,,,,,,,,,,,,,,,,,,,1780.121570599993,None,,,,,,,,,,,,,,,,,trail,159,170,aloud,new,null,1777.1855014999746,None,1777.1855014999746,None,6,1.8747724000131711,1777.1855014999746,None,1.8747724000131711,1779.090835799987,None,1779.6055652999785,None,1779.6055652999785,None,r,0.48660640002344735,1779.6055652999785,None,0.48660640002344735,,,53 aloud,001,2022_Sep_22_1053,ProdSingRedoBetween,2021.2.3,59.859055866988164,
,,,,170,0,170,0,,,,,,,,,,,,,,,,,,,,,,1783.8925875999848,None,,,,,,,,,,,,,,,,,drama,138,171,aloud,new,null,1780.6236438999767,None,1780.6236438999767,None,1,1.7647604999947362,1780.6236438999767,None,1.7647604999947362,1782.4105361999827,None,1782.9261305999826,None,1782.9261305999826,None,n,0.9340534999791998,1782.9261305999826,None,0.9340534999791998,,,53 aloud,001,2022_Sep_22_1053,ProdSingRedoBetween,2021.2.3,59.859055866988164,
,,,,171,0,171,0,,,,,,,,,,,,,,,,,,,,,,1787.8971101999923,None,,,,,,,,,,,,,,,,,sleep,43,172,aloud,old,blue,1784.4101343999791,None,1784.4101343999791,None,6,2.0340308000158984,1784.4101343999791,None,2.0340308000158984,1786.4638620999758,None,1786.991554099979,None,1786.991554099979,None,r,0.8765870000061113,1786.991554099979,None,0.8765870000061113,,,53 aloud,001,2022_Sep_22_1053,ProdSingRedoBetween,2021.2.3,59.859055866988164,
,,,,172,0,172,0,,,,,,,,,,,,,,,,,,,,,,1791.1823410999787,None,,,,,,,,,,,,,,,,,permit,59,173,aloud,old,yellow,1788.4141226999927,None,1788.4141226999927,None,6,1.9181253999995533,1788.4141226999927,None,1.9181253999995533,1790.3490866999782,None,1790.8653223000001,None,1790.8653223000001,None,r,0.2991397999867331,1790.8653223000001,None,0.2991397999867331,,,53 aloud,001,2022_Sep_22_1053,ProdSingRedoBetween,2021.2.3,59.859055866988164,
,,,,173,0,173,0,,,,,,,,,,,,,,,,,,,,,,1793.8695720999967,None,,,,,,,,,,,,,,,,,broke,79,174,aloud,old,red,1791.692047199991,None,1791.692047199991,None,1,1.1841333999764174,1791.692047199991,None,1.1841333999764174,1792.9022320999939,None,1793.4177706999762,None,1793.4177706999762,None,n,0.41831780000939034,1793.4177706999762,None,0.41831780000939034,,,53 aloud,001,2022_Sep_22_1053,ProdSingRedoBetween,2021.2.3,59.859055866988164,
,,,,174,0,174,0,,,,,,,,,,,,,,,,,,,,,,1798.2901129999955,None,,,,,,,,,,,,,,,,,capital,7,175,aloud,old,yellow,1794.3874291999964,None,1794.3874291999964,None,1,2.2489690000074916,1794.3874291999964,None,2.2489690000074916,1796.656075499981,None,1797.1769561999827,None,1797.1769561999827,None,n,1.091179299983196,1797.1769561999827,None,1.091179299983196,,,53 aloud,001,2022_Sep_22_1053,ProdSingRedoBetween,2021.2.3,59.859055866988164,
