StudyLoop.thisRepN,StudyLoop.thisTrialN,StudyLoop.thisN,StudyLoop.thisIndex,TestLoop.thisRepN,TestLoop.thisTrialN,TestLoop.thisN,TestLoop.thisIndex,textCondition.started,textCondition.stopped,keyCondition.keys,keyCondition.rt,keyCondition.started,keyCondition.stopped,Condition,textWelcome.started,textWelcome.stopped,keyWelcome.keys,keyWelcome.rt,keyWelcome.started,keyWelcome.stopped,textAloud.started,textAloud.stopped,textSilent.started,textSilent.stopped,textSing.started,textSing.stopped,conditional_text.started,conditional_text.stopped,textBlank500.started,textBlank500.stopped,study_word,study_num,study_order,study_type,word_color,textStudy.started,textStudy.stopped,keyStudy.keys,keyStudy.started,keyStudy.stopped,textTestInstructions.started,textTestInstructions.stopped,key_resp_3.keys,key_resp_3.rt,key_resp_3.started,key_resp_3.stopped,test_word,test_num,test_order,test_condition,old_new_test,test_word_original_color,textConf.started,textConf.stopped,textConfScale.started,textConfScale.stopped,keyConf.keys,keyConf.rt,keyConf.started,keyConf.stopped,confidence response time,textTestBlank.started,textTestBlank.stopped,textRKN.started,textRKN.stopped,textRKNScale.started,textRKNScale.stopped,keyRKN.keys,keyRKN.rt,keyRKN.started,keyRKN.stopped,rkn response time,textEnd.started,textEnd.stopped,participant,session,date,expName,psychopyVersion,frameRate,
,,,,,,,,79.04328759998316,None,c,5.061513099994045,79.04328759998316,None,,,,,,,,,,,,,,,,,,,,,,,,,,,,,,,,,,,,,,,,,,,,,,,,,,,,,,,,,,,,,,54 Sing,001,2022_Sep_22_1328,ProdSingRedoBetween,2021.2.3,59.756611322730976,
,,,,,,,,,,,,,,SingTest,84.16307059998508,None,space,1805.9946187000023,84.16307059998508,None,,,,,,,,,,,,,,,,,,,,,,,,,,,,,,,,,,,,,,,,,,,,,,,,,,,,,,,54 Sing,001,2022_Sep_22_1328,ProdSingRedoBetween,2021.2.3,59.756611322730976,
0,0,0,0,,,,,,,,,,,,,,,,,,84.16307059998508,None,84.16307059998508,None,84.16307059998508,None,84.16307059998508,None,1892.6924752999912,None,question,38,1,sing,blue,1890.687205299997,None,None,1890.687205299997,None,,,,,,,,,,,,,,,,,,,,,,,,,,,,,,,,,,,54 Sing,001,2022_Sep_22_1328,ProdSingRedoBetween,2021.2.3,59.756611322730976,
1,0,1,0,,,,,,,,,,,,,,,,,,,,,,,,,,1895.1949397999851,None,region,53,2,sing,blue,1893.1930019999854,None,None,1893.1930019999854,None,,,,,,,,,,,,,,,,,,,,,,,,,,,,,,,,,,,54 Sing,001,2022_Sep_22_1328,ProdSingRedoBetween,2021.2.3,59.756611322730976,
2,0,2,0,,,,,,,,,,,,,,,,,,,,,,,,,,1897.697493899992,None,beginning,85,3,sing,red,1895.6951948999777,None,None,1895.6951948999777,None,,,,,,,,,,,,,,,,,,,,,,,,,,,,,,,,,,,54 Sing,001,2022_Sep_22_1328,ProdSingRedoBetween,2021.2.3,59.756611322730976,
3,0,3,0,,,,,,,,,,,,,,,,,,,,,,,,,,1900.1999673999962,None,guide,26,4,sing,yellow,1898.1990890999732,None,None,1898.1990890999732,None,,,,,,,,,,,,,,,,,,,,,,,,,,,,,,,,,,,54 Sing,001,2022_Sep_22_1328,ProdSingRedoBetween,2021.2.3,59.756611322730976,
4,0,4,0,,,,,,,,,,,,,,,,,,,,,,,,,,1902.719151999976,None,service,76,5,sing,red,1900.7084116999758,None,None,1900.7084116999758,None,,,,,,,,,,,,,,,,,,,,,,,,,,,,,,,,,,,54 Sing,001,2022_Sep_22_1328,ProdSingRedoBetween,2021.2.3,59.756611322730976,
5,0,5,0,,,,,,,,,,,,,,,,,,,,,,,,,,1905.2380678999762,None,judge,8,6,sing,yellow,1903.2365462000016,None,None,1903.2365462000016,None,,,,,,,,,,,,,,,,,,,,,,,,,,,,,,,,,,,54 Sing,001,2022_Sep_22_1328,ProdSingRedoBetween,2021.2.3,59.756611322730976,
6,0,6,0,,,,,,,,,,,,,,,,,,,,,,,,,,1907.7407974999805,None,account,65,7,sing,red,1905.7388127000013,None,None,1905.7388127000013,None,,,,,,,,,,,,,,,,,,,,,,,,,,,,,,,,,,,54 Sing,001,2022_Sep_22_1328,ProdSingRedoBetween,2021.2.3,59.756611322730976,
7,0,7,0,,,,,,,,,,,,,,,,,,,,,,,,,,1910.2433283999853,None,opening,40,8,sing,blue,1908.241052599973,None,None,1908.241052599973,None,,,,,,,,,,,,,,,,,,,,,,,,,,,,,,,,,,,54 Sing,001,2022_Sep_22_1328,ProdSingRedoBetween,2021.2.3,59.756611322730976,
8,0,8,0,,,,,,,,,,,,,,,,,,,,,,,,,,1912.7458606,None,silence,87,9,sing,red,1910.7462752999854,None,None,1910.7462752999854,None,,,,,,,,,,,,,,,,,,,,,,,,,,,,,,,,,,,54 Sing,001,2022_Sep_22_1328,ProdSingRedoBetween,2021.2.3,59.756611322730976,
9,0,9,0,,,,,,,,,,,,,,,,,,,,,,,,,,1915.2483300999738,None,meeting,78,10,sing,red,1913.2463319999806,None,None,1913.2463319999806,None,,,,,,,,,,,,,,,,,,,,,,,,,,,,,,,,,,,54 Sing,001,2022_Sep_22_1328,ProdSingRedoBetween,2021.2.3,59.756611322730976,
10,0,10,0,,,,,,,,,,,,,,,,,,,,,,,,,,1917.7508656999853,None,native,80,11,sing,red,1915.750893599994,None,None,1915.750893599994,None,,,,,,,,,,,,,,,,,,,,,,,,,,,,,,,,,,,54 Sing,001,2022_Sep_22_1328,ProdSingRedoBetween,2021.2.3,59.756611322730976,
11,0,11,0,,,,,,,,,,,,,,,,,,,,,,,,,,1920.2698433999904,None,symbol,43,12,sing,blue,1918.257128599973,None,None,1918.257128599973,None,,,,,,,,,,,,,,,,,,,,,,,,,,,,,,,,,,,54 Sing,001,2022_Sep_22_1328,ProdSingRedoBetween,2021.2.3,59.756611322730976,
12,0,12,0,,,,,,,,,,,,,,,,,,,,,,,,,,1922.7723579999874,None,alert,79,13,sing,red,1920.7704670999956,None,None,1920.7704670999956,None,,,,,,,,,,,,,,,,,,,,,,,,,,,,,,,,,,,54 Sing,001,2022_Sep_22_1328,ProdSingRedoBetween,2021.2.3,59.756611322730976,
13,0,13,0,,,,,,,,,,,,,,,,,,,,,,,,,,1925.2915386999957,None,sunset,88,14,sing,red,1923.2848218999861,None,None,1923.2848218999861,None,,,,,,,,,,,,,,,,,,,,,,,,,,,,,,,,,,,54 Sing,001,2022_Sep_22_1328,ProdSingRedoBetween,2021.2.3,59.756611322730976,
14,0,14,0,,,,,,,,,,,,,,,,,,,,,,,,,,1927.794180099998,None,industry,74,15,sing,red,1925.792018499982,None,None,1925.792018499982,None,,,,,,,,,,,,,,,,,,,,,,,,,,,,,,,,,,,54 Sing,001,2022_Sep_22_1328,ProdSingRedoBetween,2021.2.3,59.756611322730976,
15,0,15,0,,,,,,,,,,,,,,,,,,,,,,,,,,1930.2977214999846,None,literature,45,16,sing,blue,1928.2967151999765,None,None,1928.2967151999765,None,,,,,,,,,,,,,,,,,,,,,,,,,,,,,,,,,,,54 Sing,001,2022_Sep_22_1328,ProdSingRedoBetween,2021.2.3,59.756611322730976,
16,0,16,0,,,,,,,,,,,,,,,,,,,,,,,,,,1932.7991332999954,None,dance,47,17,sing,blue,1930.7971788999857,None,None,1930.7971788999857,None,,,,,,,,,,,,,,,,,,,,,,,,,,,,,,,,,,,54 Sing,001,2022_Sep_22_1328,ProdSingRedoBetween,2021.2.3,59.756611322730976,
17,0,17,0,,,,,,,,,,,,,,,,,,,,,,,,,,1935.3185421999951,None,search,27,18,sing,yellow,1933.3044025999843,None,None,1933.3044025999843,None,,,,,,,,,,,,,,,,,,,,,,,,,,,,,,,,,,,54 Sing,001,2022_Sep_22_1328,ProdSingRedoBetween,2021.2.3,59.756611322730976,
18,0,18,0,,,,,,,,,,,,,,,,,,,,,,,,,,1937.8206664999889,None,pressure,24,19,sing,yellow,1935.8186055999831,None,None,1935.8186055999831,None,,,,,,,,,,,,,,,,,,,,,,,,,,,,,,,,,,,54 Sing,001,2022_Sep_22_1328,ProdSingRedoBetween,2021.2.3,59.756611322730976,
19,0,19,0,,,,,,,,,,,,,,,,,,,,,,,,,,1940.3231842999812,None,fellow,23,20,sing,yellow,1938.3212154999783,None,None,1938.3212154999783,None,,,,,,,,,,,,,,,,,,,,,,,,,,,,,,,,,,,54 Sing,001,2022_Sep_22_1328,ProdSingRedoBetween,2021.2.3,59.756611322730976,
20,0,20,0,,,,,,,,,,,,,,,,,,,,,,,,,,1942.825514600001,None,committee,81,21,sing,red,1940.8238340999815,None,None,1940.8238340999815,None,,,,,,,,,,,,,,,,,,,,,,,,,,,,,,,,,,,54 Sing,001,2022_Sep_22_1328,ProdSingRedoBetween,2021.2.3,59.756611322730976,
21,0,21,0,,,,,,,,,,,,,,,,,,,,,,,,,,1945.3283592999796,None,little,1,22,sing,yellow,1943.3259993999964,None,None,1943.3259993999964,None,,,,,,,,,,,,,,,,,,,,,,,,,,,,,,,,,,,54 Sing,001,2022_Sep_22_1328,ProdSingRedoBetween,2021.2.3,59.756611322730976,
22,0,22,0,,,,,,,,,,,,,,,,,,,,,,,,,,1947.8308665999793,None,light,14,23,sing,yellow,1945.828838299989,None,None,1945.828838299989,None,,,,,,,,,,,,,,,,,,,,,,,,,,,,,,,,,,,54 Sing,001,2022_Sep_22_1328,ProdSingRedoBetween,2021.2.3,59.756611322730976,
23,0,23,0,,,,,,,,,,,,,,,,,,,,,,,,,,1950.3332693999982,None,institute,59,24,sing,yellow,1948.3310066999984,None,None,1948.3310066999984,None,,,,,,,,,,,,,,,,,,,,,,,,,,,,,,,,,,,54 Sing,001,2022_Sep_22_1328,ProdSingRedoBetween,2021.2.3,59.756611322730976,
24,0,24,0,,,,,,,,,,,,,,,,,,,,,,,,,,1952.8353570999752,None,goose,20,25,sing,yellow,1950.8338060999813,None,None,1950.8338060999813,None,,,,,,,,,,,,,,,,,,,,,,,,,,,,,,,,,,,54 Sing,001,2022_Sep_22_1328,ProdSingRedoBetween,2021.2.3,59.756611322730976,
25,0,25,0,,,,,,,,,,,,,,,,,,,,,,,,,,1955.3382386000012,None,foundation,32,26,sing,blue,1953.3369886,None,None,1953.3369886,None,,,,,,,,,,,,,,,,,,,,,,,,,,,,,,,,,,,54 Sing,001,2022_Sep_22_1328,ProdSingRedoBetween,2021.2.3,59.756611322730976,
26,0,26,0,,,,,,,,,,,,,,,,,,,,,,,,,,1957.8573304999736,None,production,63,27,sing,red,1955.8474970999814,None,None,1955.8474970999814,None,,,,,,,,,,,,,,,,,,,,,,,,,,,,,,,,,,,54 Sing,001,2022_Sep_22_1328,ProdSingRedoBetween,2021.2.3,59.756611322730976,
27,0,27,0,,,,,,,,,,,,,,,,,,,,,,,,,,1960.3598214999947,None,council,48,28,sing,blue,1958.3579045999795,None,None,1958.3579045999795,None,,,,,,,,,,,,,,,,,,,,,,,,,,,,,,,,,,,54 Sing,001,2022_Sep_22_1328,ProdSingRedoBetween,2021.2.3,59.756611322730976,
28,0,28,0,,,,,,,,,,,,,,,,,,,,,,,,,,1962.878932599997,None,charter,4,29,sing,yellow,1960.8638730999955,None,None,1960.8638730999955,None,,,,,,,,,,,,,,,,,,,,,,,,,,,,,,,,,,,54 Sing,001,2022_Sep_22_1328,ProdSingRedoBetween,2021.2.3,59.756611322730976,
29,0,29,0,,,,,,,,,,,,,,,,,,,,,,,,,,1965.3983401999867,None,fight,57,30,sing,blue,1963.3829054999806,None,None,1963.3829054999806,None,,,,,,,,,,,,,,,,,,,,,,,,,,,,,,,,,,,54 Sing,001,2022_Sep_22_1328,ProdSingRedoBetween,2021.2.3,59.756611322730976,
30,0,30,0,,,,,,,,,,,,,,,,,,,,,,,,,,1967.9008445999934,None,right,9,31,sing,yellow,1965.8986532999843,None,None,1965.8986532999843,None,,,,,,,,,,,,,,,,,,,,,,,,,,,,,,,,,,,54 Sing,001,2022_Sep_22_1328,ProdSingRedoBetween,2021.2.3,59.756611322730976,
31,0,31,0,,,,,,,,,,,,,,,,,,,,,,,,,,1970.4033275999827,None,power,68,32,sing,red,1968.401173499995,None,None,1968.401173499995,None,,,,,,,,,,,,,,,,,,,,,,,,,,,,,,,,,,,54 Sing,001,2022_Sep_22_1328,ProdSingRedoBetween,2021.2.3,59.756611322730976,
32,0,32,0,,,,,,,,,,,,,,,,,,,,,,,,,,1972.922461899987,None,concern,34,33,sing,blue,1970.9076387999812,None,None,1970.9076387999812,None,,,,,,,,,,,,,,,,,,,,,,,,,,,,,,,,,,,54 Sing,001,2022_Sep_22_1328,ProdSingRedoBetween,2021.2.3,59.756611322730976,
33,0,33,0,,,,,,,,,,,,,,,,,,,,,,,,,,1975.4417448999884,None,expansion,5,34,sing,yellow,1973.4303335000004,None,None,1973.4303335000004,None,,,,,,,,,,,,,,,,,,,,,,,,,,,,,,,,,,,54 Sing,001,2022_Sep_22_1328,ProdSingRedoBetween,2021.2.3,59.756611322730976,
34,0,34,0,,,,,,,,,,,,,,,,,,,,,,,,,,1977.944019699993,None,straight,61,35,sing,red,1975.942194299976,None,None,1975.942194299976,None,,,,,,,,,,,,,,,,,,,,,,,,,,,,,,,,,,,54 Sing,001,2022_Sep_22_1328,ProdSingRedoBetween,2021.2.3,59.756611322730976,
35,0,35,0,,,,,,,,,,,,,,,,,,,,,,,,,,1980.4463501999853,None,marriage,71,36,sing,red,1978.4447186999896,None,None,1978.4447186999896,None,,,,,,,,,,,,,,,,,,,,,,,,,,,,,,,,,,,54 Sing,001,2022_Sep_22_1328,ProdSingRedoBetween,2021.2.3,59.756611322730976,
36,0,36,0,,,,,,,,,,,,,,,,,,,,,,,,,,1982.949114499992,None,corner,25,37,sing,yellow,1980.9473204999813,None,None,1980.9473204999813,None,,,,,,,,,,,,,,,,,,,,,,,,,,,,,,,,,,,54 Sing,001,2022_Sep_22_1328,ProdSingRedoBetween,2021.2.3,59.756611322730976,
37,0,37,0,,,,,,,,,,,,,,,,,,,,,,,,,,1985.4517723999743,None,clean,51,38,sing,blue,1983.449671499984,None,None,1983.449671499984,None,,,,,,,,,,,,,,,,,,,,,,,,,,,,,,,,,,,54 Sing,001,2022_Sep_22_1328,ProdSingRedoBetween,2021.2.3,59.756611322730976,
38,0,38,0,,,,,,,,,,,,,,,,,,,,,,,,,,1987.9706724999996,None,point,86,39,sing,red,1985.964368999994,None,None,1985.964368999994,None,,,,,,,,,,,,,,,,,,,,,,,,,,,,,,,,,,,54 Sing,001,2022_Sep_22_1328,ProdSingRedoBetween,2021.2.3,59.756611322730976,
39,0,39,0,,,,,,,,,,,,,,,,,,,,,,,,,,1990.4733229999838,None,notice,36,40,sing,blue,1988.4712743999844,None,None,1988.4712743999844,None,,,,,,,,,,,,,,,,,,,,,,,,,,,,,,,,,,,54 Sing,001,2022_Sep_22_1328,ProdSingRedoBetween,2021.2.3,59.756611322730976,
40,0,40,0,,,,,,,,,,,,,,,,,,,,,,,,,,1992.975699499977,None,reading,35,41,sing,blue,1990.9767133999849,None,None,1990.9767133999849,None,,,,,,,,,,,,,,,,,,,,,,,,,,,,,,,,,,,54 Sing,001,2022_Sep_22_1328,ProdSingRedoBetween,2021.2.3,59.756611322730976,
41,0,41,0,,,,,,,,,,,,,,,,,,,,,,,,,,1995.4948173000012,None,piece,64,42,sing,red,1993.481992999994,None,None,1993.481992999994,None,,,,,,,,,,,,,,,,,,,,,,,,,,,,,,,,,,,54 Sing,001,2022_Sep_22_1328,ProdSingRedoBetween,2021.2.3,59.756611322730976,
42,0,42,0,,,,,,,,,,,,,,,,,,,,,,,,,,1997.9974593999796,None,revolution,29,43,sing,blue,1995.9956020999816,None,None,1995.9956020999816,None,,,,,,,,,,,,,,,,,,,,,,,,,,,,,,,,,,,54 Sing,001,2022_Sep_22_1328,ProdSingRedoBetween,2021.2.3,59.756611322730976,
43,0,43,0,,,,,,,,,,,,,,,,,,,,,,,,,,2000.499812999973,None,still,15,44,sing,yellow,1998.4976420999737,None,None,1998.4976420999737,None,,,,,,,,,,,,,,,,,,,,,,,,,,,,,,,,,,,54 Sing,001,2022_Sep_22_1328,ProdSingRedoBetween,2021.2.3,59.756611322730976,
44,0,44,0,,,,,,,,,,,,,,,,,,,,,,,,,,2003.0191395999864,None,period,11,45,sing,yellow,2001.006389599992,None,None,2001.006389599992,None,,,,,,,,,,,,,,,,,,,,,,,,,,,,,,,,,,,54 Sing,001,2022_Sep_22_1328,ProdSingRedoBetween,2021.2.3,59.756611322730976,
45,0,45,0,,,,,,,,,,,,,,,,,,,,,,,,,,2005.5213454999903,None,block,69,46,sing,red,2003.5196111999976,None,None,2003.5196111999976,None,,,,,,,,,,,,,,,,,,,,,,,,,,,,,,,,,,,54 Sing,001,2022_Sep_22_1328,ProdSingRedoBetween,2021.2.3,59.756611322730976,
46,0,46,0,,,,,,,,,,,,,,,,,,,,,,,,,,2008.0241887999873,None,mayor,52,47,sing,blue,2006.0220701999788,None,None,2006.0220701999788,None,,,,,,,,,,,,,,,,,,,,,,,,,,,,,,,,,,,54 Sing,001,2022_Sep_22_1328,ProdSingRedoBetween,2021.2.3,59.756611322730976,
47,0,47,0,,,,,,,,,,,,,,,,,,,,,,,,,,2010.5264695999795,None,cover,50,48,sing,blue,2008.526881400001,None,None,2008.526881400001,None,,,,,,,,,,,,,,,,,,,,,,,,,,,,,,,,,,,54 Sing,001,2022_Sep_22_1328,ProdSingRedoBetween,2021.2.3,59.756611322730976,
48,0,48,0,,,,,,,,,,,,,,,,,,,,,,,,,,2013.045859099977,None,strength,72,49,sing,red,2011.0363228999777,None,None,2011.0363228999777,None,,,,,,,,,,,,,,,,,,,,,,,,,,,,,,,,,,,54 Sing,001,2022_Sep_22_1328,ProdSingRedoBetween,2021.2.3,59.756611322730976,
49,0,49,0,,,,,,,,,,,,,,,,,,,,,,,,,,2015.5483510999766,None,close,3,50,sing,yellow,2013.5463768999907,None,None,2013.5463768999907,None,,,,,,,,,,,,,,,,,,,,,,,,,,,,,,,,,,,54 Sing,001,2022_Sep_22_1328,ProdSingRedoBetween,2021.2.3,59.756611322730976,
50,0,50,0,,,,,,,,,,,,,,,,,,,,,,,,,,2018.0509197999781,None,minor,42,51,sing,blue,2016.0513838999905,None,None,2016.0513838999905,None,,,,,,,,,,,,,,,,,,,,,,,,,,,,,,,,,,,54 Sing,001,2022_Sep_22_1328,ProdSingRedoBetween,2021.2.3,59.756611322730976,
51,0,51,0,,,,,,,,,,,,,,,,,,,,,,,,,,2020.569865699974,None,mechanical,12,52,sing,yellow,2018.555719099997,None,None,2018.555719099997,None,,,,,,,,,,,,,,,,,,,,,,,,,,,,,,,,,,,54 Sing,001,2022_Sep_22_1328,ProdSingRedoBetween,2021.2.3,59.756611322730976,
52,0,52,0,,,,,,,,,,,,,,,,,,,,,,,,,,2023.0723559999897,None,evidence,30,53,sing,blue,2021.07050479998,None,None,2021.07050479998,None,,,,,,,,,,,,,,,,,,,,,,,,,,,,,,,,,,,54 Sing,001,2022_Sep_22_1328,ProdSingRedoBetween,2021.2.3,59.756611322730976,
53,0,53,0,,,,,,,,,,,,,,,,,,,,,,,,,,2025.5915557999979,None,discovery,0,54,sing,yellow,2023.5786972999922,None,None,2023.5786972999922,None,,,,,,,,,,,,,,,,,,,,,,,,,,,,,,,,,,,54 Sing,001,2022_Sep_22_1328,ProdSingRedoBetween,2021.2.3,59.756611322730976,
54,0,54,0,,,,,,,,,,,,,,,,,,,,,,,,,,2028.093659599981,None,profession,16,55,sing,yellow,2026.0922422999865,None,None,2026.0922422999865,None,,,,,,,,,,,,,,,,,,,,,,,,,,,,,,,,,,,54 Sing,001,2022_Sep_22_1328,ProdSingRedoBetween,2021.2.3,59.756611322730976,
55,0,55,0,,,,,,,,,,,,,,,,,,,,,,,,,,2030.5967459999956,None,discussion,37,56,sing,blue,2028.5946201999905,None,None,2028.5946201999905,None,,,,,,,,,,,,,,,,,,,,,,,,,,,,,,,,,,,54 Sing,001,2022_Sep_22_1328,ProdSingRedoBetween,2021.2.3,59.756611322730976,
56,0,56,0,,,,,,,,,,,,,,,,,,,,,,,,,,2033.1158724999987,None,finish,22,57,sing,yellow,2031.100953599991,None,None,2031.100953599991,None,,,,,,,,,,,,,,,,,,,,,,,,,,,,,,,,,,,54 Sing,001,2022_Sep_22_1328,ProdSingRedoBetween,2021.2.3,59.756611322730976,
57,0,57,0,,,,,,,,,,,,,,,,,,,,,,,,,,2035.6184415999742,None,place,2,58,sing,yellow,2033.6162069999846,None,None,2033.6162069999846,None,,,,,,,,,,,,,,,,,,,,,,,,,,,,,,,,,,,54 Sing,001,2022_Sep_22_1328,ProdSingRedoBetween,2021.2.3,59.756611322730976,
58,0,58,0,,,,,,,,,,,,,,,,,,,,,,,,,,2038.1375098999997,None,dream,44,59,sing,blue,2036.1233715999988,None,None,2036.1233715999988,None,,,,,,,,,,,,,,,,,,,,,,,,,,,,,,,,,,,54 Sing,001,2022_Sep_22_1328,ProdSingRedoBetween,2021.2.3,59.756611322730976,
59,0,59,0,,,,,,,,,,,,,,,,,,,,,,,,,,2040.6568924999738,None,testimony,60,60,sing,red,2038.6474309999903,None,None,2038.6474309999903,None,,,,,,,,,,,,,,,,,,,,,,,,,,,,,,,,,,,54 Sing,001,2022_Sep_22_1328,ProdSingRedoBetween,2021.2.3,59.756611322730976,
60,0,60,0,,,,,,,,,,,,,,,,,,,,,,,,,,2043.1759055999864,None,rapid,46,61,sing,blue,2041.161499299982,None,None,2041.161499299982,None,,,,,,,,,,,,,,,,,,,,,,,,,,,,,,,,,,,54 Sing,001,2022_Sep_22_1328,ProdSingRedoBetween,2021.2.3,59.756611322730976,
61,0,61,0,,,,,,,,,,,,,,,,,,,,,,,,,,2045.678318499995,None,raise,89,62,sing,red,2043.6762185999833,None,None,2043.6762185999833,None,,,,,,,,,,,,,,,,,,,,,,,,,,,,,,,,,,,54 Sing,001,2022_Sep_22_1328,ProdSingRedoBetween,2021.2.3,59.756611322730976,
62,0,62,0,,,,,,,,,,,,,,,,,,,,,,,,,,2048.180646099994,None,nation,84,63,sing,red,2046.1806434999744,None,None,2046.1806434999744,None,,,,,,,,,,,,,,,,,,,,,,,,,,,,,,,,,,,54 Sing,001,2022_Sep_22_1328,ProdSingRedoBetween,2021.2.3,59.756611322730976,
63,0,63,0,,,,,,,,,,,,,,,,,,,,,,,,,,2050.700037499977,None,division,70,64,sing,red,2048.688584699994,None,None,2048.688584699994,None,,,,,,,,,,,,,,,,,,,,,,,,,,,,,,,,,,,54 Sing,001,2022_Sep_22_1328,ProdSingRedoBetween,2021.2.3,59.756611322730976,
64,0,64,0,,,,,,,,,,,,,,,,,,,,,,,,,,2053.2023965999833,None,broke,10,65,sing,yellow,2051.203647199989,None,None,2051.203647199989,None,,,,,,,,,,,,,,,,,,,,,,,,,,,,,,,,,,,54 Sing,001,2022_Sep_22_1328,ProdSingRedoBetween,2021.2.3,59.756611322730976,
65,0,65,0,,,,,,,,,,,,,,,,,,,,,,,,,,2055.721904199978,None,gesture,56,66,sing,blue,2053.7088101999834,None,None,2053.7088101999834,None,,,,,,,,,,,,,,,,,,,,,,,,,,,,,,,,,,,54 Sing,001,2022_Sep_22_1328,ProdSingRedoBetween,2021.2.3,59.756611322730976,
66,0,66,0,,,,,,,,,,,,,,,,,,,,,,,,,,2058.2242361999815,None,touch,82,67,sing,red,2056.222192599991,None,None,2056.222192599991,None,,,,,,,,,,,,,,,,,,,,,,,,,,,,,,,,,,,54 Sing,001,2022_Sep_22_1328,ProdSingRedoBetween,2021.2.3,59.756611322730976,
67,0,67,0,,,,,,,,,,,,,,,,,,,,,,,,,,2060.7266458999948,None,atmosphere,75,68,sing,red,2058.724618599983,None,None,2058.724618599983,None,,,,,,,,,,,,,,,,,,,,,,,,,,,,,,,,,,,54 Sing,001,2022_Sep_22_1328,ProdSingRedoBetween,2021.2.3,59.756611322730976,
68,0,68,0,,,,,,,,,,,,,,,,,,,,,,,,,,2063.229283599998,None,under,55,69,sing,blue,2061.2297860999824,None,None,2061.2297860999824,None,,,,,,,,,,,,,,,,,,,,,,,,,,,,,,,,,,,54 Sing,001,2022_Sep_22_1328,ProdSingRedoBetween,2021.2.3,59.756611322730976,
69,0,69,0,,,,,,,,,,,,,,,,,,,,,,,,,,2065.748404199985,None,empty,83,70,sing,red,2063.742386400001,None,None,2063.742386400001,None,,,,,,,,,,,,,,,,,,,,,,,,,,,,,,,,,,,54 Sing,001,2022_Sep_22_1328,ProdSingRedoBetween,2021.2.3,59.756611322730976,
70,0,70,0,,,,,,,,,,,,,,,,,,,,,,,,,,2068.250992299989,None,patient,49,71,sing,blue,2066.2487371999887,None,None,2066.2487371999887,None,,,,,,,,,,,,,,,,,,,,,,,,,,,,,,,,,,,54 Sing,001,2022_Sep_22_1328,ProdSingRedoBetween,2021.2.3,59.756611322730976,
71,0,71,0,,,,,,,,,,,,,,,,,,,,,,,,,,2070.7700315999973,None,accident,77,72,sing,red,2068.7558351999905,None,None,2068.7558351999905,None,,,,,,,,,,,,,,,,,,,,,,,,,,,,,,,,,,,54 Sing,001,2022_Sep_22_1328,ProdSingRedoBetween,2021.2.3,59.756611322730976,
72,0,72,0,,,,,,,,,,,,,,,,,,,,,,,,,,2073.2725041999947,None,session,33,73,sing,blue,2071.270610399981,None,None,2071.270610399981,None,,,,,,,,,,,,,,,,,,,,,,,,,,,,,,,,,,,54 Sing,001,2022_Sep_22_1328,ProdSingRedoBetween,2021.2.3,59.756611322730976,
73,0,73,0,,,,,,,,,,,,,,,,,,,,,,,,,,2075.791722999973,None,country,41,74,sing,blue,2073.7792303999886,None,None,2073.7792303999886,None,,,,,,,,,,,,,,,,,,,,,,,,,,,,,,,,,,,54 Sing,001,2022_Sep_22_1328,ProdSingRedoBetween,2021.2.3,59.756611322730976,
74,0,74,0,,,,,,,,,,,,,,,,,,,,,,,,,,2078.3106711999862,None,measure,54,75,sing,blue,2076.2966748999897,None,None,2076.2966748999897,None,,,,,,,,,,,,,,,,,,,,,,,,,,,,,,,,,,,54 Sing,001,2022_Sep_22_1328,ProdSingRedoBetween,2021.2.3,59.756611322730976,
75,0,75,0,,,,,,,,,,,,,,,,,,,,,,,,,,2080.8134566999797,None,order,18,76,sing,yellow,2078.8114325999923,None,None,2078.8114325999923,None,,,,,,,,,,,,,,,,,,,,,,,,,,,,,,,,,,,54 Sing,001,2022_Sep_22_1328,ProdSingRedoBetween,2021.2.3,59.756611322730976,
76,0,76,0,,,,,,,,,,,,,,,,,,,,,,,,,,2083.3323372000013,None,individual,67,77,sing,red,2081.3176350999856,None,None,2081.3176350999856,None,,,,,,,,,,,,,,,,,,,,,,,,,,,,,,,,,,,54 Sing,001,2022_Sep_22_1328,ProdSingRedoBetween,2021.2.3,59.756611322730976,
77,0,77,0,,,,,,,,,,,,,,,,,,,,,,,,,,2085.8350573999924,None,grade,17,78,sing,yellow,2083.8359161999833,None,None,2083.8359161999833,None,,,,,,,,,,,,,,,,,,,,,,,,,,,,,,,,,,,54 Sing,001,2022_Sep_22_1328,ProdSingRedoBetween,2021.2.3,59.756611322730976,
78,0,78,0,,,,,,,,,,,,,,,,,,,,,,,,,,2088.337539399974,None,character,58,79,sing,blue,2086.335715399997,None,None,2086.335715399997,None,,,,,,,,,,,,,,,,,,,,,,,,,,,,,,,,,,,54 Sing,001,2022_Sep_22_1328,ProdSingRedoBetween,2021.2.3,59.756611322730976,
79,0,79,0,,,,,,,,,,,,,,,,,,,,,,,,,,2090.8400281999784,None,staff,13,80,sing,yellow,2088.838053899992,None,None,2088.838053899992,None,,,,,,,,,,,,,,,,,,,,,,,,,,,,,,,,,,,54 Sing,001,2022_Sep_22_1328,ProdSingRedoBetween,2021.2.3,59.756611322730976,
80,0,80,0,,,,,,,,,,,,,,,,,,,,,,,,,,2093.342413199978,None,husband,19,81,sing,yellow,2091.3416430999932,None,None,2091.3416430999932,None,,,,,,,,,,,,,,,,,,,,,,,,,,,,,,,,,,,54 Sing,001,2022_Sep_22_1328,ProdSingRedoBetween,2021.2.3,59.756611322730976,
81,0,81,0,,,,,,,,,,,,,,,,,,,,,,,,,,2095.861699299974,None,angle,6,82,sing,yellow,2093.8458605999767,None,None,2093.8458605999767,None,,,,,,,,,,,,,,,,,,,,,,,,,,,,,,,,,,,54 Sing,001,2022_Sep_22_1328,ProdSingRedoBetween,2021.2.3,59.756611322730976,
82,0,82,0,,,,,,,,,,,,,,,,,,,,,,,,,,2098.3642813999904,None,tragedy,31,83,sing,blue,2096.3631600999797,None,None,2096.3631600999797,None,,,,,,,,,,,,,,,,,,,,,,,,,,,,,,,,,,,54 Sing,001,2022_Sep_22_1328,ProdSingRedoBetween,2021.2.3,59.756611322730976,
83,0,83,0,,,,,,,,,,,,,,,,,,,,,,,,,,2100.8669264999917,None,agreement,66,84,sing,red,2098.867140699993,None,None,2098.867140699993,None,,,,,,,,,,,,,,,,,,,,,,,,,,,,,,,,,,,54 Sing,001,2022_Sep_22_1328,ProdSingRedoBetween,2021.2.3,59.756611322730976,
84,0,84,0,,,,,,,,,,,,,,,,,,,,,,,,,,2103.369173999992,None,court,28,85,sing,yellow,2101.3683162999805,None,None,2101.3683162999805,None,,,,,,,,,,,,,,,,,,,,,,,,,,,,,,,,,,,54 Sing,001,2022_Sep_22_1328,ProdSingRedoBetween,2021.2.3,59.756611322730976,
85,0,85,0,,,,,,,,,,,,,,,,,,,,,,,,,,2105.8881494999805,None,music,73,86,sing,red,2103.8740886999876,None,None,2103.8740886999876,None,,,,,,,,,,,,,,,,,,,,,,,,,,,,,,,,,,,54 Sing,001,2022_Sep_22_1328,ProdSingRedoBetween,2021.2.3,59.756611322730976,
86,0,86,0,,,,,,,,,,,,,,,,,,,,,,,,,,2108.3909259999928,None,sound,39,87,sing,blue,2106.3886095999915,None,None,2106.3886095999915,None,,,,,,,,,,,,,,,,,,,,,,,,,,,,,,,,,,,54 Sing,001,2022_Sep_22_1328,ProdSingRedoBetween,2021.2.3,59.756611322730976,
87,0,87,0,,,,,,,,,,,,,,,,,,,,,,,,,,2110.8930845999857,None,election,62,88,sing,red,2108.8917673999968,None,None,2108.8917673999968,None,,,,,,,,,,,,,,,,,,,,,,,,,,,,,,,,,,,54 Sing,001,2022_Sep_22_1328,ProdSingRedoBetween,2021.2.3,59.756611322730976,
88,0,88,0,,,,,,,,,,,,,,,,,,,,,,,,,,2113.395948899997,None,portion,7,89,sing,yellow,2111.3939575999975,None,None,2111.3939575999975,None,,,,,,,,,,,,,,,,,,,,,,,,,,,,,,,,,,,54 Sing,001,2022_Sep_22_1328,ProdSingRedoBetween,2021.2.3,59.756611322730976,
89,0,89,0,,,,,,,,,,,,,,,,,,,,,,,,,,2115.8984517999925,None,weather,21,90,sing,yellow,2113.8963730999967,None,None,2113.8963730999967,None,,,,,,,,,,,,,,,,,,,,,,,,,,,,,,,,,,,54 Sing,001,2022_Sep_22_1328,ProdSingRedoBetween,2021.2.3,59.756611322730976,
,,,,,,,,,,,,,,,,,,,,,,,,,,,,,,,,,,,,,,,,,2116.398963799991,None,k,155.9737907999952,2116.398963799991,None,,,,,,,,,,,,,,,,,,,,,,,,,,,,,54 Sing,001,2022_Sep_22_1328,ProdSingRedoBetween,2021.2.3,59.756611322730976,
,,,,0,0,0,0,,,,,,,,,,,,,,,,,,,,,,2284.566630299989,None,,,,,,,,,,,,,,,,,power,68,1,sing,old,red,2272.8941520999942,None,2272.8941520999942,None,6,7.92678100001649,2272.8941520999942,None,7.92678100001649,2280.8558943999815,None,2281.3631460999895,None,2281.3631460999895,None,r,3.185608100000536,2281.3631460999895,None,3.185608100000536,,,54 Sing,001,2022_Sep_22_1328,ProdSingRedoBetween,2021.2.3,59.756611322730976,
,,,,1,0,1,0,,,,,,,,,,,,,,,,,,,,,,2289.438140399987,None,,,,,,,,,,,,,,,,,trial,172,2,sing,new,null,2285.0749009999854,None,2285.0749009999854,None,6,2.5300181999919005,2285.0749009999854,None,2.5300181999919005,2287.639294599998,None,2288.1536845999944,None,2288.1536845999944,None,r,1.2590152000193484,2288.1536845999944,None,1.2590152000193484,,,54 Sing,001,2022_Sep_22_1328,ProdSingRedoBetween,2021.2.3,59.756611322730976,
,,,,2,0,2,0,,,,,,,,,,,,,,,,,,,,,,2295.727713100001,None,,,,,,,,,,,,,,,,,service,76,3,sing,old,red,2289.9495812999958,None,2289.9495812999958,None,6,3.807202199997846,2289.9495812999958,None,3.807202199997846,2293.786355999997,None,2294.293078799994,None,2294.293078799994,None,r,1.4157564000051934,2294.293078799994,None,1.4157564000051934,,,54 Sing,001,2022_Sep_22_1328,ProdSingRedoBetween,2021.2.3,59.756611322730976,
,,,,3,0,3,0,,,,,,,,,,,,,,,,,,,,,,2301.6001786999987,None,,,,,,,,,,,,,,,,,swift,108,4,sing,new,null,2296.239874299994,None,2296.239874299994,None,1,2.5967964000010397,2296.239874299994,None,2.5967964000010397,2298.868833299988,None,2299.3870648999873,None,2299.3870648999873,None,n,2.1937016999872867,2299.3870648999873,None,2.1937016999872867,,,54 Sing,001,2022_Sep_22_1328,ProdSingRedoBetween,2021.2.3,59.756611322730976,
,,,,4,0,4,0,,,,,,,,,,,,,,,,,,,,,,2305.5875233999977,None,,,,,,,,,,,,,,,,,region,53,5,sing,old,blue,2302.104898699996,None,2302.104898699996,None,6,1.907866199995624,2302.104898699996,None,1.907866199995624,2304.037181499996,None,2304.5420273999916,None,2304.5420273999916,None,r,1.0307330000214279,2304.5420273999916,None,1.0307330000214279,,,54 Sing,001,2022_Sep_22_1328,ProdSingRedoBetween,2021.2.3,59.756611322730976,
,,,,5,0,5,0,,,,,,,,,,,,,,,,,,,,,,2308.273599099979,None,,,,,,,,,,,,,,,,,minor,42,6,sing,old,blue,2306.0940163999912,None,2306.0940163999912,None,6,1.2627370999834966,2306.0940163999912,None,1.2627370999834966,2307.372453399992,None,2307.8756297999935,None,2307.8756297999935,None,r,0.36913440001080744,2307.8756297999935,None,0.36913440001080744,,,54 Sing,001,2022_Sep_22_1328,ProdSingRedoBetween,2021.2.3,59.756611322730976,
,,,,6,0,6,0,,,,,,,,,,,,,,,,,,,,,,2313.3619703000004,None,,,,,,,,,,,,,,,,,beauty,147,7,sing,new,null,2308.777972699987,None,2308.777972699987,None,1,1.5868368000083137,2308.777972699987,None,1.5868368000083137,2310.400432800001,None,2310.9095091999916,None,2310.9095091999916,None,n,2.4232976000057533,2310.9095091999916,None,2.4232976000057533,,,54 Sing,001,2022_Sep_22_1328,ProdSingRedoBetween,2021.2.3,59.756611322730976,
,,,,7,0,7,0,,,,,,,,,,,,,,,,,,,,,,2318.950631399988,None,,,,,,,,,,,,,,,,,signal,133,8,sing,new,null,2313.872629999998,None,2313.872629999998,None,1,1.9640825999958906,2313.872629999998,None,1.9640825999958906,2315.8643348999904,None,2316.367858999991,None,2316.367858999991,None,n,2.5568652999936603,2316.367858999991,None,2.5568652999936603,,,54 Sing,001,2022_Sep_22_1328,ProdSingRedoBetween,2021.2.3,59.756611322730976,
,,,,8,0,8,0,,,,,,,,,,,,,,,,,,,,,,2327.8606927999936,None,,,,,,,,,,,,,,,,,character,58,9,sing,old,blue,2319.4535093999875,None,2319.4535093999875,None,2,6.383234199980507,2319.4535093999875,None,6.383234199980507,2325.858831199992,None,2326.3622715999954,None,2326.3622715999954,None,f,1.4825230999849737,2326.3622715999954,None,1.4825230999849737,,,54 Sing,001,2022_Sep_22_1328,ProdSingRedoBetween,2021.2.3,59.756611322730976,
,,,,9,0,9,0,,,,,,,,,,,,,,,,,,,,,,2331.379994799994,None,,,,,,,,,,,,,,,,,cousin,165,10,sing,new,null,2328.3663955999946,None,2328.3663955999946,None,1,1.4223081000091042,2328.3663955999946,None,1.4223081000091042,2329.8120649999764,None,2330.3123359999736,None,2330.3123359999736,None,n,1.0524187999835704,2330.3123359999736,None,1.0524187999835704,,,54 Sing,001,2022_Sep_22_1328,ProdSingRedoBetween,2021.2.3,59.756611322730976,
,,,,10,0,10,0,,,,,,,,,,,,,,,,,,,,,,2334.33293959999,None,,,,,,,,,,,,,,,,,fight,57,11,sing,old,blue,2331.8888270999887,None,2331.8888270999887,None,6,1.6199697999982163,2331.8888270999887,None,1.6199697999982163,2333.534305999987,None,2334.052811499976,None,2334.052811499976,None,r,0.2559017000021413,2334.052811499976,None,0.2559017000021413,,,54 Sing,001,2022_Sep_22_1328,ProdSingRedoBetween,2021.2.3,59.756611322730976,
,,,,11,0,11,0,,,,,,,,,,,,,,,,,,,,,,2338.9875470999978,None,,,,,,,,,,,,,,,,,health,112,12,sing,new,null,2334.8399202,None,2334.8399202,None,1,1.420931600005133,2334.8399202,None,1.420931600005133,2336.284828499978,None,2336.785574599984,None,2336.785574599984,None,n,2.1872789000044577,2336.785574599984,None,2.1872789000044577,,,54 Sing,001,2022_Sep_22_1328,ProdSingRedoBetween,2021.2.3,59.756611322730976,
,,,,12,0,12,0,,,,,,,,,,,,,,,,,,,,,,2342.1070768999925,None,,,,,,,,,,,,,,,,,pressure,24,13,sing,old,yellow,2339.503940800001,None,2339.503940800001,None,1,1.732753300020704,2339.503940800001,None,1.732753300020704,2341.258147799992,None,2341.7736963999923,None,2341.7736963999923,None,n,0.3030514999991283,2341.7736963999923,None,0.3030514999991283,,,54 Sing,001,2022_Sep_22_1328,ProdSingRedoBetween,2021.2.3,59.756611322730976,
,,,,13,0,13,0,,,,,,,,,,,,,,,,,,,,,,2344.9933461999753,None,,,,,,,,,,,,,,,,,bright,99,14,sing,new,null,2342.6182971999806,None,2342.6182971999806,None,1,1.3463407000235748,2342.6182971999806,None,1.3463407000235748,2343.9939140999923,None,2344.4954466999916,None,2344.4954466999916,None,n,0.4774363999895286,2344.4954466999916,None,0.4774363999895286,,,54 Sing,001,2022_Sep_22_1328,ProdSingRedoBetween,2021.2.3,59.756611322730976,
,,,,14,0,14,0,,,,,,,,,,,,,,,,,,,,,,2348.04661759999,None,,,,,,,,,,,,,,,,,cover,50,15,sing,old,blue,2345.4984243999934,None,2345.4984243999934,None,1,1.7622411000193097,2345.4984243999934,None,1.7622411000193097,2347.2791392999934,None,2347.7796117999824,None,2347.7796117999824,None,n,0.24109610001323745,2347.7796117999824,None,0.24109610001323745,,,54 Sing,001,2022_Sep_22_1328,ProdSingRedoBetween,2021.2.3,59.756611322730976,
,,,,15,0,15,0,,,,,,,,,,,,,,,,,,,,,,2350.8992764999857,None,,,,,,,,,,,,,,,,,write,94,16,sing,new,null,2348.559061099979,None,2348.559061099979,None,1,1.2055723999801558,2348.559061099979,None,1.2055723999801558,2349.7829300999874,None,2350.282346799999,None,2350.282346799999,None,n,0.586269200022798,2350.282346799999,None,0.586269200022798,,,54 Sing,001,2022_Sep_22_1328,ProdSingRedoBetween,2021.2.3,59.756611322730976,
,,,,16,0,16,0,,,,,,,,,,,,,,,,,,,,,,2353.485339499981,None,,,,,,,,,,,,,,,,,rough,158,17,sing,new,null,2351.400263699994,None,2351.400263699994,None,1,0.9403877000149805,2351.400263699994,None,0.9403877000149805,2352.3682589999808,None,2352.8716043999884,None,2352.8716043999884,None,n,0.5890720000024885,2352.8716043999884,None,0.5890720000024885,,,54 Sing,001,2022_Sep_22_1328,ProdSingRedoBetween,2021.2.3,59.756611322730976,
,,,,17,0,17,0,,,,,,,,,,,,,,,,,,,,,,2356.1212900999817,None,,,,,,,,,,,,,,,,,still,15,18,sing,old,yellow,2354.00513819998,None,2354.00513819998,None,1,1.1438373000128195,2354.00513819998,None,1.1438373000128195,2355.1700510999945,None,2355.6708770999976,None,2355.6708770999976,None,n,0.42180179999559186,2355.6708770999976,None,0.42180179999559186,,,54 Sing,001,2022_Sep_22_1328,ProdSingRedoBetween,2021.2.3,59.756611322730976,
,,,,18,0,18,0,,,,,,,,,,,,,,,,,,,,,,2358.5236075999856,None,,,,,,,,,,,,,,,,,birth,124,19,sing,new,null,2356.6295725999807,None,2356.6295725999807,None,1,0.9110530999896582,2356.6295725999807,None,0.9110530999896582,2357.5571347999794,None,2358.0639972999925,None,2358.0639972999925,None,n,0.4365954000095371,2358.0639972999925,None,0.4365954000095371,,,54 Sing,001,2022_Sep_22_1328,ProdSingRedoBetween,2021.2.3,59.756611322730976,
,,,,19,0,19,0,,,,,,,,,,,,,,,,,,,,,,2363.3618964999914,None,,,,,,,,,,,,,,,,,session,33,20,sing,old,blue,2359.0240360999887,None,2359.0240360999887,None,6,2.132643899996765,2359.0240360999887,None,2.132643899996765,2361.178406399995,None,2361.6936348999734,None,2361.6936348999734,None,f,1.6471729000040796,2361.6936348999734,None,1.6471729000040796,,,54 Sing,001,2022_Sep_22_1328,ProdSingRedoBetween,2021.2.3,59.756611322730976,
,,,,20,0,20,0,,,,,,,,,,,,,,,,,,,,,,2367.482574900001,None,,,,,,,,,,,,,,,,,agreement,66,21,sing,old,red,2363.8649805999885,None,2363.8649805999885,None,1,1.7156506000028457,2363.8649805999885,None,1.7156506000028457,2365.5981151000015,None,2366.0982226999768,None,2366.0982226999768,None,f,1.35442210000474,2366.0982226999768,None,1.35442210000474,,,54 Sing,001,2022_Sep_22_1328,ProdSingRedoBetween,2021.2.3,59.756611322730976,
,,,,21,0,21,0,,,,,,,,,,,,,,,,,,,,,,2370.485685099993,None,,,,,,,,,,,,,,,,,owner,117,22,sing,new,null,2367.9893857999996,None,2367.9893857999996,None,1,1.6072736000060104,2367.9893857999996,None,1.6072736000060104,2369.6194875999936,None,2370.118693299999,None,2370.118693299999,None,n,0.35002590002841316,2370.118693299999,None,0.35002590002841316,,,54 Sing,001,2022_Sep_22_1328,ProdSingRedoBetween,2021.2.3,59.756611322730976,
,,,,22,0,22,0,,,,,,,,,,,,,,,,,,,,,,2376.3870493999857,None,,,,,,,,,,,,,,,,,break,125,23,sing,new,null,2370.9872603999975,None,2370.9872603999975,None,2,1.1053256999875885,2370.9872603999975,None,1.1053256999875885,2372.1217928999977,None,2372.6262791999907,None,2372.6262791999907,None,n,3.7306015999929514,2372.6262791999907,None,3.7306015999929514,,,54 Sing,001,2022_Sep_22_1328,ProdSingRedoBetween,2021.2.3,59.756611322730976,
,,,,23,0,23,0,,,,,,,,,,,,,,,,,,,,,,2379.0273466999934,None,,,,,,,,,,,,,,,,,capital,111,24,sing,new,null,2376.89547399999,None,2376.89547399999,None,1,1.3251586999977008,2376.89547399999,None,1.3251586999977008,2378.2490896999952,None,2378.7709212999907,None,2378.7709212999907,None,n,0.23375770001439378,2378.7709212999907,None,0.23375770001439378,,,54 Sing,001,2022_Sep_22_1328,ProdSingRedoBetween,2021.2.3,59.756611322730976,
,,,,24,0,24,0,,,,,,,,,,,,,,,,,,,,,,2383.548629799974,None,,,,,,,,,,,,,,,,,block,69,25,sing,old,red,2379.537684699986,None,2379.537684699986,None,6,2.7228262999851722,2379.537684699986,None,2.7228262999851722,2382.2819170999865,None,2382.7878618999966,None,2382.7878618999966,None,r,0.7367620000150055,2382.7878618999966,None,0.7367620000150055,,,54 Sing,001,2022_Sep_22_1328,ProdSingRedoBetween,2021.2.3,59.756611322730976,
,,,,25,0,25,0,,,,,,,,,,,,,,,,,,,,,,2389.1875059999875,None,,,,,,,,,,,,,,,,,medicine,153,26,sing,new,null,2384.0656804999744,None,2384.0656804999744,None,1,3.2109303000033833,2384.0656804999744,None,3.2109303000033833,2387.30415739998,None,2387.8196784999745,None,2387.8196784999745,None,n,1.3368487000116147,2387.8196784999745,None,1.3368487000116147,,,54 Sing,001,2022_Sep_22_1328,ProdSingRedoBetween,2021.2.3,59.756611322730976,
,,,,26,0,26,0,,,,,,,,,,,,,,,,,,,,,,2397.1328050999728,None,,,,,,,,,,,,,,,,,beginning,85,27,sing,old,red,2389.6955410999944,None,2389.6955410999944,None,1,5.581005099986214,2389.6955410999944,None,5.581005099986214,2395.2949545999872,None,2395.798362099973,None,2395.798362099973,None,n,1.3026135999825783,2395.798362099973,None,1.3026135999825783,,,54 Sing,001,2022_Sep_22_1328,ProdSingRedoBetween,2021.2.3,59.756611322730976,
,,,,27,0,27,0,,,,,,,,,,,,,,,,,,,,,,2402.117145199998,None,,,,,,,,,,,,,,,,,music,73,28,sing,old,red,2397.6525824999844,None,2397.6525824999844,None,6,3.0719269000110216,2397.6525824999844,None,3.0719269000110216,2400.7575408999983,None,2401.266445699992,None,2401.266445699992,None,r,0.8340881000040099,2401.266445699992,None,0.8340881000040099,,,54 Sing,001,2022_Sep_22_1328,ProdSingRedoBetween,2021.2.3,59.756611322730976,
,,,,28,0,28,0,,,,,,,,,,,,,,,,,,,,,,2405.9876904999837,None,,,,,,,,,,,,,,,,,sunset,88,29,sing,old,red,2402.6261055999785,None,2402.6261055999785,None,1,2.122509999986505,2402.6261055999785,None,2.122509999986505,2404.7740577999793,None,2405.290756799979,None,2405.290756799979,None,n,0.6658450999821071,2405.290756799979,None,0.6658450999821071,,,54 Sing,001,2022_Sep_22_1328,ProdSingRedoBetween,2021.2.3,59.756611322730976,
,,,,29,0,29,0,,,,,,,,,,,,,,,,,,,,,,2408.9239218999865,None,,,,,,,,,,,,,,,,,reading,35,30,sing,old,blue,2406.4928449,None,2406.4928449,None,1,1.391769400011981,2406.4928449,None,1.391769400011981,2407.907285399997,None,2408.4122348999954,None,2408.4122348999954,None,n,0.4964548999851104,2408.4122348999954,None,0.4964548999851104,,,54 Sing,001,2022_Sep_22_1328,ProdSingRedoBetween,2021.2.3,59.756611322730976,
,,,,30,0,30,0,,,,,,,,,,,,,,,,,,,,,,2412.0102422999917,None,,,,,,,,,,,,,,,,,staff,13,31,sing,old,yellow,2409.4332285999844,None,2409.4332285999844,None,1,1.5792285999923479,2409.4332285999844,None,1.5792285999923479,2411.043386699981,None,2411.5436140999955,None,2411.5436140999955,None,n,0.43688249998376705,2411.5436140999955,None,0.43688249998376705,,,54 Sing,001,2022_Sep_22_1328,ProdSingRedoBetween,2021.2.3,59.756611322730976,
,,,,31,0,31,0,,,,,,,,,,,,,,,,,,,,,,2415.347027299984,None,,,,,,,,,,,,,,,,,community,156,32,sing,new,null,2412.523683199979,None,2412.523683199979,None,1,1.8731540000007953,2412.523683199979,None,1.8731540000007953,2414.4179339999973,None,2414.929964299983,None,2414.929964299983,None,f,0.3946298999944702,2414.929964299983,None,0.3946298999944702,,,54 Sing,001,2022_Sep_22_1328,ProdSingRedoBetween,2021.2.3,59.756611322730976,
,,,,32,0,32,0,,,,,,,,,,,,,,,,,,,,,,2417.849442499981,None,,,,,,,,,,,,,,,,,blind,104,33,sing,new,null,2415.8586734999844,None,2415.8586734999844,None,1,1.137879800022347,2415.8586734999844,None,1.137879800022347,2417.015474899992,None,2417.5159110999957,None,2417.5159110999957,None,n,0.312521400017431,2417.5159110999957,None,0.312521400017431,,,54 Sing,001,2022_Sep_22_1328,ProdSingRedoBetween,2021.2.3,59.756611322730976,
,,,,33,0,33,0,,,,,,,,,,,,,,,,,,,,,,2421.519813799998,None,,,,,,,,,,,,,,,,,right,9,34,sing,old,yellow,2418.349916099978,None,2418.349916099978,None,1,2.0706014999886975,2418.349916099978,None,2.0706014999886975,2420.4520794999844,None,2420.952722099988,None,2420.952722099988,None,n,0.539801200007787,2420.952722099988,None,0.539801200007787,,,54 Sing,001,2022_Sep_22_1328,ProdSingRedoBetween,2021.2.3,59.756611322730976,
,,,,34,0,34,0,,,,,,,,,,,,,,,,,,,,,,2424.4561163999897,None,,,,,,,,,,,,,,,,,minute,171,35,sing,new,null,2422.03011599998,None,2422.03011599998,None,1,1.5504431999870576,2422.03011599998,None,1.5504431999870576,2423.606269199983,None,2424.1107023999793,None,2424.1107023999793,None,n,0.3179128999763634,2424.1107023999793,None,0.3179128999763634,,,54 Sing,001,2022_Sep_22_1328,ProdSingRedoBetween,2021.2.3,59.756611322730976,
,,,,35,0,35,0,,,,,,,,,,,,,,,,,,,,,,2430.128431399993,None,,,,,,,,,,,,,,,,,question,38,36,sing,old,blue,2424.961352699989,None,2424.961352699989,None,6,2.875084900006186,2424.961352699989,None,2.875084900006186,2427.8602972999797,None,2428.36072159998,None,2428.36072159998,None,f,1.7478226000093855,2428.36072159998,None,1.7478226000093855,,,54 Sing,001,2022_Sep_22_1328,ProdSingRedoBetween,2021.2.3,59.756611322730976,
,,,,36,0,36,0,,,,,,,,,,,,,,,,,,,,,,2435.3358459999727,None,,,,,,,,,,,,,,,,,light,14,37,sing,old,yellow,2430.6372143999906,None,2430.6372143999906,None,3,2.6154361000226345,2430.6372143999906,None,2.6154361000226345,2433.282313899981,None,2433.786647000001,None,2433.786647000001,None,f,1.5220449000189546,2433.786647000001,None,1.5220449000189546,,,54 Sing,001,2022_Sep_22_1328,ProdSingRedoBetween,2021.2.3,59.756611322730976,
,,,,37,0,37,0,,,,,,,,,,,,,,,,,,,,,,2439.404362799978,None,,,,,,,,,,,,,,,,,portion,7,38,sing,old,yellow,2435.8692443999753,None,2435.8692443999753,None,3,2.511520500003826,2435.8692443999753,None,2.511520500003826,2438.404990799987,None,2438.908485699998,None,2438.908485699998,None,f,0.47233439999399707,2438.908485699998,None,0.47233439999399707,,,54 Sing,001,2022_Sep_22_1328,ProdSingRedoBetween,2021.2.3,59.756611322730976,
,,,,38,0,38,0,,,,,,,,,,,,,,,,,,,,,,2442.6588533999748,None,,,,,,,,,,,,,,,,,error,143,39,sing,new,null,2439.905949099979,None,2439.905949099979,None,1,1.8747384999878705,2439.905949099979,None,1.8747384999878705,2441.8138347999775,None,2442.324078399979,None,2442.324078399979,None,n,0.31298200000310317,2442.324078399979,None,0.31298200000310317,,,54 Sing,001,2022_Sep_22_1328,ProdSingRedoBetween,2021.2.3,59.756611322730976,
,,,,39,0,39,0,,,,,,,,,,,,,,,,,,,,,,2446.244558299979,None,,,,,,,,,,,,,,,,,measure,54,40,sing,old,blue,2443.158061199996,None,2443.158061199996,None,1,2.190469400025904,2443.158061199996,None,2.190469400025904,2445.3781390999793,None,2445.8887516999966,None,2445.8887516999966,None,n,0.3398635999765247,2445.8887516999966,None,0.3398635999765247,,,54 Sing,001,2022_Sep_22_1328,ProdSingRedoBetween,2021.2.3,59.756611322730976,
,,,,40,0,40,0,,,,,,,,,,,,,,,,,,,,,,2448.863354000001,None,,,,,,,,,,,,,,,,,bitter,132,41,sing,new,null,2446.754594799975,None,2446.754594799975,None,1,1.1938446999993175,2446.754594799975,None,1.1938446999993175,2447.980394399987,None,2448.480160199979,None,2448.480160199979,None,n,0.3562478999956511,2448.480160199979,None,0.3562478999956511,,,54 Sing,001,2022_Sep_22_1328,ProdSingRedoBetween,2021.2.3,59.756611322730976,
,,,,41,0,41,0,,,,,,,,,,,,,,,,,,,,,,2452.0001742999884,None,,,,,,,,,,,,,,,,,nature,93,42,sing,new,null,2449.3643223999825,None,2449.3643223999825,None,1,1.408156500023324,2449.3643223999825,None,1.408156500023324,2450.7998026999994,None,2451.3023259999754,None,2451.3023259999754,None,n,0.6701114999887068,2451.3023259999754,None,0.6701114999887068,,,54 Sing,001,2022_Sep_22_1328,ProdSingRedoBetween,2021.2.3,59.756611322730976,
,,,,42,0,42,0,,,,,,,,,,,,,,,,,,,,,,2456.8385033999803,None,,,,,,,,,,,,,,,,,instrument,149,43,sing,new,null,2452.5008121999854,None,2452.5008121999854,None,6,1.9359086000185926,2452.5008121999854,None,1.9359086000185926,2454.459423399996,None,2454.9764362999995,None,2454.9764362999995,None,r,1.844032299995888,2454.9764362999995,None,1.844032299995888,,,54 Sing,001,2022_Sep_22_1328,ProdSingRedoBetween,2021.2.3,59.756611322730976,
,,,,43,0,43,0,,,,,,,,,,,,,,,,,,,,,,2459.340895899979,None,,,,,,,,,,,,,,,,,range,115,44,sing,new,null,2457.3388680999924,None,2457.3388680999924,None,1,1.1456373000110034,2457.3388680999924,None,1.1456373000110034,2458.507792999997,None,2459.00809019999,None,2459.00809019999,None,n,0.316424199991161,2459.00809019999,None,0.316424199991161,,,54 Sing,001,2022_Sep_22_1328,ProdSingRedoBetween,2021.2.3,59.756611322730976,
,,,,44,0,44,0,,,,,,,,,,,,,,,,,,,,,,2463.1613548999885,None,,,,,,,,,,,,,,,,,institute,59,45,sing,old,yellow,2459.8440596,None,2459.8440596,None,6,2.392515600018669,2459.8440596,None,2.392515600018669,2462.2698051999905,None,2462.777692099975,None,2462.777692099975,None,r,0.35478219998185523,2462.777692099975,None,0.35478219998185523,,,54 Sing,001,2022_Sep_22_1328,ProdSingRedoBetween,2021.2.3,59.756611322730976,
,,,,45,0,45,0,,,,,,,,,,,,,,,,,,,,,,2467.282156899979,None,,,,,,,,,,,,,,,,,order,18,46,sing,old,yellow,2463.670019299985,None,2463.670019299985,None,3,2.4223977999936324,2463.670019299985,None,2.4223977999936324,2466.114297699998,None,2466.617693899985,None,2466.617693899985,None,f,0.6347805999976117,2466.617693899985,None,0.6347805999976117,,,54 Sing,001,2022_Sep_22_1328,ProdSingRedoBetween,2021.2.3,59.756611322730976,
,,,,46,0,46,0,,,,,,,,,,,,,,,,,,,,,,2469.901429099991,None,,,,,,,,,,,,,,,,,safety,128,47,sing,new,null,2467.786848299991,None,2467.786848299991,None,1,1.2496537000115495,2467.786848299991,None,1.2496537000115495,2469.0707793999754,None,2469.5844885999977,None,2469.5844885999977,None,n,0.29199240001617,2469.5844885999977,None,0.29199240001617,,,54 Sing,001,2022_Sep_22_1328,ProdSingRedoBetween,2021.2.3,59.756611322730976,
,,,,47,0,47,0,,,,,,,,,,,,,,,,,,,,,,2472.8875365999993,None,,,,,,,,,,,,,,,,,production,63,48,sing,old,red,2470.412898599985,None,2470.412898599985,None,1,1.6476726999972016,2470.412898599985,None,1.6476726999972016,2472.08835559999,None,2472.589993499976,None,2472.589993499976,None,n,0.27049080000142567,2472.589993499976,None,0.27049080000142567,,,54 Sing,001,2022_Sep_22_1328,ProdSingRedoBetween,2021.2.3,59.756611322730976,
,,,,48,0,48,0,,,,,,,,,,,,,,,,,,,,,,2475.490042499994,None,,,,,,,,,,,,,,,,,dance,47,49,sing,old,blue,2473.3896884999995,None,2473.3896884999995,None,6,1.2386809999879915,2473.3896884999995,None,1.2386809999879915,2474.6564875999757,None,2475.1571098999993,None,2475.1571098999993,None,r,0.30324710000422783,2475.1571098999993,None,0.30324710000422783,,,54 Sing,001,2022_Sep_22_1328,ProdSingRedoBetween,2021.2.3,59.756611322730976,
,,,,49,0,49,0,,,,,,,,,,,,,,,,,,,,,,2479.579993099993,None,,,,,,,,,,,,,,,,,universal,176,50,sing,new,null,2475.995716799982,None,2475.995716799982,None,2,2.144656099990243,2475.995716799982,None,2.144656099990243,2478.17044669998,None,2478.676587599999,None,2478.676587599999,None,n,0.8720125999825541,2478.676587599999,None,0.8720125999825541,,,54 Sing,001,2022_Sep_22_1328,ProdSingRedoBetween,2021.2.3,59.756611322730976,
,,,,50,0,50,0,,,,,,,,,,,,,,,,,,,,,,2482.280445899989,None,,,,,,,,,,,,,,,,,native,80,51,sing,old,red,2480.095016599982,None,2480.095016599982,None,1,1.2774511000025086,2480.095016599982,None,1.2774511000025086,2481.4003475999925,None,2481.919617699983,None,2481.919617699983,None,n,0.3328963000094518,2481.919617699983,None,0.3328963000094518,,,54 Sing,001,2022_Sep_22_1328,ProdSingRedoBetween,2021.2.3,59.756611322730976,
,,,,51,0,51,0,,,,,,,,,,,,,,,,,,,,,,2486.0007760000008,None,,,,,,,,,,,,,,,,,broke,10,52,sing,old,yellow,2482.7843910999945,None,2482.7843910999945,None,6,2.332036199979484,2482.7843910999945,None,2.332036199979484,2485.135272499989,None,2485.6555823999806,None,2485.6555823999806,None,r,0.31690100001287647,2485.6555823999806,None,0.31690100001287647,,,54 Sing,001,2022_Sep_22_1328,ProdSingRedoBetween,2021.2.3,59.756611322730976,
,,,,52,0,52,0,,,,,,,,,,,,,,,,,,,,,,2488.4365757999767,None,,,,,,,,,,,,,,,,,candidate,126,53,sing,new,null,2486.507026199979,None,2486.507026199979,None,1,1.233427400002256,2486.507026199979,None,1.233427400002256,2487.770050299994,None,2488.2739231000014,None,2488.2739231000014,None,n,0.14641109999502078,2488.2739231000014,None,0.14641109999502078,,,54 Sing,001,2022_Sep_22_1328,ProdSingRedoBetween,2021.2.3,59.756611322730976,
,,,,53,0,53,0,,,,,,,,,,,,,,,,,,,,,,2490.955760299985,None,,,,,,,,,,,,,,,,,pattern,179,54,sing,new,null,2488.946319699986,None,2488.946319699986,None,1,1.1861729999945965,2488.946319699986,None,1.1861729999945965,2490.1607297999726,None,2490.672073099995,None,2490.672073099995,None,n,0.2683637000154704,2490.672073099995,None,0.2683637000154704,,,54 Sing,001,2022_Sep_22_1328,ProdSingRedoBetween,2021.2.3,59.756611322730976,
,,,,54,0,54,0,,,,,,,,,,,,,,,,,,,,,,2493.374827099993,None,,,,,,,,,,,,,,,,,scene,113,55,sing,new,null,2491.4674349999987,None,2491.4674349999987,None,1,1.1129276999854483,2491.4674349999987,None,1.1129276999854483,2492.6093017999956,None,2493.1248990999884,None,2493.1248990999884,None,n,0.23153330001514405,2493.1248990999884,None,0.23153330001514405,,,54 Sing,001,2022_Sep_22_1328,ProdSingRedoBetween,2021.2.3,59.756611322730976,
,,,,55,0,55,0,,,,,,,,,,,,,,,,,,,,,,2495.760516999988,None,,,,,,,,,,,,,,,,,clean,51,56,sing,old,blue,2493.8841878999956,None,2493.8841878999956,None,1,1.0481891999952495,2493.8841878999956,None,1.0481891999952495,2494.9604816999927,None,2495.4633921999775,None,2495.4633921999775,None,n,0.2690379999985453,2495.4633921999775,None,0.2690379999985453,,,54 Sing,001,2022_Sep_22_1328,ProdSingRedoBetween,2021.2.3,59.756611322730976,
,,,,56,0,56,0,,,,,,,,,,,,,,,,,,,,,,2498.9136638999917,None,,,,,,,,,,,,,,,,,alert,79,57,sing,old,red,2496.2698242999904,None,2496.2698242999904,None,1,1.6704794999968726,2496.2698242999904,None,1.6704794999968726,2497.964846399991,None,2498.479972000001,None,2498.479972000001,None,n,0.4125484000251163,2498.479972000001,None,0.4125484000251163,,,54 Sing,001,2022_Sep_22_1328,ProdSingRedoBetween,2021.2.3,59.756611322730976,
,,,,57,0,57,0,,,,,,,,,,,,,,,,,,,,,,2501.54965239999,None,,,,,,,,,,,,,,,,,little,1,58,sing,old,yellow,2499.4236810999864,None,2499.4236810999864,None,6,1.532757800014224,2499.4236810999864,None,1.532757800014224,2500.987528400001,None,2501.4997853999957,None,2501.4997853999957,None,r,0.024801699997624382,2501.4997853999957,None,0.024801699997624382,,,54 Sing,001,2022_Sep_22_1328,ProdSingRedoBetween,2021.2.3,59.756611322730976,
,,,,58,0,58,0,,,,,,,,,,,,,,,,,,,,,,2504.035473199998,None,,,,,,,,,,,,,,,,,smooth,152,59,sing,new,null,2502.0593139999837,None,2502.0593139999837,None,1,1.1371893000032287,2502.0593139999837,None,1.1371893000032287,2503.220865099982,None,2503.7385237999843,None,2503.7385237999843,None,n,0.26591499999631196,2503.7385237999843,None,0.26591499999631196,,,54 Sing,001,2022_Sep_22_1328,ProdSingRedoBetween,2021.2.3,59.756611322730976,
,,,,59,0,59,0,,,,,,,,,,,,,,,,,,,,,,2506.3711314999964,None,,,,,,,,,,,,,,,,,afternoon,167,60,sing,new,null,2504.5391011999745,None,2504.5391011999745,None,1,0.95327329999418,2504.5391011999745,None,0.95327329999418,2505.5212436,None,2506.0249808999943,None,2506.0249808999943,None,n,0.3155026000167709,2506.0249808999943,None,0.3155026000167709,,,54 Sing,001,2022_Sep_22_1328,ProdSingRedoBetween,2021.2.3,59.756611322730976,
,,,,60,0,60,0,,,,,,,,,,,,,,,,,,,,,,2508.9093960999744,None,,,,,,,,,,,,,,,,,concern,34,61,sing,old,blue,2506.874520399986,None,2506.874520399986,None,1,1.1537998999992851,2506.874520399986,None,1.1537998999992851,2508.0594943999895,None,2508.5733896999736,None,2508.5733896999736,None,n,0.3029279000184033,2508.5733896999736,None,0.3029279000184033,,,54 Sing,001,2022_Sep_22_1328,ProdSingRedoBetween,2021.2.3,59.756611322730976,
,,,,61,0,61,0,,,,,,,,,,,,,,,,,,,,,,2511.759688899998,None,,,,,,,,,,,,,,,,,course,121,62,sing,new,null,2509.424304999993,None,2509.424304999993,None,1,1.660093099984806,2509.424304999993,None,1.660093099984806,2511.109184000001,None,2511.6158124999783,None,2511.6158124999783,None,n,0.11651600000914186,2511.6158124999783,None,0.11651600000914186,,,54 Sing,001,2022_Sep_22_1328,ProdSingRedoBetween,2021.2.3,59.756611322730976,
,,,,62,0,62,0,,,,,,,,,,,,,,,,,,,,,,2514.5623944999825,None,,,,,,,,,,,,,,,,,discovery,0,63,sing,old,yellow,2512.272918199975,None,2512.272918199975,None,1,1.4354706000012811,2512.272918199975,None,1.4354706000012811,2513.7312938999967,None,2514.256086199981,None,2514.256086199981,None,n,0.2763487000192981,2514.256086199981,None,0.2763487000192981,,,54 Sing,001,2022_Sep_22_1328,ProdSingRedoBetween,2021.2.3,59.756611322730976,
,,,,63,0,63,0,,,,,,,,,,,,,,,,,,,,,,2518.651931999979,None,,,,,,,,,,,,,,,,,mayor,52,64,sing,old,blue,2515.0665483999765,None,2515.0665483999765,None,2,1.8418640999880154,2515.0665483999765,None,1.8418640999880154,2516.9331062999845,None,2517.4538953999872,None,2517.4538953999872,None,n,1.16660209998372,2517.4538953999872,None,1.16660209998372,,,54 Sing,001,2022_Sep_22_1328,ProdSingRedoBetween,2021.2.3,59.756611322730976,
,,,,64,0,64,0,,,,,,,,,,,,,,,,,,,,,,2521.7695804999967,None,,,,,,,,,,,,,,,,,point,86,65,sing,old,red,2519.1812051000015,None,2519.1812051000015,None,2,1.7111569000117015,2519.1812051000015,None,1.7111569000117015,2520.9203959000006,None,2521.4405071999936,None,2521.4405071999936,None,n,0.29993340000510216,2521.4405071999936,None,0.29993340000510216,,,54 Sing,001,2022_Sep_22_1328,ProdSingRedoBetween,2021.2.3,59.756611322730976,
,,,,65,0,65,0,,,,,,,,,,,,,,,,,,,,,,2527.5922655999893,None,,,,,,,,,,,,,,,,,working,90,66,sing,new,null,2522.2753554999945,None,2522.2753554999945,None,1,2.5209397000144236,2522.2753554999945,None,2.5209397000144236,2524.8290623999783,None,2525.340364499978,None,2525.340364499978,None,n,2.2320155999914277,2525.340364499978,None,2.2320155999914277,,,54 Sing,001,2022_Sep_22_1328,ProdSingRedoBetween,2021.2.3,59.756611322730976,
,,,,66,0,66,0,,,,,,,,,,,,,,,,,,,,,,2530.596286499989,None,,,,,,,,,,,,,,,,,majority,168,67,sing,new,null,2528.1140279999818,None,2528.1140279999818,None,1,1.610421099991072,2528.1140279999818,None,1.610421099991072,2529.7525202999823,None,2530.272010799992,None,2530.272010799992,None,n,0.2923566999961622,2530.272010799992,None,0.2923566999961622,,,54 Sing,001,2022_Sep_22_1328,ProdSingRedoBetween,2021.2.3,59.756611322730976,
,,,,67,0,67,0,,,,,,,,,,,,,,,,,,,,,,2533.0502733999747,None,,,,,,,,,,,,,,,,,silence,87,68,sing,old,red,2531.1022817999765,None,2531.1022817999765,None,1,1.1100563999789301,2531.1022817999765,None,1.1100563999789301,2532.2303957999975,None,2532.7308142999827,None,2532.7308142999827,None,n,0.2978253999899607,2532.7308142999827,None,0.2978253999899607,,,54 Sing,001,2022_Sep_22_1328,ProdSingRedoBetween,2021.2.3,59.756611322730976,
,,,,68,0,68,0,,,,,,,,,,,,,,,,,,,,,,2537.4354132000008,None,,,,,,,,,,,,,,,,,short,114,69,sing,new,null,2533.565319699992,None,2533.565319699992,None,2,2.5271847999829333,2533.565319699992,None,2.5271847999829333,2536.12766139998,None,2536.6347365999827,None,2536.6347365999827,None,n,0.785633899999084,2536.6347365999827,None,0.785633899999084,,,54 Sing,001,2022_Sep_22_1328,ProdSingRedoBetween,2021.2.3,59.756611322730976,
,,,,69,0,69,0,,,,,,,,,,,,,,,,,,,,,,2539.971271199989,None,,,,,,,,,,,,,,,,,south,100,70,sing,new,null,2537.9417813999753,None,2537.9417813999753,None,1,1.206435900006909,2537.9417813999753,None,1.206435900006909,2539.1731263999827,None,2539.687777599989,None,2539.687777599989,None,n,0.2526200999855064,2539.687777599989,None,0.2526200999855064,,,54 Sing,001,2022_Sep_22_1328,ProdSingRedoBetween,2021.2.3,59.756611322730976,
,,,,70,0,70,0,,,,,,,,,,,,,,,,,,,,,,2542.807509999984,None,,,,,,,,,,,,,,,,,management,155,71,sing,new,null,2540.479418299976,None,2540.479418299976,None,1,1.412830799992662,2540.479418299976,None,1.412830799992662,2541.924161699979,None,2542.423954400001,None,2542.423954400001,None,n,0.35646579999593087,2542.423954400001,None,0.35646579999593087,,,54 Sing,001,2022_Sep_22_1328,ProdSingRedoBetween,2021.2.3,59.756611322730976,
,,,,71,0,71,0,,,,,,,,,,,,,,,,,,,,,,2546.5973166999756,None,,,,,,,,,,,,,,,,,symbol,43,72,sing,old,blue,2543.319770799979,None,2543.319770799979,None,1,2.404624499991769,2543.319770799979,None,2.404624499991769,2545.7453828,None,2546.2654791999958,None,2546.2654791999958,None,n,0.2991346000053454,2546.2654791999958,None,0.2991346000053454,,,54 Sing,001,2022_Sep_22_1328,ProdSingRedoBetween,2021.2.3,59.756611322730976,
,,,,72,0,72,0,,,,,,,,,,,,,,,,,,,,,,2549.1135452999733,None,,,,,,,,,,,,,,,,,season,138,73,sing,new,null,2547.1199816000008,None,2547.1199816000008,None,1,1.0123621000093408,2547.1199816000008,None,1.0123621000093408,2548.1639424999885,None,2548.6682948999805,None,2548.6682948999805,None,n,0.42410680002649315,2548.6682948999805,None,0.42410680002649315,,,54 Sing,001,2022_Sep_22_1328,ProdSingRedoBetween,2021.2.3,59.756611322730976,
,,,,73,0,73,0,,,,,,,,,,,,,,,,,,,,,,2554.8025633999787,None,,,,,,,,,,,,,,,,,committee,81,74,sing,old,red,2549.6285641999857,None,2549.6285641999857,None,5,3.2877521000045817,2549.6285641999857,None,3.2877521000045817,2552.9354174999753,None,2553.4374768999987,None,2553.4374768999987,None,f,1.3428939000004902,2553.4374768999987,None,1.3428939000004902,,,54 Sing,001,2022_Sep_22_1328,ProdSingRedoBetween,2021.2.3,59.756611322730976,
,,,,74,0,74,0,,,,,,,,,,,,,,,,,,,,,,2558.2561704999825,None,,,,,,,,,,,,,,,,,object,161,75,sing,new,null,2555.316180099995,None,2555.316180099995,None,3,2.0400593999947887,2555.316180099995,None,2.0400593999947887,2557.373441599979,None,2557.8760018999747,None,2557.8760018999747,None,f,0.3522794999880716,2557.8760018999747,None,0.3522794999880716,,,54 Sing,001,2022_Sep_22_1328,ProdSingRedoBetween,2021.2.3,59.756611322730976,
,,,,75,0,75,0,,,,,,,,,,,,,,,,,,,,,,2562.3600461999886,None,,,,,,,,,,,,,,,,,expansion,5,76,sing,old,yellow,2558.7672056999872,None,2558.7672056999872,None,6,2.3891110999975353,2558.7672056999872,None,2.3891110999975353,2561.1801434999797,None,2561.6930678999925,None,2561.6930678999925,None,r,0.6392899999918882,2561.6930678999925,None,0.6392899999918882,,,54 Sing,001,2022_Sep_22_1328,ProdSingRedoBetween,2021.2.3,59.756611322730976,
,,,,76,0,76,0,,,,,,,,,,,,,,,,,,,,,,2566.3142103999853,None,,,,,,,,,,,,,,,,,piece,64,77,sing,old,red,2562.8653332999966,None,2562.8653332999966,None,1,2.6430453000066336,2562.8653332999966,None,2.6430453000066336,2565.5355109999946,None,2566.0475495999854,None,2566.0475495999854,None,n,0.23681079997913912,2566.0475495999854,None,0.23681079997913912,,,54 Sing,001,2022_Sep_22_1328,ProdSingRedoBetween,2021.2.3,59.756611322730976,
,,,,77,0,77,0,,,,,,,,,,,,,,,,,,,,,,2569.7843576000014,None,,,,,,,,,,,,,,,,,tough,109,78,sing,new,null,2566.8193584999826,None,2566.8193584999826,None,3,2.072857399994973,2566.8193584999826,None,2.072857399994973,2568.9230277999886,None,2569.433944999997,None,2569.433944999997,None,f,0.33035169998765923,2569.433944999997,None,0.33035169998765923,,,54 Sing,001,2022_Sep_22_1328,ProdSingRedoBetween,2021.2.3,59.756611322730976,
,,,,78,0,78,0,,,,,,,,,,,,,,,,,,,,,,2572.386811399978,None,,,,,,,,,,,,,,,,,split,98,79,sing,new,null,2570.2956330000015,None,2570.2956330000015,None,1,1.23676119997981,2570.2956330000015,None,1.23676119997981,2571.5585708,None,2572.070226199983,None,2572.070226199983,None,n,0.2941360000113491,2572.070226199983,None,0.2941360000113491,,,54 Sing,001,2022_Sep_22_1328,ProdSingRedoBetween,2021.2.3,59.756611322730976,
,,,,79,0,79,0,,,,,,,,,,,,,,,,,,,,,,2576.7412251999776,None,,,,,,,,,,,,,,,,,tragedy,31,80,sing,old,blue,2572.8991796999762,None,2572.8991796999762,None,6,3.01710169998114,2572.8991796999762,None,3.01710169998114,2575.9416527999856,None,2576.4409373999806,None,2576.4409373999806,None,r,0.2755313999950886,2576.4409373999806,None,0.2755313999950886,,,54 Sing,001,2022_Sep_22_1328,ProdSingRedoBetween,2021.2.3,59.756611322730976,
,,,,80,0,80,0,,,,,,,,,,,,,,,,,,,,,,2580.0110165999795,None,,,,,,,,,,,,,,,,,exchange,123,81,sing,new,null,2577.245472599985,None,2577.245472599985,None,1,1.7268589999875985,2577.245472599985,None,1.7268589999875985,2578.999869099993,None,2579.510842399992,None,2579.510842399992,None,n,0.46947939999517985,2579.510842399992,None,0.46947939999517985,,,54 Sing,001,2022_Sep_22_1328,ProdSingRedoBetween,2021.2.3,59.756611322730976,
,,,,81,0,81,0,,,,,,,,,,,,,,,,,,,,,,2583.4980849999993,None,,,,,,,,,,,,,,,,,strength,72,82,sing,old,red,2580.5152325999807,None,2580.5152325999807,None,6,2.1530708000063896,2580.5152325999807,None,2.1530708000063896,2582.698300899996,None,2583.204984299984,None,2583.204984299984,None,r,0.27131090001785196,2583.204984299984,None,0.27131090001785196,,,54 Sing,001,2022_Sep_22_1328,ProdSingRedoBetween,2021.2.3,59.756611322730976,
,,,,82,0,82,0,,,,,,,,,,,,,,,,,,,,,,2590.7885731999995,None,,,,,,,,,,,,,,,,,nation,84,83,sing,old,red,2584.0044579999812,None,2584.0044579999812,None,3,5.391697099985322,2584.0044579999812,None,5.391697099985322,2589.4209503999737,None,2589.921096099977,None,2589.921096099977,None,f,0.8511172000144143,2589.921096099977,None,0.8511172000144143,,,54 Sing,001,2022_Sep_22_1328,ProdSingRedoBetween,2021.2.3,59.756611322730976,
,,,,83,0,83,0,,,,,,,,,,,,,,,,,,,,,,2594.859340099996,None,,,,,,,,,,,,,,,,,court,28,84,sing,old,yellow,2591.295645699982,None,2591.295645699982,None,3,2.7406258000119124,2591.295645699982,None,2.7406258000119124,2594.0595955999743,None,2594.566478199995,None,2594.566478199995,None,f,0.2697986999992281,2594.566478199995,None,0.2697986999992281,,,54 Sing,001,2022_Sep_22_1328,ProdSingRedoBetween,2021.2.3,59.756611322730976,
,,,,84,0,84,0,,,,,,,,,,,,,,,,,,,,,,2599.8477510999946,None,,,,,,,,,,,,,,,,,career,95,85,sing,new,null,2595.377192099986,None,2595.377192099986,None,1,2.9309742000186816,2595.377192099986,None,2.9309742000186816,2598.335448799975,None,2598.846530299983,None,2598.846530299983,None,n,0.9736777000071015,2598.846530299983,None,0.9736777000071015,,,54 Sing,001,2022_Sep_22_1328,ProdSingRedoBetween,2021.2.3,59.756611322730976,
,,,,85,0,85,0,,,,,,,,,,,,,,,,,,,,,,2605.6868822999822,None,,,,,,,,,,,,,,,,,country,41,86,sing,old,blue,2600.356795299973,None,2600.356795299973,None,1,2.471411700011231,2600.356795299973,None,2.471411700011231,2602.8585171999875,None,2603.367930699984,None,2603.367930699984,None,r,2.292445500002941,2603.367930699984,None,2.292445500002941,,,54 Sing,001,2022_Sep_22_1328,ProdSingRedoBetween,2021.2.3,59.756611322730976,
,,,,86,0,86,0,,,,,,,,,,,,,,,,,,,,,,2609.1236051000014,None,,,,,,,,,,,,,,,,,build,120,87,sing,new,null,2606.206496799976,None,2606.206496799976,None,1,1.829745199996978,2606.206496799976,None,1.829745199996978,2608.0556120999972,None,2608.560869499983,None,2608.560869499983,None,n,0.5393625000142492,2608.560869499983,None,0.5393625000142492,,,54 Sing,001,2022_Sep_22_1328,ProdSingRedoBetween,2021.2.3,59.756611322730976,
,,,,87,0,87,0,,,,,,,,,,,,,,,,,,,,,,2612.9441115999944,None,,,,,,,,,,,,,,,,,notice,36,88,sing,old,blue,2609.627776999987,None,2609.627776999987,None,2,2.4564769999997225,2609.627776999987,None,2.4564769999997225,2612.111658299982,None,2612.6293422999734,None,2612.6293422999734,None,n,0.28682549999211915,2612.6293422999734,None,0.28682549999211915,,,54 Sing,001,2022_Sep_22_1328,ProdSingRedoBetween,2021.2.3,59.756611322730976,
,,,,88,0,88,0,,,,,,,,,,,,,,,,,,,,,,2616.2641011999804,None,,,,,,,,,,,,,,,,,division,70,89,sing,old,red,2613.4563349999953,None,2613.4563349999953,None,6,1.7318876000063028,2613.4563349999953,None,1.7318876000063028,2615.2167244999728,None,2615.7335942999925,None,2615.7335942999925,None,r,0.510635699989507,2615.7335942999925,None,0.510635699989507,,,54 Sing,001,2022_Sep_22_1328,ProdSingRedoBetween,2021.2.3,59.756611322730976,
,,,,89,0,89,0,,,,,,,,,,,,,,,,,,,,,,2618.8833683999837,None,,,,,,,,,,,,,,,,,household,178,90,sing,new,null,2616.7649322999932,None,2616.7649322999932,None,1,1.1432969000015873,2616.7649322999932,None,1.1432969000015873,2617.933657699992,None,2618.439244599984,None,2618.439244599984,None,n,0.42110149998916313,2618.439244599984,None,0.42110149998916313,,,54 Sing,001,2022_Sep_22_1328,ProdSingRedoBetween,2021.2.3,59.756611322730976,
,,,,90,0,90,0,,,,,,,,,,,,,,,,,,,,,,2621.536052099982,None,,,,,,,,,,,,,,,,,skill,145,91,sing,new,null,2619.399062499986,None,2619.399062499986,None,1,1.285078999993857,2619.399062499986,None,1.285078999993857,2620.703117500001,None,2621.2147062000004,None,2621.2147062000004,None,n,0.2934926000016276,2621.2147062000004,None,0.2934926000016276,,,54 Sing,001,2022_Sep_22_1328,ProdSingRedoBetween,2021.2.3,59.756611322730976,
,,,,91,0,91,0,,,,,,,,,,,,,,,,,,,,,,2623.8715458999795,None,,,,,,,,,,,,,,,,,author,160,92,sing,new,null,2622.042535399989,None,2622.042535399989,None,1,1.0256712999835145,2622.042535399989,None,1.0256712999835145,2623.0885903999733,None,2623.5958461999835,None,2623.5958461999835,None,n,0.25639009999576956,2623.5958461999835,None,0.25639009999576956,,,54 Sing,001,2022_Sep_22_1328,ProdSingRedoBetween,2021.2.3,59.756611322730976,
,,,,92,0,92,0,,,,,,,,,,,,,,,,,,,,,,2626.691158199974,None,,,,,,,,,,,,,,,,,marriage,71,93,sing,old,red,2624.3721907,None,2624.3721907,None,6,1.4399776000063866,2624.3721907,None,1.4399776000063866,2625.8422875999822,None,2626.3578406999877,None,2626.3578406999877,None,r,0.31046070001320913,2626.3578406999877,None,0.31046070001320913,,,54 Sing,001,2022_Sep_22_1328,ProdSingRedoBetween,2021.2.3,59.756611322730976,
,,,,93,0,93,0,,,,,,,,,,,,,,,,,,,,,,2629.4947901999985,None,,,,,,,,,,,,,,,,,graduate,110,94,sing,new,null,2627.197365,None,2627.197365,None,1,1.5507214000099339,2627.197365,None,1.5507214000099339,2628.780143799988,None,2629.293520099978,None,2629.293520099978,None,n,0.18268200001330115,2629.293520099978,None,0.18268200001330115,,,54 Sing,001,2022_Sep_22_1328,ProdSingRedoBetween,2021.2.3,59.756611322730976,
,,,,94,0,94,0,,,,,,,,,,,,,,,,,,,,,,2631.646185999998,None,,,,,,,,,,,,,,,,,finish,22,95,sing,old,yellow,2630.0007917999756,None,2630.0007917999756,None,1,0.7794168000109494,2630.0007917999756,None,0.7794168000109494,2630.796912199992,None,2631.3211598999915,None,2631.3211598999915,None,n,0.3069375000195578,2631.3211598999915,None,0.3069375000195578,,,54 Sing,001,2022_Sep_22_1328,ProdSingRedoBetween,2021.2.3,59.756611322730976,
,,,,95,0,95,0,,,,,,,,,,,,,,,,,,,,,,2633.714544199989,None,,,,,,,,,,,,,,,,,figure,103,96,sing,new,null,2632.1627251999744,None,2632.1627251999744,None,1,0.6734059000154957,2632.1627251999744,None,0.6734059000154957,2632.865088499995,None,2633.3691497999826,None,2633.3691497999826,None,n,0.3230753999960143,2633.3691497999826,None,0.3230753999960143,,,54 Sing,001,2022_Sep_22_1328,ProdSingRedoBetween,2021.2.3,59.756611322730976,
,,,,96,0,96,0,,,,,,,,,,,,,,,,,,,,,,2636.3353839999763,None,,,,,,,,,,,,,,,,,meeting,78,97,sing,old,red,2634.2169265999983,None,2634.2169265999983,None,1,1.171217600000091,2634.2169265999983,None,1.171217600000091,2635.4165159999975,None,2635.916792299977,None,2635.916792299977,None,n,0.39142299999366514,2635.916792299977,None,0.39142299999366514,,,54 Sing,001,2022_Sep_22_1328,ProdSingRedoBetween,2021.2.3,59.756611322730976,
,,,,97,0,97,0,,,,,,,,,,,,,,,,,,,,,,2638.3360495999805,None,,,,,,,,,,,,,,,,,raise,89,98,sing,old,red,2636.8371636999946,None,2636.8371636999946,None,1,0.6471237000077963,2636.8371636999946,None,0.6471237000077963,2637.5093906999973,None,2638.0191924999817,None,2638.0191924999817,None,n,0.28896140001597814,2638.0191924999817,None,0.28896140001597814,,,54 Sing,001,2022_Sep_22_1328,ProdSingRedoBetween,2021.2.3,59.756611322730976,
,,,,98,0,98,0,,,,,,,,,,,,,,,,,,,,,,2640.272711699974,None,,,,,,,,,,,,,,,,,whole,151,99,sing,new,null,2638.8432580999797,None,2638.8432580999797,None,1,0.54512519997661,2638.8432580999797,None,0.54512519997661,2639.4154639999906,None,2639.9247652999766,None,2639.9247652999766,None,n,0.3194804000086151,2639.9247652999766,None,0.3194804000086151,,,54 Sing,001,2022_Sep_22_1328,ProdSingRedoBetween,2021.2.3,59.756611322730976,
,,,,99,0,99,0,,,,,,,,,,,,,,,,,,,,,,2642.356669199973,None,,,,,,,,,,,,,,,,,passage,107,100,sing,new,null,2640.777878599998,None,2640.777878599998,None,1,0.6983918999903835,2640.777878599998,None,0.6983918999903835,2641.5159741999814,None,2642.0231728999934,None,2642.0231728999934,None,n,0.317005999997491,2642.0231728999934,None,0.317005999997491,,,54 Sing,001,2022_Sep_22_1328,ProdSingRedoBetween,2021.2.3,59.756611322730976,
,,,,100,0,100,0,,,,,,,,,,,,,,,,,,,,,,2645.643289200001,None,,,,,,,,,,,,,,,,,leader,150,101,sing,new,null,2642.857603899989,None,2642.857603899989,None,1,1.9225713999767322,2642.857603899989,None,1.9225713999767322,2644.8101814999827,None,2645.312906099978,None,2645.312906099978,None,n,0.31526770000346005,2645.312906099978,None,0.31526770000346005,,,54 Sing,001,2022_Sep_22_1328,ProdSingRedoBetween,2021.2.3,59.756611322730976,
,,,,101,0,101,0,,,,,,,,,,,,,,,,,,,,,,2647.6453419999743,None,,,,,,,,,,,,,,,,,trend,134,102,sing,new,null,2646.153186499985,None,2646.153186499985,None,1,0.6670103999786079,2646.153186499985,None,0.6670103999786079,2646.844312799978,None,2647.3451995999785,None,2647.3451995999785,None,n,0.274980999995023,2647.3451995999785,None,0.274980999995023,,,54 Sing,001,2022_Sep_22_1328,ProdSingRedoBetween,2021.2.3,59.756611322730976,
,,,,102,0,102,0,,,,,,,,,,,,,,,,,,,,,,2649.497288899991,None,,,,,,,,,,,,,,,,,state,159,103,sing,new,null,2648.1551753999956,None,2648.1551753999956,None,1,0.4809495999943465,2648.1551753999956,None,0.4809495999943465,2648.6649669999897,None,2649.1855451999872,None,2649.1855451999872,None,n,0.29076329999952577,2649.1855451999872,None,0.29076329999952577,,,54 Sing,001,2022_Sep_22_1328,ProdSingRedoBetween,2021.2.3,59.756611322730976,
,,,,103,0,103,0,,,,,,,,,,,,,,,,,,,,,,2651.5342746999813,None,,,,,,,,,,,,,,,,,taste,154,104,sing,new,null,2650.0083680999815,None,2650.0083680999815,None,1,0.6838763999985531,2650.0083680999815,None,0.6838763999985531,2650.718555999978,None,2651.232435299986,None,2651.232435299986,None,n,0.28375400000368245,2651.232435299986,None,0.28375400000368245,,,54 Sing,001,2022_Sep_22_1328,ProdSingRedoBetween,2021.2.3,59.756611322730976,
,,,,104,0,104,0,,,,,,,,,,,,,,,,,,,,,,2653.5846859999874,None,,,,,,,,,,,,,,,,,drove,96,105,sing,new,null,2652.0495821999793,None,2652.0495821999793,None,1,0.6664575999893714,2652.0495821999793,None,0.6664575999893714,2652.7354834,None,2653.252066099987,None,2653.252066099987,None,n,0.3041461000102572,2653.252066099987,None,0.3041461000102572,,,54 Sing,001,2022_Sep_22_1328,ProdSingRedoBetween,2021.2.3,59.756611322730976,
,,,,105,0,105,0,,,,,,,,,,,,,,,,,,,,,,2655.7698333000008,None,,,,,,,,,,,,,,,,,mechanical,12,106,sing,old,yellow,2654.0898751999775,None,2654.0898751999775,None,1,0.7383364000124857,2654.0898751999775,None,0.7383364000124857,2654.8593846999865,None,2655.3710753999767,None,2655.3710753999767,None,n,0.37707899999804795,2655.3710753999767,None,0.37707899999804795,,,54 Sing,001,2022_Sep_22_1328,ProdSingRedoBetween,2021.2.3,59.756611322730976,
,,,,106,0,106,0,,,,,,,,,,,,,,,,,,,,,,2658.3891528999957,None,,,,,,,,,,,,,,,,,color,101,107,sing,new,null,2656.274741399975,None,2656.274741399975,None,1,1.2254281000059564,2656.274741399975,None,1.2254281000059564,2657.5238886000006,None,2658.039090299979,None,2658.039090299979,None,n,0.33300169999711215,2658.039090299979,None,0.33300169999711215,,,54 Sing,001,2022_Sep_22_1328,ProdSingRedoBetween,2021.2.3,59.756611322730976,
,,,,107,0,107,0,,,,,,,,,,,,,,,,,,,,,,2660.474824499979,None,,,,,,,,,,,,,,,,,junior,166,108,sing,new,null,2658.891831199988,None,2658.891831199988,None,1,0.7523128000029828,2658.891831199988,None,0.7523128000029828,2659.6759752999933,None,2660.1962492999737,None,2660.1962492999737,None,n,0.2559637000085786,2660.1962492999737,None,0.2559637000085786,,,54 Sing,001,2022_Sep_22_1328,ProdSingRedoBetween,2021.2.3,59.756611322730976,
,,,,108,0,108,0,,,,,,,,,,,,,,,,,,,,,,2663.2109318999865,None,,,,,,,,,,,,,,,,,husband,19,109,sing,old,yellow,2660.97873599999,None,2660.97873599999,None,6,1.3454624000005424,2660.97873599999,None,1.3454624000005424,2662.3470137999975,None,2662.8664789999893,None,2662.8664789999893,None,r,0.313780600001337,2662.8664789999893,None,0.313780600001337,,,54 Sing,001,2022_Sep_22_1328,ProdSingRedoBetween,2021.2.3,59.756611322730976,
,,,,109,0,109,0,,,,,,,,,,,,,,,,,,,,,,2665.57991879998,None,,,,,,,,,,,,,,,,,empty,83,110,sing,old,red,2663.711384800001,None,2663.711384800001,None,1,0.9969253000163008,2663.711384800001,None,0.9969253000163008,2664.736538899975,None,2665.246308599977,None,2665.246308599977,None,n,0.3177849000203423,2665.246308599977,None,0.3177849000203423,,,54 Sing,001,2022_Sep_22_1328,ProdSingRedoBetween,2021.2.3,59.756611322730976,
,,,,110,0,110,0,,,,,,,,,,,,,,,,,,,,,,2668.499446199974,None,,,,,,,,,,,,,,,,,profession,16,111,sing,old,yellow,2666.09801289998,None,2666.09801289998,None,6,1.7060726000054274,2666.09801289998,None,1.7060726000054274,2667.835041399987,None,2668.349416299985,None,2668.349416299985,None,r,0.1268133000121452,2668.349416299985,None,0.1268133000121452,,,54 Sing,001,2022_Sep_22_1328,ProdSingRedoBetween,2021.2.3,59.756611322730976,
,,,,111,0,111,0,,,,,,,,,,,,,,,,,,,,,,2670.6849635999824,None,,,,,,,,,,,,,,,,,group,141,112,sing,new,null,2669.0078834999877,None,2669.0078834999877,None,1,0.7083060000149999,2669.0078834999877,None,0.7083060000149999,2669.7447997999843,None,2670.2599298999994,None,2670.2599298999994,None,n,0.40033500001300126,2670.2599298999994,None,0.40033500001300126,,,54 Sing,001,2022_Sep_22_1328,ProdSingRedoBetween,2021.2.3,59.756611322730976,
,,,,112,0,112,0,,,,,,,,,,,,,,,,,,,,,,2672.653554199991,None,,,,,,,,,,,,,,,,,reach,129,113,sing,new,null,2671.187012899987,None,2671.187012899987,None,1,0.6650803000084125,2671.187012899987,None,0.6650803000084125,2671.8693209999765,None,2672.374261399993,None,2672.374261399993,None,n,0.2540310999902431,2672.374261399993,None,0.2540310999902431,,,54 Sing,001,2022_Sep_22_1328,ProdSingRedoBetween,2021.2.3,59.756611322730976,
,,,,113,0,113,0,,,,,,,,,,,,,,,,,,,,,,2674.6222645999806,None,,,,,,,,,,,,,,,,,produce,170,114,sing,new,null,2673.154084699985,None,2673.154084699985,None,1,0.6260724999883678,2673.154084699985,None,0.6260724999883678,2673.815648399992,None,2674.3226801999845,None,2674.3226801999845,None,n,0.27340939998975955,2674.3226801999845,None,0.27340939998975955,,,54 Sing,001,2022_Sep_22_1328,ProdSingRedoBetween,2021.2.3,59.756611322730976,
,,,,114,0,114,0,,,,,,,,,,,,,,,,,,,,,,2678.025546399993,None,,,,,,,,,,,,,,,,,evidence,30,115,sing,old,blue,2675.133259299997,None,2675.133259299997,None,6,2.070777699991595,2675.133259299997,None,2.070777699991595,2677.226122299995,None,2677.725386099977,None,2677.725386099977,None,r,0.2786317999998573,2677.725386099977,None,0.2786317999998573,,,54 Sing,001,2022_Sep_22_1328,ProdSingRedoBetween,2021.2.3,59.756611322730976,
,,,,115,0,115,0,,,,,,,,,,,,,,,,,,,,,,2680.27789149998,None,,,,,,,,,,,,,,,,,atmosphere,75,116,sing,old,red,2678.5370516999974,None,2678.5370516999974,None,1,0.8911013000179082,2678.5370516999974,None,0.8911013000179082,2679.4448401999834,None,2679.9503306999977,None,2679.9503306999977,None,n,0.30179369999677874,2679.9503306999977,None,0.30179369999677874,,,54 Sing,001,2022_Sep_22_1328,ProdSingRedoBetween,2021.2.3,59.756611322730976,
,,,,116,0,116,0,,,,,,,,,,,,,,,,,,,,,,2682.2799487999873,None,,,,,,,,,,,,,,,,,spoke,102,117,sing,new,null,2680.7890683999867,None,2680.7890683999867,None,1,0.6150607999879867,2680.7890683999867,None,0.6150607999879867,2681.4310628999956,None,2681.9463425999857,None,2681.9463425999857,None,n,0.30573190000723116,2681.9463425999857,None,0.30573190000723116,,,54 Sing,001,2022_Sep_22_1328,ProdSingRedoBetween,2021.2.3,59.756611322730976,
,,,,117,0,117,0,,,,,,,,,,,,,,,,,,,,,,2684.498793899984,None,,,,,,,,,,,,,,,,,emergency,174,118,sing,new,null,2682.795570999995,None,2682.795570999995,None,1,0.8085698000213597,2682.795570999995,None,0.8085698000213597,2683.6393004999845,None,2684.1563284999866,None,2684.1563284999866,None,n,0.31202049998682924,2684.1563284999866,None,0.31202049998682924,,,54 Sing,001,2022_Sep_22_1328,ProdSingRedoBetween,2021.2.3,59.756611322730976,
,,,,118,0,118,0,,,,,,,,,,,,,,,,,,,,,,2686.5007793999976,None,,,,,,,,,,,,,,,,,engineer,119,119,sing,new,null,2685.003844299994,None,2685.003844299994,None,1,0.6002529000106733,2685.003844299994,None,0.6002529000106733,2685.6342651000014,None,2686.136788999982,None,2686.136788999982,None,n,0.3394024999870453,2686.136788999982,None,0.3394024999870453,,,54 Sing,001,2022_Sep_22_1328,ProdSingRedoBetween,2021.2.3,59.756611322730976,
,,,,119,0,119,0,,,,,,,,,,,,,,,,,,,,,,2688.4873178999987,None,,,,,,,,,,,,,,,,,angle,6,120,sing,old,yellow,2687.014112199977,None,2687.014112199977,None,1,0.5982236999843735,2687.014112199977,None,0.5982236999843735,2687.637021999981,None,2688.15251059999,None,2688.15251059999,None,n,0.3155167000077199,2688.15251059999,None,0.3155167000077199,,,54 Sing,001,2022_Sep_22_1328,ProdSingRedoBetween,2021.2.3,59.756611322730976,
,,,,120,0,120,0,,,,,,,,,,,,,,,,,,,,,,2690.655639799981,None,,,,,,,,,,,,,,,,,opening,40,121,sing,old,blue,2688.990289199981,None,2688.990289199981,None,1,0.6377767999947537,2688.990289199981,None,0.6377767999947537,2689.655227799987,None,2690.1556802999985,None,2690.1556802999985,None,n,0.47245259999181144,2690.1556802999985,None,0.47245259999181144,,,54 Sing,001,2022_Sep_22_1328,ProdSingRedoBetween,2021.2.3,59.756611322730976,
,,,,121,0,121,0,,,,,,,,,,,,,,,,,,,,,,2692.907218099979,None,,,,,,,,,,,,,,,,,defeat,175,122,sing,new,null,2691.1709529999935,None,2691.1709529999935,None,1,0.8971586000116076,2691.1709529999935,None,0.8971586000116076,2692.090179199993,None,2692.597421099985,None,2692.597421099985,None,n,0.27866630000062287,2692.597421099985,None,0.27866630000062287,,,54 Sing,001,2022_Sep_22_1328,ProdSingRedoBetween,2021.2.3,59.756611322730976,
,,,,122,0,122,0,,,,,,,,,,,,,,,,,,,,,,2695.7290067999857,None,,,,,,,,,,,,,,,,,straight,61,123,sing,old,red,2693.4168948000006,None,2693.4168948000006,None,1,0.739199000003282,2693.4168948000006,None,0.739199000003282,2694.177138399973,None,2694.6963343999814,None,2694.6963343999814,None,n,1.011781000008341,2694.6963343999814,None,1.011781000008341,,,54 Sing,001,2022_Sep_22_1328,ProdSingRedoBetween,2021.2.3,59.756611322730976,
,,,,123,0,123,0,,,,,,,,,,,,,,,,,,,,,,2697.7788226999983,None,,,,,,,,,,,,,,,,,election,62,124,sing,old,red,2696.250111799978,None,2696.250111799978,None,1,0.8339165000070352,2696.250111799978,None,0.8339165000070352,2697.1120328999823,None,2697.6120672999823,None,2697.6120672999823,None,n,0.1358561999804806,2697.6120672999823,None,0.1358561999804806,,,54 Sing,001,2022_Sep_22_1328,ProdSingRedoBetween,2021.2.3,59.756611322730976,
,,,,124,0,124,0,,,,,,,,,,,,,,,,,,,,,,2702.400155399984,None,,,,,,,,,,,,,,,,,period,11,125,sing,old,yellow,2698.2910984999908,None,2698.2910984999908,None,1,1.1368579999834765,2698.2910984999908,None,1.1368579999834765,2699.4509781999805,None,2699.9643209999776,None,2699.9643209999776,None,r,2.4076495000044815,2699.9643209999776,None,2.4076495000044815,,,54 Sing,001,2022_Sep_22_1328,ProdSingRedoBetween,2021.2.3,59.756611322730976,
,,,,125,0,125,0,,,,,,,,,,,,,,,,,,,,,,2706.387282299984,None,,,,,,,,,,,,,,,,,weather,21,126,sing,old,yellow,2702.9124494999996,None,2702.9124494999996,None,1,2.531621600006474,2702.9124494999996,None,2.531621600006474,2705.47123179998,None,2705.9766483999847,None,2705.9766483999847,None,n,0.395445700007258,2705.9766483999847,None,0.395445700007258,,,54 Sing,001,2022_Sep_22_1328,ProdSingRedoBetween,2021.2.3,59.756611322730976,
,,,,126,0,126,0,,,,,,,,,,,,,,,,,,,,,,2710.742427499994,None,,,,,,,,,,,,,,,,,touch,82,127,sing,old,red,2706.889178799989,None,2706.889178799989,None,6,2.9068711000145413,2706.889178799989,None,2.9068711000145413,2709.824734199996,None,2710.3246038999932,None,2710.3246038999932,None,r,0.39150030000018887,2710.3246038999932,None,0.39150030000018887,,,54 Sing,001,2022_Sep_22_1328,ProdSingRedoBetween,2021.2.3,59.756611322730976,
,,,,127,0,127,0,,,,,,,,,,,,,,,,,,,,,,2713.944801799982,None,,,,,,,,,,,,,,,,,substance,130,128,sing,new,null,2711.246944899991,None,2711.246944899991,None,1,1.7011994999775197,2711.246944899991,None,1.7011994999775197,2712.978287099977,None,2713.488612599991,None,2713.488612599991,None,n,0.42749349999940023,2713.488612599991,None,0.42749349999940023,,,54 Sing,001,2022_Sep_22_1328,ProdSingRedoBetween,2021.2.3,59.756611322730976,
,,,,128,0,128,0,,,,,,,,,,,,,,,,,,,,,,2718.8660622999887,None,,,,,,,,,,,,,,,,,death,106,129,sing,new,null,2714.4484307999955,None,2714.4484307999955,None,5,3.5955115999968257,2714.4484307999955,None,3.5955115999968257,2718.0667265999946,None,2718.5660032999876,None,2718.5660032999876,None,f,0.2699453000095673,2718.5660032999876,None,0.2699453000095673,,,54 Sing,001,2022_Sep_22_1328,ProdSingRedoBetween,2021.2.3,59.756611322730976,
,,,,129,0,129,0,,,,,,,,,,,,,,,,,,,,,,2723.00365899998,None,,,,,,,,,,,,,,,,,sight,142,130,sing,new,null,2719.3682150999957,None,2719.3682150999957,None,3,2.571853400004329,2719.3682150999957,None,2.571853400004329,2721.970541699993,None,2722.4781558999966,None,2722.4781558999966,None,f,0.5017722999909893,2722.4781558999966,None,0.5017722999909893,,,54 Sing,001,2022_Sep_22_1328,ProdSingRedoBetween,2021.2.3,59.756611322730976,
,,,,130,0,130,0,,,,,,,,,,,,,,,,,,,,,,2725.3061164999963,None,,,,,,,,,,,,,,,,,rapid,46,131,sing,old,blue,2723.512553699984,None,2723.512553699984,None,3,1.0754689000023063,2723.512553699984,None,1.0754689000023063,2724.6070565999835,None,2725.1227451000013,None,2725.1227451000013,None,f,0.15330439998069778,2725.1227451000013,None,0.15330439998069778,,,54 Sing,001,2022_Sep_22_1328,ProdSingRedoBetween,2021.2.3,59.756611322730976,
,,,,131,0,131,0,,,,,,,,,,,,,,,,,,,,,,2728.1265402999998,None,,,,,,,,,,,,,,,,,search,27,132,sing,old,yellow,2725.8165745000006,None,2725.8165745000006,None,1,1.4595544000039808,2725.8165745000006,None,1.4595544000039808,2727.2965096999833,None,2727.810823799984,None,2727.810823799984,None,n,0.28922989999409765,2727.810823799984,None,0.28922989999409765,,,54 Sing,001,2022_Sep_22_1328,ProdSingRedoBetween,2021.2.3,59.756611322730976,
,,,,132,0,132,0,,,,,,,,,,,,,,,,,,,,,,2731.312167899974,None,,,,,,,,,,,,,,,,,machinery,92,133,sing,new,null,2728.635832299973,None,2728.635832299973,None,1,1.8721902999968734,2728.635832299973,None,1.8721902999968734,2730.5319265,None,2731.0453871999925,None,2731.0453871999925,None,n,0.24667910000425763,2731.0453871999925,None,0.24667910000425763,,,54 Sing,001,2022_Sep_22_1328,ProdSingRedoBetween,2021.2.3,59.756611322730976,
,,,,133,0,133,0,,,,,,,,,,,,,,,,,,,,,,2733.9644556999847,None,,,,,,,,,,,,,,,,,goose,20,134,sing,old,yellow,2731.821066899982,None,2731.821066899982,None,6,1.2709556000190787,2731.821066899982,None,1.2709556000190787,2733.1162712999794,None,2733.6350080999837,None,2733.6350080999837,None,r,0.3050101999833714,2733.6350080999837,None,0.3050101999833714,,,54 Sing,001,2022_Sep_22_1328,ProdSingRedoBetween,2021.2.3,59.756611322730976,
,,,,134,0,134,0,,,,,,,,,,,,,,,,,,,,,,2737.2013164999953,None,,,,,,,,,,,,,,,,,audience,91,135,sing,new,null,2734.4746596999757,None,2734.4746596999757,None,1,1.85727659999975,2734.4746596999757,None,1.85727659999975,2736.3515452999854,None,2736.8552167000016,None,2736.8552167000016,None,n,0.3248147999984212,2736.8552167000016,None,0.3248147999984212,,,54 Sing,001,2022_Sep_22_1328,ProdSingRedoBetween,2021.2.3,59.756611322730976,
,,,,135,0,135,0,,,,,,,,,,,,,,,,,,,,,,2740.9884967999824,None,,,,,,,,,,,,,,,,,individual,67,136,sing,old,red,2737.7018511999922,None,2737.7018511999922,None,6,2.414195900026243,2737.7018511999922,None,2.414195900026243,2740.1397156999737,None,2740.654929799988,None,2740.654929799988,None,r,0.30898110000998713,2740.654929799988,None,0.30898110000998713,,,54 Sing,001,2022_Sep_22_1328,ProdSingRedoBetween,2021.2.3,59.756611322730976,
,,,,136,0,136,0,,,,,,,,,,,,,,,,,,,,,,2743.7577986999822,None,,,,,,,,,,,,,,,,,under,55,137,sing,old,blue,2741.5005522999854,None,2741.5005522999854,None,1,1.3355774999945424,2741.5005522999854,None,1.3355774999945424,2742.861718499975,None,2743.3793802,None,2743.3793802,None,n,0.3528405999823008,2743.3793802,None,0.3528405999823008,,,54 Sing,001,2022_Sep_22_1328,ProdSingRedoBetween,2021.2.3,59.756611322730976,
,,,,137,0,137,0,,,,,,,,,,,,,,,,,,,,,,2746.0288250999874,None,,,,,,,,,,,,,,,,,bicycle,137,138,sing,new,null,2744.2661920999817,None,2744.2661920999817,None,1,0.9618132000032347,2744.2661920999817,None,0.9618132000032347,2745.2455784999765,None,2745.7663934999728,None,2745.7663934999728,None,n,0.24566140002571046,2745.7663934999728,None,0.24566140002571046,,,54 Sing,001,2022_Sep_22_1328,ProdSingRedoBetween,2021.2.3,59.756611322730976,
,,,,138,0,138,0,,,,,,,,,,,,,,,,,,,,,,2748.2621730999963,None,,,,,,,,,,,,,,,,,shear,118,139,sing,new,null,2746.5467187999748,None,2746.5467187999748,None,1,0.881284200004302,2746.5467187999748,None,0.881284200004302,2747.4453939999803,None,2747.949031999975,None,2747.949031999975,None,n,0.29488810000475496,2747.949031999975,None,0.29488810000475496,,,54 Sing,001,2022_Sep_22_1328,ProdSingRedoBetween,2021.2.3,59.756611322730976,
,,,,139,0,139,0,,,,,,,,,,,,,,,,,,,,,,2750.6146812999796,None,,,,,,,,,,,,,,,,,revolution,29,140,sing,old,blue,2748.764681599976,None,2748.764681599976,None,1,0.9994796000246424,2748.764681599976,None,0.9994796000246424,2749.7804107999837,None,2750.2812075999973,None,2750.2812075999973,None,n,0.31478539999807253,2750.2812075999973,None,0.31478539999807253,,,54 Sing,001,2022_Sep_22_1328,ProdSingRedoBetween,2021.2.3,59.756611322730976,
,,,,140,0,140,0,,,,,,,,,,,,,,,,,,,,,,2752.8168231999734,None,,,,,,,,,,,,,,,,,title,177,141,sing,new,null,2751.123842399975,None,2751.123842399975,None,1,0.8322838000021875,2751.123842399975,None,0.8322838000021875,2751.9904696999874,None,2752.503627499973,None,2752.503627499973,None,n,0.28433270001551136,2752.503627499973,None,0.28433270001551136,,,54 Sing,001,2022_Sep_22_1328,ProdSingRedoBetween,2021.2.3,59.756611322730976,
,,,,141,0,141,0,,,,,,,,,,,,,,,,,,,,,,2755.802961499983,None,,,,,,,,,,,,,,,,,accident,77,142,sing,old,red,2753.326253099978,None,2753.326253099978,None,6,1.6776805999979842,2753.326253099978,None,1.6776805999979842,2755.021328599978,None,2755.5363365999947,None,2755.5363365999947,None,r,0.24364000000059605,2755.5363365999947,None,0.24364000000059605,,,54 Sing,001,2022_Sep_22_1328,ProdSingRedoBetween,2021.2.3,59.756611322730976,
,,,,142,0,142,0,,,,,,,,,,,,,,,,,,,,,,2757.9052395999897,None,,,,,,,,,,,,,,,,,company,140,143,sing,new,null,2756.3125772999774,None,2756.3125772999774,None,1,0.9554596999951173,2756.3125772999774,None,0.9554596999951173,2757.2932166999963,None,2757.805408299988,None,2757.805408299988,None,n,0.0705856999848038,2757.805408299988,None,0.0705856999848038,,,54 Sing,001,2022_Sep_22_1328,ProdSingRedoBetween,2021.2.3,59.756611322730976,
,,,,143,0,143,0,,,,,,,,,,,,,,,,,,,,,,2760.7912178999977,None,,,,,,,,,,,,,,,,,breath,148,144,sing,new,null,2758.4258487999905,None,2758.4258487999905,None,1,1.698066499986453,2758.4258487999905,None,1.698066499986453,2760.1406351999904,None,2760.6455993999843,None,2760.6455993999843,None,n,0.1183360000140965,2760.6455993999843,None,0.1183360000140965,,,54 Sing,001,2022_Sep_22_1328,ProdSingRedoBetween,2021.2.3,59.756611322730976,
,,,,144,0,144,0,,,,,,,,,,,,,,,,,,,,,,2763.1604878999933,None,,,,,,,,,,,,,,,,,research,169,145,sing,new,null,2761.3026947999897,None,2761.3026947999897,None,1,1.2775684999942314,2761.3026947999897,None,1.2775684999942314,2762.6145798999933,None,2763.128974099993,None,2763.128974099993,None,n,0.011157700006151572,2763.128974099993,None,0.011157700006151572,,,54 Sing,001,2022_Sep_22_1328,ProdSingRedoBetween,2021.2.3,59.756611322730976,
,,,,145,0,145,0,,,,,,,,,,,,,,,,,,,,,,2768.6661056999874,None,,,,,,,,,,,,,,,,,gesture,56,146,sing,old,blue,2763.670296699973,None,2763.670296699973,None,1,1.5975578000070527,2763.670296699973,None,1.5975578000070527,2765.297561399988,None,2765.813157699973,None,2765.813157699973,None,r,2.822751600004267,2765.813157699973,None,2.822751600004267,,,54 Sing,001,2022_Sep_22_1328,ProdSingRedoBetween,2021.2.3,59.756611322730976,
,,,,146,0,146,0,,,,,,,,,,,,,,,,,,,,,,2772.1695338999853,None,,,,,,,,,,,,,,,,,track,105,147,sing,new,null,2769.1690732999996,None,2769.1690732999996,None,1,1.7628828000160865,2769.1690732999996,None,1.7628828000160865,2770.9516536999727,None,2771.4550694999925,None,2771.4550694999925,None,n,0.6848800000152551,2771.4550694999925,None,0.6848800000152551,,,54 Sing,001,2022_Sep_22_1328,ProdSingRedoBetween,2021.2.3,59.756611322730976,
,,,,147,0,147,0,,,,,,,,,,,,,,,,,,,,,,2774.6052805999934,None,,,,,,,,,,,,,,,,,edition,116,148,sing,new,null,2772.675818699994,None,2772.675818699994,None,1,1.032184400013648,2772.675818699994,None,1.032184400013648,2773.741841899988,None,2774.2570877999824,None,2774.2570877999824,None,n,0.3308676999877207,2774.2570877999824,None,0.3308676999877207,,,54 Sing,001,2022_Sep_22_1328,ProdSingRedoBetween,2021.2.3,59.756611322730976,
,,,,148,0,148,0,,,,,,,,,,,,,,,,,,,,,,2778.13433109998,None,,,,,,,,,,,,,,,,,listen,146,149,sing,new,null,2775.1089768999955,None,2775.1089768999955,None,1,2.262975399993593,2775.1089768999955,None,2.262975399993593,2777.3927434999787,None,2777.8966718999727,None,2777.8966718999727,None,n,0.21125480000046082,2777.8966718999727,None,0.21125480000046082,,,54 Sing,001,2022_Sep_22_1328,ProdSingRedoBetween,2021.2.3,59.756611322730976,
,,,,149,0,149,0,,,,,,,,,,,,,,,,,,,,,,2780.9949878999905,None,,,,,,,,,,,,,,,,,population,135,150,sing,new,null,2778.6477873999975,None,2778.6477873999975,None,1,1.1721556999837048,2778.6477873999975,None,1.1721556999837048,2779.8453520999756,None,2780.3471621999925,None,2780.3471621999925,None,n,0.6168886999948882,2780.3471621999925,None,0.6168886999948882,,,54 Sing,001,2022_Sep_22_1328,ProdSingRedoBetween,2021.2.3,59.756611322730976,
,,,,150,0,150,0,,,,,,,,,,,,,,,,,,,,,,2785.4689929999877,None,,,,,,,,,,,,,,,,,patient,49,151,sing,old,blue,2781.497807799984,None,2781.497807799984,None,1,3.20211549999658,2781.497807799984,None,3.20211549999658,2784.716730299988,None,2785.2205870999896,None,2785.2205870999896,None,n,0.22337650001281872,2785.2205870999896,None,0.22337650001281872,,,54 Sing,001,2022_Sep_22_1328,ProdSingRedoBetween,2021.2.3,59.756611322730976,
,,,,151,0,151,0,,,,,,,,,,,,,,,,,,,,,,2787.901624499995,None,,,,,,,,,,,,,,,,,judge,8,152,sing,old,yellow,2785.9867508999887,None,2785.9867508999887,None,1,1.0012624000082724,2785.9867508999887,None,1.0012624000082724,2787.018970199977,None,2787.518326499994,None,2787.518326499994,None,n,0.3655510999960825,2787.518326499994,None,0.3655510999960825,,,54 Sing,001,2022_Sep_22_1328,ProdSingRedoBetween,2021.2.3,59.756611322730976,
,,,,152,0,152,0,,,,,,,,,,,,,,,,,,,,,,2790.6602337999793,None,,,,,,,,,,,,,,,,,corner,25,153,sing,old,yellow,2788.406502400001,None,2788.406502400001,None,6,1.3894312000193167,2788.406502400001,None,1.3894312000193167,2789.8224741999875,None,2790.3449836999935,None,2790.3449836999935,None,r,0.2909020000079181,2790.3449836999935,None,0.2909020000079181,,,54 Sing,001,2022_Sep_22_1328,ProdSingRedoBetween,2021.2.3,59.756611322730976,
,,,,153,0,153,0,,,,,,,,,,,,,,,,,,,,,,2794.208106999984,None,,,,,,,,,,,,,,,,,review,131,154,sing,new,null,2791.188746799977,None,2791.188746799977,None,2,1.4791481999855023,2791.188746799977,None,1.4791481999855023,2792.691976399976,None,2793.2107278999756,None,2793.2107278999756,None,f,0.9770722000102978,2793.2107278999756,None,0.9770722000102978,,,54 Sing,001,2022_Sep_22_1328,ProdSingRedoBetween,2021.2.3,59.756611322730976,
,,,,154,0,154,0,,,,,,,,,,,,,,,,,,,,,,2799.863810699986,None,,,,,,,,,,,,,,,,,foundation,32,155,sing,old,blue,2794.7208503999864,None,2794.7208503999864,None,4,3.795008899993263,2794.7208503999864,None,3.795008899993263,2798.5466864999908,None,2799.049180199974,None,2799.049180199974,None,f,0.7866939999803435,2799.049180199974,None,0.7866939999803435,,,54 Sing,001,2022_Sep_22_1328,ProdSingRedoBetween,2021.2.3,59.756611322730976,
,,,,155,0,155,0,,,,,,,,,,,,,,,,,,,,,,2802.81672979999,None,,,,,,,,,,,,,,,,,month,163,156,sing,new,null,2800.368986699992,None,2800.368986699992,None,1,1.0669156000076327,2800.368986699992,None,1.0669156000076327,2801.4654961999913,None,2801.9772622999735,None,2801.9772622999735,None,n,0.8106415999936871,2801.9772622999735,None,0.8106415999936871,,,54 Sing,001,2022_Sep_22_1328,ProdSingRedoBetween,2021.2.3,59.756611322730976,
,,,,156,0,156,0,,,,,,,,,,,,,,,,,,,,,,2805.2208358999924,None,,,,,,,,,,,,,,,,,close,3,157,sing,old,yellow,2803.3234826999833,None,2803.3234826999833,None,1,1.0805245999945328,2803.3234826999833,None,1.0805245999945328,2804.435982199997,None,2804.935913699999,None,2804.935913699999,None,n,0.26797209997312166,2804.935913699999,None,0.26797209997312166,,,54 Sing,001,2022_Sep_22_1328,ProdSingRedoBetween,2021.2.3,59.756611322730976,
,,,,157,0,157,0,,,,,,,,,,,,,,,,,,,,,,2807.9718313999765,None,,,,,,,,,,,,,,,,,addition,157,158,sing,new,null,2805.75303219998,None,2805.75303219998,None,6,1.3869549999944866,2805.75303219998,None,1.3869549999944866,2807.177825999999,None,2807.6931560999947,None,2807.6931560999947,None,r,0.25474790000589564,2807.6931560999947,None,0.25474790000589564,,,54 Sing,001,2022_Sep_22_1328,ProdSingRedoBetween,2021.2.3,59.756611322730976,
,,,,158,0,158,0,,,,,,,,,,,,,,,,,,,,,,2810.224125399982,None,,,,,,,,,,,,,,,,,place,2,159,sing,old,yellow,2808.47590759999,None,2808.47590759999,None,1,0.8718625000037719,2808.47590759999,None,0.8718625000037719,2809.3760322000016,None,2809.8941854999866,None,2809.8941854999866,None,n,0.301739800022915,2809.8941854999866,None,0.301739800022915,,,54 Sing,001,2022_Sep_22_1328,ProdSingRedoBetween,2021.2.3,59.756611322730976,
,,,,159,0,159,0,,,,,,,,,,,,,,,,,,,,,,2812.509758100001,None,,,,,,,,,,,,,,,,,guide,26,160,sing,old,yellow,2810.732548299973,None,2810.732548299973,None,1,0.9194561000040267,2810.732548299973,None,0.9194561000040267,2811.680441899982,None,2812.196923199983,None,2812.196923199983,None,n,0.2949897999933455,2812.196923199983,None,0.2949897999933455,,,54 Sing,001,2022_Sep_22_1328,ProdSingRedoBetween,2021.2.3,59.756611322730976,
,,,,160,0,160,0,,,,,,,,,,,,,,,,,,,,,,2816.096655499976,None,,,,,,,,,,,,,,,,,testimony,60,161,sing,old,red,2813.0220591999823,None,2813.0220591999823,None,4,2.2457926999777555,2813.0220591999823,None,2.2457926999777555,2815.297894699994,None,2815.8212563999987,None,2815.8212563999987,None,f,0.25468409998575225,2815.8212563999987,None,0.25468409998575225,,,54 Sing,001,2022_Sep_22_1328,ProdSingRedoBetween,2021.2.3,59.756611322730976,
,,,,161,0,161,0,,,,,,,,,,,,,,,,,,,,,,2820.951228299993,None,,,,,,,,,,,,,,,,,industry,74,162,sing,old,red,2816.6007356999908,None,2816.6007356999908,None,4,3.5712757000001147,2816.6007356999908,None,3.5712757000001147,2820.208801299974,None,2820.7194941999915,None,2820.7194941999915,None,f,0.21238260000245646,2820.7194941999915,None,0.21238260000245646,,,54 Sing,001,2022_Sep_22_1328,ProdSingRedoBetween,2021.2.3,59.756611322730976,
,,,,162,0,162,0,,,,,,,,,,,,,,,,,,,,,,2823.8711167,None,,,,,,,,,,,,,,,,,crowd,139,163,sing,new,null,2821.4595357999788,None,2821.4595357999788,None,1,1.0562397000030614,2821.4595357999788,None,1.0562397000030614,2822.5454763000016,None,2823.065220299992,None,2823.065220299992,None,n,0.7785496999858879,2823.065220299992,None,0.7785496999858879,,,54 Sing,001,2022_Sep_22_1328,ProdSingRedoBetween,2021.2.3,59.756611322730976,
,,,,163,0,163,0,,,,,,,,,,,,,,,,,,,,,,2827.9082596999942,None,,,,,,,,,,,,,,,,,fellow,23,164,sing,old,yellow,2824.382515199977,None,2824.382515199977,None,4,2.4056063999887556,2824.382515199977,None,2.4056063999887556,2826.8229011999792,None,2827.328581699985,None,2827.328581699985,None,f,0.5552201000100467,2827.328581699985,None,0.5552201000100467,,,54 Sing,001,2022_Sep_22_1328,ProdSingRedoBetween,2021.2.3,59.756611322730976,
,,,,164,0,164,0,,,,,,,,,,,,,,,,,,,,,,2830.243922499998,None,,,,,,,,,,,,,,,,,orchestra,164,165,sing,new,null,2828.4140153999906,None,2828.4140153999906,None,1,1.0378480000072159,2828.4140153999906,None,1.0378480000072159,2829.478248999978,None,2829.9942928999953,None,2829.9942928999953,None,n,0.2335945999948308,2829.9942928999953,None,0.2335945999948308,,,54 Sing,001,2022_Sep_22_1328,ProdSingRedoBetween,2021.2.3,59.756611322730976,
,,,,165,0,165,0,,,,,,,,,,,,,,,,,,,,,,2834.8988015999785,None,,,,,,,,,,,,,,,,,sound,39,166,sing,old,blue,2830.745226799976,None,2830.745226799976,None,6,3.3304945999989286,2830.745226799976,None,3.3304945999989286,2834.098818300001,None,2834.6000224999734,None,2834.6000224999734,None,r,0.27586779999546707,2834.6000224999734,None,0.27586779999546707,,,54 Sing,001,2022_Sep_22_1328,ProdSingRedoBetween,2021.2.3,59.756611322730976,
,,,,166,0,166,0,,,,,,,,,,,,,,,,,,,,,,2837.1048133999866,None,,,,,,,,,,,,,,,,,council,48,167,sing,old,blue,2835.402035199979,None,2835.402035199979,None,1,1.0579515999997966,2835.402035199979,None,1.0579515999997966,2836.4847141999926,None,2836.990328099986,None,2836.990328099986,None,n,0.0855308000172954,2836.990328099986,None,0.0855308000172954,,,54 Sing,001,2022_Sep_22_1328,ProdSingRedoBetween,2021.2.3,59.756611322730976,
,,,,167,0,167,0,,,,,,,,,,,,,,,,,,,,,,2839.8704834999808,None,,,,,,,,,,,,,,,,,quiet,162,168,sing,new,null,2837.626223899977,None,2837.626223899977,None,1,1.4095309999829624,2837.626223899977,None,1.4095309999829624,2839.0609805999848,None,2839.5701944999746,None,2839.5701944999746,None,n,0.27365270000882447,2839.5701944999746,None,0.27365270000882447,,,54 Sing,001,2022_Sep_22_1328,ProdSingRedoBetween,2021.2.3,59.756611322730976,
,,,,168,0,168,0,,,,,,,,,,,,,,,,,,,,,,2841.991343499976,None,,,,,,,,,,,,,,,,,device,127,169,sing,new,null,2840.3873767999758,None,2840.3873767999758,None,1,0.9284685000020545,2840.3873767999758,None,0.9284685000020545,2841.34271289999,None,2841.8661480999726,None,2841.8661480999726,None,n,0.10576609999407083,2841.8661480999726,None,0.10576609999407083,,,54 Sing,001,2022_Sep_22_1328,ProdSingRedoBetween,2021.2.3,59.756611322730976,
,,,,169,0,169,0,,,,,,,,,,,,,,,,,,,,,,2844.0911352999974,None,,,,,,,,,,,,,,,,,oxygen,122,170,sing,new,null,2842.5169316999963,None,2842.5169316999963,None,1,0.9508835999877192,2842.5169316999963,None,0.9508835999877192,2843.4920039999997,None,2843.9960807999887,None,2843.9960807999887,None,n,0.06394220000947826,2843.9960807999887,None,0.06394220000947826,,,54 Sing,001,2022_Sep_22_1328,ProdSingRedoBetween,2021.2.3,59.756611322730976,
,,,,170,0,170,0,,,,,,,,,,,,,,,,,,,,,,2846.4266420999775,None,,,,,,,,,,,,,,,,,charter,4,171,sing,old,yellow,2844.59168719998,None,2844.59168719998,None,2,0.812021999998251,2844.59168719998,None,0.812021999998251,2845.4320853999816,None,2845.9436187999963,None,2845.9436187999963,None,n,0.46829310001339763,2845.9436187999963,None,0.46829310001339763,,,54 Sing,001,2022_Sep_22_1328,ProdSingRedoBetween,2021.2.3,59.756611322730976,
,,,,171,0,171,0,,,,,,,,,,,,,,,,,,,,,,2849.663491799991,None,,,,,,,,,,,,,,,,,literature,45,172,sing,old,blue,2846.9338970999816,None,2846.9338970999816,None,6,1.8858887999958824,2846.9338970999816,None,1.8858887999958824,2848.8487181999953,None,2849.3632613999944,None,2849.3632613999944,None,r,0.2806261000223458,2849.3632613999944,None,0.2806261000223458,,,54 Sing,001,2022_Sep_22_1328,ProdSingRedoBetween,2021.2.3,59.756611322730976,
,,,,172,0,172,0,,,,,,,,,,,,,,,,,,,,,,2852.9865622999787,None,,,,,,,,,,,,,,,,,account,65,173,sing,old,red,2850.166732599988,None,2850.166732599988,None,2,2.0692097999854013,2850.166732599988,None,2.0692097999854013,2852.271449299995,None,2852.784060099977,None,2852.784060099977,None,f,0.17999460001010448,2852.784060099977,None,0.17999460001010448,,,54 Sing,001,2022_Sep_22_1328,ProdSingRedoBetween,2021.2.3,59.756611322730976,
,,,,173,0,173,0,,,,,,,,,,,,,,,,,,,,,,2859.0395148999814,None,,,,,,,,,,,,,,,,,trash,136,174,sing,new,null,2853.502968099987,None,2853.502968099987,None,1,1.2128673999977764,2853.502968099987,None,1.2128673999977764,2854.7368967999937,None,2855.238213099976,None,2855.238213099976,None,n,3.7737291999801528,2855.238213099976,None,3.7737291999801528,,,54 Sing,001,2022_Sep_22_1328,ProdSingRedoBetween,2021.2.3,59.756611322730976,
,,,,174,0,174,0,,,,,,,,,,,,,,,,,,,,,,2861.862946199981,None,,,,,,,,,,,,,,,,,victory,173,175,sing,new,null,2859.5440488999884,None,2859.5440488999884,None,1,1.3078245999931823,2859.5440488999884,None,1.3078245999931823,2860.882568699977,None,2861.399290799978,None,2861.399290799978,None,n,0.4445709999999963,2861.399290799978,None,0.4445709999999963,,,54 Sing,001,2022_Sep_22_1328,ProdSingRedoBetween,2021.2.3,59.756611322730976,
,,,,175,0,175,0,,,,,,,,,,,,,,,,,,,,,,2864.781690599979,None,,,,,,,,,,,,,,,,,dream,44,176,sing,old,blue,2862.3798781999794,None,2862.3798781999794,None,1,1.1198342999850865,2862.3798781999794,None,1.1198342999850865,2863.5274071999884,None,2864.0333415999776,None,2864.0333415999776,None,n,0.7225189000018872,2864.0333415999776,None,0.7225189000018872,,,54 Sing,001,2022_Sep_22_1328,ProdSingRedoBetween,2021.2.3,59.756611322730976,
,,,,176,0,176,0,,,,,,,,,,,,,,,,,,,,,,2868.465297799994,None,,,,,,,,,,,,,,,,,discussion,37,177,sing,old,blue,2865.300015899993,None,2865.300015899993,None,6,2.0957608000026084,2865.300015899993,None,2.0957608000026084,2867.4177970999735,None,2867.9316908999754,None,2867.9316908999754,None,r,0.5120891999977175,2867.9316908999754,None,0.5120891999977175,,,54 Sing,001,2022_Sep_22_1328,ProdSingRedoBetween,2021.2.3,59.756611322730976,
