StudyLoop.thisRepN,StudyLoop.thisTrialN,StudyLoop.thisN,StudyLoop.thisIndex,TestLoop.thisRepN,TestLoop.thisTrialN,TestLoop.thisN,TestLoop.thisIndex,textCondition.started,textCondition.stopped,keyCondition.keys,keyCondition.rt,keyCondition.started,keyCondition.stopped,Condition,textWelcome.started,textWelcome.stopped,keyWelcome.keys,keyWelcome.rt,keyWelcome.started,keyWelcome.stopped,textAloud.started,textAloud.stopped,textSilent.started,textSilent.stopped,textSing.started,textSing.stopped,conditional_text.started,conditional_text.stopped,textBlank500.started,textBlank500.stopped,study_word,study_num,study_order,study_type,word_color,textStudy.started,textStudy.stopped,keyStudy.keys,keyStudy.started,keyStudy.stopped,textTestInstructions.started,textTestInstructions.stopped,key_resp_3.keys,key_resp_3.rt,key_resp_3.started,key_resp_3.stopped,test_word,test_num,test_order,test_condition,old_new_test,test_word_original_color,textConf.started,textConf.stopped,textConfScale.started,textConfScale.stopped,keyConf.keys,keyConf.rt,keyConf.started,keyConf.stopped,confidence response time,textTestBlank.started,textTestBlank.stopped,textRKN.started,textRKN.stopped,textRKNScale.started,textRKNScale.stopped,keyRKN.keys,keyRKN.rt,keyRKN.started,keyRKN.stopped,rkn response time,textEnd.started,textEnd.stopped,participant,session,date,expName,psychopyVersion,frameRate,
,,,,,,,,34.301423600059934,None,b,1.6237963000312448,34.301423600059934,None,,,,,,,,,,,,,,,,,,,,,,,,,,,,,,,,,,,,,,,,,,,,,,,,,,,,,,,,,,,,,,56Aloud,001,2022_Sep_26_1113,ProdSingRedoBetween,2021.2.3,60.35961047101678,
,,,,,,,,,,,,,,AloudTest,35.97366850008257,None,space,668.952137599932,35.97366850008257,None,,,,,,,,,,,,,,,,,,,,,,,,,,,,,,,,,,,,,,,,,,,,,,,,,,,,,,,56Aloud,001,2022_Sep_26_1113,ProdSingRedoBetween,2021.2.3,60.35961047101678,
0,0,0,0,,,,,,,,,,,,,,,,,,35.97366850008257,None,35.97366850008257,None,35.97366850008257,None,35.97366850008257,None,707.4678021,None,business,82,1,aloud,red,705.4589000000851,None,None,705.4589000000851,None,,,,,,,,,,,,,,,,,,,,,,,,,,,,,,,,,,,56Aloud,001,2022_Sep_26_1113,ProdSingRedoBetween,2021.2.3,60.35961047101678,
1,0,1,0,,,,,,,,,,,,,,,,,,,,,,,,,,709.9701483000536,None,suspect,42,2,aloud,blue,707.9695717000868,None,None,707.9695717000868,None,,,,,,,,,,,,,,,,,,,,,,,,,,,,,,,,,,,56Aloud,001,2022_Sep_26_1113,ProdSingRedoBetween,2021.2.3,60.35961047101678,
2,0,2,0,,,,,,,,,,,,,,,,,,,,,,,,,,712.4892358999932,None,trend,52,3,aloud,blue,710.4742079999996,None,None,710.4742079999996,None,,,,,,,,,,,,,,,,,,,,,,,,,,,,,,,,,,,56Aloud,001,2022_Sep_26_1113,ProdSingRedoBetween,2021.2.3,60.35961047101678,
3,0,3,0,,,,,,,,,,,,,,,,,,,,,,,,,,714.9916144000599,None,youth,20,4,aloud,yellow,712.991741899983,None,None,712.991741899983,None,,,,,,,,,,,,,,,,,,,,,,,,,,,,,,,,,,,56Aloud,001,2022_Sep_26_1113,ProdSingRedoBetween,2021.2.3,60.35961047101678,
4,0,4,0,,,,,,,,,,,,,,,,,,,,,,,,,,717.5109732000856,None,minute,75,5,aloud,red,715.498321000021,None,None,715.498321000021,None,,,,,,,,,,,,,,,,,,,,,,,,,,,,,,,,,,,56Aloud,001,2022_Sep_26_1113,ProdSingRedoBetween,2021.2.3,60.35961047101678,
5,0,5,0,,,,,,,,,,,,,,,,,,,,,,,,,,720.0135504000355,None,damage,23,6,aloud,yellow,718.0129934999859,None,None,718.0129934999859,None,,,,,,,,,,,,,,,,,,,,,,,,,,,,,,,,,,,56Aloud,001,2022_Sep_26_1113,ProdSingRedoBetween,2021.2.3,60.35961047101678,
6,0,6,0,,,,,,,,,,,,,,,,,,,,,,,,,,722.5327123000752,None,meeting,68,7,aloud,red,720.5204098999966,None,None,720.5204098999966,None,,,,,,,,,,,,,,,,,,,,,,,,,,,,,,,,,,,56Aloud,001,2022_Sep_26_1113,ProdSingRedoBetween,2021.2.3,60.35961047101678,
7,0,7,0,,,,,,,,,,,,,,,,,,,,,,,,,,725.0517918000696,None,sweet,87,8,aloud,red,723.0413196000736,None,None,723.0413196000736,None,,,,,,,,,,,,,,,,,,,,,,,,,,,,,,,,,,,56Aloud,001,2022_Sep_26_1113,ProdSingRedoBetween,2021.2.3,60.35961047101678,
8,0,8,0,,,,,,,,,,,,,,,,,,,,,,,,,,727.5709023000672,None,pancakes,16,9,aloud,yellow,725.5628110000398,None,None,725.5628110000398,None,,,,,,,,,,,,,,,,,,,,,,,,,,,,,,,,,,,56Aloud,001,2022_Sep_26_1113,ProdSingRedoBetween,2021.2.3,60.35961047101678,
9,0,9,0,,,,,,,,,,,,,,,,,,,,,,,,,,730.0735120000318,None,measure,44,10,aloud,blue,728.0734795000171,None,None,728.0734795000171,None,,,,,,,,,,,,,,,,,,,,,,,,,,,,,,,,,,,56Aloud,001,2022_Sep_26_1113,ProdSingRedoBetween,2021.2.3,60.35961047101678,
10,0,10,0,,,,,,,,,,,,,,,,,,,,,,,,,,732.5760571000865,None,clear,88,11,aloud,red,730.5750543000177,None,None,730.5750543000177,None,,,,,,,,,,,,,,,,,,,,,,,,,,,,,,,,,,,56Aloud,001,2022_Sep_26_1113,ProdSingRedoBetween,2021.2.3,60.35961047101678,
11,0,11,0,,,,,,,,,,,,,,,,,,,,,,,,,,735.078389500035,None,clean,18,12,aloud,yellow,733.0783444000408,None,None,733.0783444000408,None,,,,,,,,,,,,,,,,,,,,,,,,,,,,,,,,,,,56Aloud,001,2022_Sep_26_1113,ProdSingRedoBetween,2021.2.3,60.35961047101678,
12,0,12,0,,,,,,,,,,,,,,,,,,,,,,,,,,737.5811247000238,None,bureau,14,13,aloud,yellow,735.5814922000282,None,None,735.5814922000282,None,,,,,,,,,,,,,,,,,,,,,,,,,,,,,,,,,,,56Aloud,001,2022_Sep_26_1113,ProdSingRedoBetween,2021.2.3,60.35961047101678,
13,0,13,0,,,,,,,,,,,,,,,,,,,,,,,,,,740.1001707999967,None,individual,72,14,aloud,red,738.0904736000812,None,None,738.0904736000812,None,,,,,,,,,,,,,,,,,,,,,,,,,,,,,,,,,,,56Aloud,001,2022_Sep_26_1113,ProdSingRedoBetween,2021.2.3,60.35961047101678,
14,0,14,0,,,,,,,,,,,,,,,,,,,,,,,,,,742.6192542000208,None,story,51,15,aloud,blue,740.6049612000352,None,None,740.6049612000352,None,,,,,,,,,,,,,,,,,,,,,,,,,,,,,,,,,,,56Aloud,001,2022_Sep_26_1113,ProdSingRedoBetween,2021.2.3,60.35961047101678,
15,0,15,0,,,,,,,,,,,,,,,,,,,,,,,,,,745.1220201000106,None,generation,1,16,aloud,yellow,743.1213287999853,None,None,743.1213287999853,None,,,,,,,,,,,,,,,,,,,,,,,,,,,,,,,,,,,56Aloud,001,2022_Sep_26_1113,ProdSingRedoBetween,2021.2.3,60.35961047101678,
16,0,16,0,,,,,,,,,,,,,,,,,,,,,,,,,,747.6243052000646,None,goose,49,17,aloud,blue,745.6229441000614,None,None,745.6229441000614,None,,,,,,,,,,,,,,,,,,,,,,,,,,,,,,,,,,,56Aloud,001,2022_Sep_26_1113,ProdSingRedoBetween,2021.2.3,60.35961047101678,
17,0,17,0,,,,,,,,,,,,,,,,,,,,,,,,,,750.1268596000737,None,passage,21,18,aloud,yellow,748.1274681000505,None,None,748.1274681000505,None,,,,,,,,,,,,,,,,,,,,,,,,,,,,,,,,,,,56Aloud,001,2022_Sep_26_1113,ProdSingRedoBetween,2021.2.3,60.35961047101678,
18,0,18,0,,,,,,,,,,,,,,,,,,,,,,,,,,752.6294394000433,None,guard,89,19,aloud,red,750.6268986000214,None,None,750.6268986000214,None,,,,,,,,,,,,,,,,,,,,,,,,,,,,,,,,,,,56Aloud,001,2022_Sep_26_1113,ProdSingRedoBetween,2021.2.3,60.35961047101678,
19,0,19,0,,,,,,,,,,,,,,,,,,,,,,,,,,755.1490955000045,None,minor,40,20,aloud,blue,753.134420300019,None,None,753.134420300019,None,,,,,,,,,,,,,,,,,,,,,,,,,,,,,,,,,,,56Aloud,001,2022_Sep_26_1113,ProdSingRedoBetween,2021.2.3,60.35961047101678,
20,0,20,0,,,,,,,,,,,,,,,,,,,,,,,,,,757.6510591000551,None,thick,85,21,aloud,red,755.6490151000908,None,None,755.6490151000908,None,,,,,,,,,,,,,,,,,,,,,,,,,,,,,,,,,,,56Aloud,001,2022_Sep_26_1113,ProdSingRedoBetween,2021.2.3,60.35961047101678,
21,0,21,0,,,,,,,,,,,,,,,,,,,,,,,,,,760.1702224999899,None,science,70,22,aloud,red,758.1550904000178,None,None,758.1550904000178,None,,,,,,,,,,,,,,,,,,,,,,,,,,,,,,,,,,,56Aloud,001,2022_Sep_26_1113,ProdSingRedoBetween,2021.2.3,60.35961047101678,
22,0,22,0,,,,,,,,,,,,,,,,,,,,,,,,,,762.6727331000147,None,atmosphere,34,23,aloud,blue,760.6717258000281,None,None,760.6717258000281,None,,,,,,,,,,,,,,,,,,,,,,,,,,,,,,,,,,,56Aloud,001,2022_Sep_26_1113,ProdSingRedoBetween,2021.2.3,60.35961047101678,
23,0,23,0,,,,,,,,,,,,,,,,,,,,,,,,,,765.175207799999,None,edition,84,24,aloud,red,763.174490800011,None,None,763.174490800011,None,,,,,,,,,,,,,,,,,,,,,,,,,,,,,,,,,,,56Aloud,001,2022_Sep_26_1113,ProdSingRedoBetween,2021.2.3,60.35961047101678,
24,0,24,0,,,,,,,,,,,,,,,,,,,,,,,,,,767.6776694,None,motion,80,25,aloud,red,765.6771507000085,None,None,765.6771507000085,None,,,,,,,,,,,,,,,,,,,,,,,,,,,,,,,,,,,56Aloud,001,2022_Sep_26_1113,ProdSingRedoBetween,2021.2.3,60.35961047101678,
25,0,25,0,,,,,,,,,,,,,,,,,,,,,,,,,,770.1965505999979,None,safety,50,26,aloud,blue,768.1832396000391,None,None,768.1832396000391,None,,,,,,,,,,,,,,,,,,,,,,,,,,,,,,,,,,,56Aloud,001,2022_Sep_26_1113,ProdSingRedoBetween,2021.2.3,60.35961047101678,
26,0,26,0,,,,,,,,,,,,,,,,,,,,,,,,,,772.6991518000141,None,partner,46,27,aloud,blue,770.6980838000309,None,None,770.6980838000309,None,,,,,,,,,,,,,,,,,,,,,,,,,,,,,,,,,,,56Aloud,001,2022_Sep_26_1113,ProdSingRedoBetween,2021.2.3,60.35961047101678,
27,0,27,0,,,,,,,,,,,,,,,,,,,,,,,,,,775.2018864999991,None,light,15,28,aloud,yellow,773.2000093000242,None,None,773.2000093000242,None,,,,,,,,,,,,,,,,,,,,,,,,,,,,,,,,,,,56Aloud,001,2022_Sep_26_1113,ProdSingRedoBetween,2021.2.3,60.35961047101678,
28,0,28,0,,,,,,,,,,,,,,,,,,,,,,,,,,777.7213128000731,None,concern,24,29,aloud,yellow,775.7123710000888,None,None,775.7123710000888,None,,,,,,,,,,,,,,,,,,,,,,,,,,,,,,,,,,,56Aloud,001,2022_Sep_26_1113,ProdSingRedoBetween,2021.2.3,60.35961047101678,
29,0,29,0,,,,,,,,,,,,,,,,,,,,,,,,,,780.2237010999816,None,carry,83,30,aloud,red,778.2243035000283,None,None,778.2243035000283,None,,,,,,,,,,,,,,,,,,,,,,,,,,,,,,,,,,,56Aloud,001,2022_Sep_26_1113,ProdSingRedoBetween,2021.2.3,60.35961047101678,
30,0,30,0,,,,,,,,,,,,,,,,,,,,,,,,,,782.7427052999847,None,state,61,31,aloud,red,780.7284411999863,None,None,780.7284411999863,None,,,,,,,,,,,,,,,,,,,,,,,,,,,,,,,,,,,56Aloud,001,2022_Sep_26_1113,ProdSingRedoBetween,2021.2.3,60.35961047101678,
31,0,31,0,,,,,,,,,,,,,,,,,,,,,,,,,,785.2451596000465,None,fight,30,32,aloud,blue,783.2432297000196,None,None,783.2432297000196,None,,,,,,,,,,,,,,,,,,,,,,,,,,,,,,,,,,,56Aloud,001,2022_Sep_26_1113,ProdSingRedoBetween,2021.2.3,60.35961047101678,
32,0,32,0,,,,,,,,,,,,,,,,,,,,,,,,,,787.7644014999969,None,skill,41,33,aloud,blue,785.7599849000107,None,None,785.7599849000107,None,,,,,,,,,,,,,,,,,,,,,,,,,,,,,,,,,,,56Aloud,001,2022_Sep_26_1113,ProdSingRedoBetween,2021.2.3,60.35961047101678,
33,0,33,0,,,,,,,,,,,,,,,,,,,,,,,,,,790.2669334000675,None,society,58,34,aloud,blue,788.2674213000573,None,None,788.2674213000573,None,,,,,,,,,,,,,,,,,,,,,,,,,,,,,,,,,,,56Aloud,001,2022_Sep_26_1113,ProdSingRedoBetween,2021.2.3,60.35961047101678,
34,0,34,0,,,,,,,,,,,,,,,,,,,,,,,,,,792.7862185999984,None,salary,19,35,aloud,yellow,790.7712763000745,None,None,790.7712763000745,None,,,,,,,,,,,,,,,,,,,,,,,,,,,,,,,,,,,56Aloud,001,2022_Sep_26_1113,ProdSingRedoBetween,2021.2.3,60.35961047101678,
35,0,35,0,,,,,,,,,,,,,,,,,,,,,,,,,,795.288685400039,None,interior,55,36,aloud,blue,793.2889672000892,None,None,793.2889672000892,None,,,,,,,,,,,,,,,,,,,,,,,,,,,,,,,,,,,56Aloud,001,2022_Sep_26_1113,ProdSingRedoBetween,2021.2.3,60.35961047101678,
36,0,36,0,,,,,,,,,,,,,,,,,,,,,,,,,,797.8077828000532,None,article,69,37,aloud,red,795.7924772000406,None,None,795.7924772000406,None,,,,,,,,,,,,,,,,,,,,,,,,,,,,,,,,,,,56Aloud,001,2022_Sep_26_1113,ProdSingRedoBetween,2021.2.3,60.35961047101678,
37,0,37,0,,,,,,,,,,,,,,,,,,,,,,,,,,800.32682940003,None,defeat,65,38,aloud,red,798.3117992000189,None,None,798.3117992000189,None,,,,,,,,,,,,,,,,,,,,,,,,,,,,,,,,,,,56Aloud,001,2022_Sep_26_1113,ProdSingRedoBetween,2021.2.3,60.35961047101678,
38,0,38,0,,,,,,,,,,,,,,,,,,,,,,,,,,802.82948090008,None,shear,29,39,aloud,blue,800.8290288000135,None,None,800.8290288000135,None,,,,,,,,,,,,,,,,,,,,,,,,,,,,,,,,,,,56Aloud,001,2022_Sep_26_1113,ProdSingRedoBetween,2021.2.3,60.35961047101678,
39,0,39,0,,,,,,,,,,,,,,,,,,,,,,,,,,805.3485688000219,None,strain,86,40,aloud,red,803.335210600053,None,None,803.335210600053,None,,,,,,,,,,,,,,,,,,,,,,,,,,,,,,,,,,,56Aloud,001,2022_Sep_26_1113,ProdSingRedoBetween,2021.2.3,60.35961047101678,
40,0,40,0,,,,,,,,,,,,,,,,,,,,,,,,,,807.8677779000718,None,curve,32,41,aloud,blue,805.8571268999949,None,None,805.8571268999949,None,,,,,,,,,,,,,,,,,,,,,,,,,,,,,,,,,,,56Aloud,001,2022_Sep_26_1113,ProdSingRedoBetween,2021.2.3,60.35961047101678,
41,0,41,0,,,,,,,,,,,,,,,,,,,,,,,,,,810.3701868000207,None,general,67,42,aloud,red,808.3696154000936,None,None,808.3696154000936,None,,,,,,,,,,,,,,,,,,,,,,,,,,,,,,,,,,,56Aloud,001,2022_Sep_26_1113,ProdSingRedoBetween,2021.2.3,60.35961047101678,
42,0,42,0,,,,,,,,,,,,,,,,,,,,,,,,,,812.8724383000517,None,guide,71,43,aloud,red,810.8709047000157,None,None,810.8709047000157,None,,,,,,,,,,,,,,,,,,,,,,,,,,,,,,,,,,,56Aloud,001,2022_Sep_26_1113,ProdSingRedoBetween,2021.2.3,60.35961047101678,
43,0,43,0,,,,,,,,,,,,,,,,,,,,,,,,,,815.3919379999861,None,scale,27,44,aloud,yellow,813.379330500029,None,None,813.379330500029,None,,,,,,,,,,,,,,,,,,,,,,,,,,,,,,,,,,,56Aloud,001,2022_Sep_26_1113,ProdSingRedoBetween,2021.2.3,60.35961047101678,
44,0,44,0,,,,,,,,,,,,,,,,,,,,,,,,,,817.8944100000663,None,victory,11,45,aloud,yellow,815.8931747000897,None,None,815.8931747000897,None,,,,,,,,,,,,,,,,,,,,,,,,,,,,,,,,,,,56Aloud,001,2022_Sep_26_1113,ProdSingRedoBetween,2021.2.3,60.35961047101678,
45,0,45,0,,,,,,,,,,,,,,,,,,,,,,,,,,820.3968411000678,None,build,56,46,aloud,blue,818.3949115000432,None,None,818.3949115000432,None,,,,,,,,,,,,,,,,,,,,,,,,,,,,,,,,,,,56Aloud,001,2022_Sep_26_1113,ProdSingRedoBetween,2021.2.3,60.35961047101678,
46,0,46,0,,,,,,,,,,,,,,,,,,,,,,,,,,822.8994983000448,None,author,28,47,aloud,yellow,820.8976864999859,None,None,820.8976864999859,None,,,,,,,,,,,,,,,,,,,,,,,,,,,,,,,,,,,56Aloud,001,2022_Sep_26_1113,ProdSingRedoBetween,2021.2.3,60.35961047101678,
47,0,47,0,,,,,,,,,,,,,,,,,,,,,,,,,,825.4017747000325,None,crime,5,48,aloud,yellow,823.4005243000574,None,None,823.4005243000574,None,,,,,,,,,,,,,,,,,,,,,,,,,,,,,,,,,,,56Aloud,001,2022_Sep_26_1113,ProdSingRedoBetween,2021.2.3,60.35961047101678,
48,0,48,0,,,,,,,,,,,,,,,,,,,,,,,,,,827.9043700000038,None,straight,78,49,aloud,red,825.9044780000113,None,None,825.9044780000113,None,,,,,,,,,,,,,,,,,,,,,,,,,,,,,,,,,,,56Aloud,001,2022_Sep_26_1113,ProdSingRedoBetween,2021.2.3,60.35961047101678,
49,0,49,0,,,,,,,,,,,,,,,,,,,,,,,,,,830.4236844000407,None,health,79,50,aloud,red,828.4084691000171,None,None,828.4084691000171,None,,,,,,,,,,,,,,,,,,,,,,,,,,,,,,,,,,,56Aloud,001,2022_Sep_26_1113,ProdSingRedoBetween,2021.2.3,60.35961047101678,
50,0,50,0,,,,,,,,,,,,,,,,,,,,,,,,,,832.9427646000404,None,stand,59,51,aloud,yellow,830.9353387000738,None,None,830.9353387000738,None,,,,,,,,,,,,,,,,,,,,,,,,,,,,,,,,,,,56Aloud,001,2022_Sep_26_1113,ProdSingRedoBetween,2021.2.3,60.35961047101678,
51,0,51,0,,,,,,,,,,,,,,,,,,,,,,,,,,835.4452733000508,None,captain,45,52,aloud,blue,833.4432958000107,None,None,833.4432958000107,None,,,,,,,,,,,,,,,,,,,,,,,,,,,,,,,,,,,56Aloud,001,2022_Sep_26_1113,ProdSingRedoBetween,2021.2.3,60.35961047101678,
52,0,52,0,,,,,,,,,,,,,,,,,,,,,,,,,,837.9477298000129,None,death,53,53,aloud,blue,835.9460314000025,None,None,835.9460314000025,None,,,,,,,,,,,,,,,,,,,,,,,,,,,,,,,,,,,56Aloud,001,2022_Sep_26_1113,ProdSingRedoBetween,2021.2.3,60.35961047101678,
53,0,53,0,,,,,,,,,,,,,,,,,,,,,,,,,,840.4503675000742,None,working,26,54,aloud,yellow,838.4482463999884,None,None,838.4482463999884,None,,,,,,,,,,,,,,,,,,,,,,,,,,,,,,,,,,,56Aloud,001,2022_Sep_26_1113,ProdSingRedoBetween,2021.2.3,60.35961047101678,
54,0,54,0,,,,,,,,,,,,,,,,,,,,,,,,,,842.9527711999835,None,husband,2,55,aloud,yellow,840.9515398000367,None,None,840.9515398000367,None,,,,,,,,,,,,,,,,,,,,,,,,,,,,,,,,,,,56Aloud,001,2022_Sep_26_1113,ProdSingRedoBetween,2021.2.3,60.35961047101678,
55,0,55,0,,,,,,,,,,,,,,,,,,,,,,,,,,845.4552854000358,None,opening,3,56,aloud,yellow,843.4558083000593,None,None,843.4558083000593,None,,,,,,,,,,,,,,,,,,,,,,,,,,,,,,,,,,,56Aloud,001,2022_Sep_26_1113,ProdSingRedoBetween,2021.2.3,60.35961047101678,
56,0,56,0,,,,,,,,,,,,,,,,,,,,,,,,,,847.9744531000033,None,course,8,57,aloud,yellow,845.9694544000085,None,None,845.9694544000085,None,,,,,,,,,,,,,,,,,,,,,,,,,,,,,,,,,,,56Aloud,001,2022_Sep_26_1113,ProdSingRedoBetween,2021.2.3,60.35961047101678,
57,0,57,0,,,,,,,,,,,,,,,,,,,,,,,,,,850.4936395999976,None,sound,4,58,aloud,yellow,848.4817856000736,None,None,848.4817856000736,None,,,,,,,,,,,,,,,,,,,,,,,,,,,,,,,,,,,56Aloud,001,2022_Sep_26_1113,ProdSingRedoBetween,2021.2.3,60.35961047101678,
58,0,58,0,,,,,,,,,,,,,,,,,,,,,,,,,,852.9961672000354,None,direction,39,59,aloud,blue,850.9938047000905,None,None,850.9938047000905,None,,,,,,,,,,,,,,,,,,,,,,,,,,,,,,,,,,,56Aloud,001,2022_Sep_26_1113,ProdSingRedoBetween,2021.2.3,60.35961047101678,
59,0,59,0,,,,,,,,,,,,,,,,,,,,,,,,,,855.5152909000171,None,dozen,48,60,aloud,blue,853.503577800002,None,None,853.503577800002,None,,,,,,,,,,,,,,,,,,,,,,,,,,,,,,,,,,,56Aloud,001,2022_Sep_26_1113,ProdSingRedoBetween,2021.2.3,60.35961047101678,
60,0,60,0,,,,,,,,,,,,,,,,,,,,,,,,,,858.0178219000809,None,cover,66,61,aloud,red,856.0156497000717,None,None,856.0156497000717,None,,,,,,,,,,,,,,,,,,,,,,,,,,,,,,,,,,,56Aloud,001,2022_Sep_26_1113,ProdSingRedoBetween,2021.2.3,60.35961047101678,
61,0,61,0,,,,,,,,,,,,,,,,,,,,,,,,,,860.5369413000299,None,report,76,62,aloud,red,858.5238872000482,None,None,858.5238872000482,None,,,,,,,,,,,,,,,,,,,,,,,,,,,,,,,,,,,56Aloud,001,2022_Sep_26_1113,ProdSingRedoBetween,2021.2.3,60.35961047101678,
62,0,62,0,,,,,,,,,,,,,,,,,,,,,,,,,,863.0394720000913,None,harmony,36,63,aloud,blue,861.0388776999898,None,None,861.0388776999898,None,,,,,,,,,,,,,,,,,,,,,,,,,,,,,,,,,,,56Aloud,001,2022_Sep_26_1113,ProdSingRedoBetween,2021.2.3,60.35961047101678,
63,0,63,0,,,,,,,,,,,,,,,,,,,,,,,,,,865.5586915999884,None,front,64,64,aloud,red,863.5432832000079,None,None,863.5432832000079,None,,,,,,,,,,,,,,,,,,,,,,,,,,,,,,,,,,,56Aloud,001,2022_Sep_26_1113,ProdSingRedoBetween,2021.2.3,60.35961047101678,
64,0,64,0,,,,,,,,,,,,,,,,,,,,,,,,,,868.060877699987,None,broad,35,65,aloud,blue,866.0591133000562,None,None,866.0591133000562,None,,,,,,,,,,,,,,,,,,,,,,,,,,,,,,,,,,,56Aloud,001,2022_Sep_26_1113,ProdSingRedoBetween,2021.2.3,60.35961047101678,
65,0,65,0,,,,,,,,,,,,,,,,,,,,,,,,,,870.5636338000186,None,match,37,66,aloud,blue,868.561646200018,None,None,868.561646200018,None,,,,,,,,,,,,,,,,,,,,,,,,,,,,,,,,,,,56Aloud,001,2022_Sep_26_1113,ProdSingRedoBetween,2021.2.3,60.35961047101678,
66,0,66,0,,,,,,,,,,,,,,,,,,,,,,,,,,873.0657940000528,None,murder,12,67,aloud,yellow,871.0657349000685,None,None,871.0657349000685,None,,,,,,,,,,,,,,,,,,,,,,,,,,,,,,,,,,,56Aloud,001,2022_Sep_26_1113,ProdSingRedoBetween,2021.2.3,60.35961047101678,
67,0,67,0,,,,,,,,,,,,,,,,,,,,,,,,,,875.5687368999934,None,afternoon,63,68,aloud,red,873.566619600053,None,None,873.566619600053,None,,,,,,,,,,,,,,,,,,,,,,,,,,,,,,,,,,,56Aloud,001,2022_Sep_26_1113,ProdSingRedoBetween,2021.2.3,60.35961047101678,
68,0,68,0,,,,,,,,,,,,,,,,,,,,,,,,,,878.0708150999853,None,speech,9,69,aloud,yellow,876.0700017000781,None,None,876.0700017000781,None,,,,,,,,,,,,,,,,,,,,,,,,,,,,,,,,,,,56Aloud,001,2022_Sep_26_1113,ProdSingRedoBetween,2021.2.3,60.35961047101678,
69,0,69,0,,,,,,,,,,,,,,,,,,,,,,,,,,880.5736849000677,None,commercial,74,70,aloud,red,878.5715966999996,None,None,878.5715966999996,None,,,,,,,,,,,,,,,,,,,,,,,,,,,,,,,,,,,56Aloud,001,2022_Sep_26_1113,ProdSingRedoBetween,2021.2.3,60.35961047101678,
70,0,70,0,,,,,,,,,,,,,,,,,,,,,,,,,,883.0761845000088,None,birth,60,71,aloud,red,881.0738072000677,None,None,881.0738072000677,None,,,,,,,,,,,,,,,,,,,,,,,,,,,,,,,,,,,56Aloud,001,2022_Sep_26_1113,ProdSingRedoBetween,2021.2.3,60.35961047101678,
71,0,71,0,,,,,,,,,,,,,,,,,,,,,,,,,,885.5953227999853,None,smell,13,72,aloud,yellow,883.5801707000937,None,None,883.5801707000937,None,,,,,,,,,,,,,,,,,,,,,,,,,,,,,,,,,,,56Aloud,001,2022_Sep_26_1113,ProdSingRedoBetween,2021.2.3,60.35961047101678,
72,0,72,0,,,,,,,,,,,,,,,,,,,,,,,,,,888.0977390999906,None,hunger,33,73,aloud,blue,886.0958220000612,None,None,886.0958220000612,None,,,,,,,,,,,,,,,,,,,,,,,,,,,,,,,,,,,56Aloud,001,2022_Sep_26_1113,ProdSingRedoBetween,2021.2.3,60.35961047101678,
73,0,73,0,,,,,,,,,,,,,,,,,,,,,,,,,,890.6002866000636,None,surprise,31,74,aloud,blue,888.600763100083,None,None,888.600763100083,None,,,,,,,,,,,,,,,,,,,,,,,,,,,,,,,,,,,56Aloud,001,2022_Sep_26_1113,ProdSingRedoBetween,2021.2.3,60.35961047101678,
74,0,74,0,,,,,,,,,,,,,,,,,,,,,,,,,,893.11936900008,None,equipment,73,75,aloud,red,891.1085606000852,None,None,891.1085606000852,None,,,,,,,,,,,,,,,,,,,,,,,,,,,,,,,,,,,56Aloud,001,2022_Sep_26_1113,ProdSingRedoBetween,2021.2.3,60.35961047101678,
75,0,75,0,,,,,,,,,,,,,,,,,,,,,,,,,,895.6220257000532,None,graduate,10,76,aloud,yellow,893.6211194000207,None,None,893.6211194000207,None,,,,,,,,,,,,,,,,,,,,,,,,,,,,,,,,,,,56Aloud,001,2022_Sep_26_1113,ProdSingRedoBetween,2021.2.3,60.35961047101678,
76,0,76,0,,,,,,,,,,,,,,,,,,,,,,,,,,898.1411347000394,None,oxygen,7,77,aloud,yellow,896.1278995000757,None,None,896.1278995000757,None,,,,,,,,,,,,,,,,,,,,,,,,,,,,,,,,,,,56Aloud,001,2022_Sep_26_1113,ProdSingRedoBetween,2021.2.3,60.35961047101678,
77,0,77,0,,,,,,,,,,,,,,,,,,,,,,,,,,900.6603270000778,None,drove,17,78,aloud,yellow,898.6497447000584,None,None,898.6497447000584,None,,,,,,,,,,,,,,,,,,,,,,,,,,,,,,,,,,,56Aloud,001,2022_Sep_26_1113,ProdSingRedoBetween,2021.2.3,60.35961047101678,
78,0,78,0,,,,,,,,,,,,,,,,,,,,,,,,,,903.1629481000127,None,religion,25,79,aloud,yellow,901.1627731000772,None,None,901.1627731000772,None,,,,,,,,,,,,,,,,,,,,,,,,,,,,,,,,,,,56Aloud,001,2022_Sep_26_1113,ProdSingRedoBetween,2021.2.3,60.35961047101678,
79,0,79,0,,,,,,,,,,,,,,,,,,,,,,,,,,905.6654573000269,None,swift,77,80,aloud,red,903.6660862000426,None,None,903.6660862000426,None,,,,,,,,,,,,,,,,,,,,,,,,,,,,,,,,,,,56Aloud,001,2022_Sep_26_1113,ProdSingRedoBetween,2021.2.3,60.35961047101678,
80,0,80,0,,,,,,,,,,,,,,,,,,,,,,,,,,908.1845099000493,None,weight,47,81,aloud,blue,906.1722604000242,None,None,906.1722604000242,None,,,,,,,,,,,,,,,,,,,,,,,,,,,,,,,,,,,56Aloud,001,2022_Sep_26_1113,ProdSingRedoBetween,2021.2.3,60.35961047101678,
81,0,81,0,,,,,,,,,,,,,,,,,,,,,,,,,,910.6869151000865,None,pressure,22,82,aloud,yellow,908.6878941000905,None,None,908.6878941000905,None,,,,,,,,,,,,,,,,,,,,,,,,,,,,,,,,,,,56Aloud,001,2022_Sep_26_1113,ProdSingRedoBetween,2021.2.3,60.35961047101678,
82,0,82,0,,,,,,,,,,,,,,,,,,,,,,,,,,913.2061942000873,None,subject,0,83,aloud,yellow,911.1928781000897,None,None,911.1928781000897,None,,,,,,,,,,,,,,,,,,,,,,,,,,,,,,,,,,,56Aloud,001,2022_Sep_26_1113,ProdSingRedoBetween,2021.2.3,60.35961047101678,
83,0,83,0,,,,,,,,,,,,,,,,,,,,,,,,,,915.7086886999896,None,second,81,84,aloud,red,913.7097197000403,None,None,913.7097197000403,None,,,,,,,,,,,,,,,,,,,,,,,,,,,,,,,,,,,56Aloud,001,2022_Sep_26_1113,ProdSingRedoBetween,2021.2.3,60.35961047101678,
84,0,84,0,,,,,,,,,,,,,,,,,,,,,,,,,,918.2280258000828,None,smooth,62,85,aloud,red,916.2175035000546,None,None,916.2175035000546,None,,,,,,,,,,,,,,,,,,,,,,,,,,,,,,,,,,,56Aloud,001,2022_Sep_26_1113,ProdSingRedoBetween,2021.2.3,60.35961047101678,
85,0,85,0,,,,,,,,,,,,,,,,,,,,,,,,,,920.7470649000024,None,tennis,54,86,aloud,blue,918.7352783000097,None,None,918.7352783000097,None,,,,,,,,,,,,,,,,,,,,,,,,,,,,,,,,,,,56Aloud,001,2022_Sep_26_1113,ProdSingRedoBetween,2021.2.3,60.35961047101678,
86,0,86,0,,,,,,,,,,,,,,,,,,,,,,,,,,923.2496070000343,None,power,38,87,aloud,blue,921.2475225999951,None,None,921.2475225999951,None,,,,,,,,,,,,,,,,,,,,,,,,,,,,,,,,,,,56Aloud,001,2022_Sep_26_1113,ProdSingRedoBetween,2021.2.3,60.35961047101678,
87,0,87,0,,,,,,,,,,,,,,,,,,,,,,,,,,925.7519513000734,None,chief,43,88,aloud,blue,923.7511446999852,None,None,923.7511446999852,None,,,,,,,,,,,,,,,,,,,,,,,,,,,,,,,,,,,56Aloud,001,2022_Sep_26_1113,ProdSingRedoBetween,2021.2.3,60.35961047101678,
88,0,88,0,,,,,,,,,,,,,,,,,,,,,,,,,,928.271140600089,None,court,57,89,aloud,blue,926.2563727999805,None,None,926.2563727999805,None,,,,,,,,,,,,,,,,,,,,,,,,,,,,,,,,,,,56Aloud,001,2022_Sep_26_1113,ProdSingRedoBetween,2021.2.3,60.35961047101678,
89,0,89,0,,,,,,,,,,,,,,,,,,,,,,,,,,930.7736371000065,None,trial,6,90,aloud,yellow,928.771454700036,None,None,928.771454700036,None,,,,,,,,,,,,,,,,,,,,,,,,,,,,,,,,,,,56Aloud,001,2022_Sep_26_1113,ProdSingRedoBetween,2021.2.3,60.35961047101678,
,,,,,,,,,,,,,,,,,,,,,,,,,,,,,,,,,,,,,,,,,931.274387100013,None,k,127.26682010001969,931.274387100013,None,,,,,,,,,,,,,,,,,,,,,,,,,,,,,56Aloud,001,2022_Sep_26_1113,ProdSingRedoBetween,2021.2.3,60.35961047101678,
,,,,0,0,0,0,,,,,,,,,,,,,,,,,,,,,,1068.0939224000322,None,,,,,,,,,,,,,,,,,crisis,118,1,aloud,new,null,1059.0742282000137,None,1059.0742282000137,None,1,4.690971200005151,1059.0742282000137,None,4.690971200005151,1063.7940162000014,None,1064.3087185000768,None,1064.3087185000768,None,n,3.7684050999814644,1064.3087185000768,None,3.7684050999814644,,,56Aloud,001,2022_Sep_26_1113,ProdSingRedoBetween,2021.2.3,60.35961047101678,
,,,,1,0,1,0,,,,,,,,,,,,,,,,,,,,,,1076.1853087000782,None,,,,,,,,,,,,,,,,,afternoon,63,2,aloud,old,red,1068.6053188000806,None,1068.6053188000806,None,6,4.167897499981336,1068.6053188000806,None,4.167897499981336,1072.7986593000824,None,1073.306481000036,None,1073.306481000036,None,r,2.8507030999753624,1073.306481000036,None,2.8507030999753624,,,56Aloud,001,2022_Sep_26_1113,ProdSingRedoBetween,2021.2.3,60.35961047101678,
,,,,2,0,2,0,,,,,,,,,,,,,,,,,,,,,,1080.7563122999854,None,,,,,,,,,,,,,,,,,company,175,3,aloud,new,null,1076.6953740000026,None,1076.6953740000026,None,1,2.14176440006122,1076.6953740000026,None,2.14176440006122,1078.8560980000766,None,1079.3616806000937,None,1079.3616806000937,None,n,1.3714767000637949,1079.3616806000937,None,1.3714767000637949,,,56Aloud,001,2022_Sep_26_1113,ProdSingRedoBetween,2021.2.3,60.35961047101678,
,,,,3,0,3,0,,,,,,,,,,,,,,,,,,,,,,1087.229609400034,None,,,,,,,,,,,,,,,,,pancakes,16,4,aloud,old,yellow,1081.261014000047,None,1081.261014000047,None,6,2.344010000000708,1081.261014000047,None,2.344010000000708,1083.6285031000152,None,1084.1433393000625,None,1084.1433393000625,None,r,3.061836800072342,1084.1433393000625,None,3.061836800072342,,,56Aloud,001,2022_Sep_26_1113,ProdSingRedoBetween,2021.2.3,60.35961047101678,
,,,,4,0,4,0,,,,,,,,,,,,,,,,,,,,,,1090.9701381000923,None,,,,,,,,,,,,,,,,,waste,136,5,aloud,new,null,1087.7349861999974,None,1087.7349861999974,None,1,1.8381749000400305,1087.7349861999974,None,1.8381749000400305,1089.6000086000422,None,1090.1038815000793,None,1090.1038815000793,None,n,0.8371675999369472,1090.1038815000793,None,0.8371675999369472,,,56Aloud,001,2022_Sep_26_1113,ProdSingRedoBetween,2021.2.3,60.35961047101678,
,,,,5,0,5,0,,,,,,,,,,,,,,,,,,,,,,1101.1268542000325,None,,,,,,,,,,,,,,,,,surprise,31,6,aloud,old,blue,1091.4852495000232,None,1091.4852495000232,None,5,7.727940700016916,1091.4852495000232,None,7.727940700016916,1099.242732200073,None,1099.745305599994,None,1099.745305599994,None,f,1.3637916999869049,1099.745305599994,None,1.3637916999869049,,,56Aloud,001,2022_Sep_26_1113,ProdSingRedoBetween,2021.2.3,60.35961047101678,
,,,,6,0,6,0,,,,,,,,,,,,,,,,,,,,,,1116.3420924000675,None,,,,,,,,,,,,,,,,,interview,140,7,aloud,new,null,1101.6389414999867,None,1101.6389414999867,None,4,10.870038900058717,1101.6389414999867,None,10.870038900058717,1112.5403045000276,None,1113.0622600000352,None,1113.0622600000352,None,f,3.254850000026636,1113.0622600000352,None,3.254850000026636,,,56Aloud,001,2022_Sep_26_1113,ProdSingRedoBetween,2021.2.3,60.35961047101678,
,,,,7,0,7,0,,,,,,,,,,,,,,,,,,,,,,1122.998743400094,None,,,,,,,,,,,,,,,,,career,164,8,aloud,new,null,1116.8516972000943,None,1116.8516972000943,None,2,4.2492959999945015,1116.8516972000943,None,4.2492959999945015,1121.134537300095,None,1121.6473172000842,None,1121.6473172000842,None,n,1.3257587000261992,1121.6473172000842,None,1.3257587000261992,,,56Aloud,001,2022_Sep_26_1113,ProdSingRedoBetween,2021.2.3,60.35961047101678,
,,,,8,0,8,0,,,,,,,,,,,,,,,,,,,,,,1127.8034944999963,None,,,,,,,,,,,,,,,,,birth,60,9,aloud,old,red,1123.4992465000832,None,1123.4992465000832,None,5,2.9378560000332072,1123.4992465000832,None,2.9378560000332072,1126.4531961000757,None,1126.9546700000064,None,1126.9546700000064,None,f,0.8264747000066563,1126.9546700000064,None,0.8264747000066563,,,56Aloud,001,2022_Sep_26_1113,ProdSingRedoBetween,2021.2.3,60.35961047101678,
,,,,9,0,9,0,,,,,,,,,,,,,,,,,,,,,,1139.932230800041,None,,,,,,,,,,,,,,,,,century,157,10,aloud,new,null,1128.3073176000034,None,1128.3073176000034,None,3,6.7697050999850035,1128.3073176000034,None,6.7697050999850035,1135.0962768000318,None,1135.6147869999986,None,1135.6147869999986,None,n,4.294268999947235,1135.6147869999986,None,4.294268999947235,,,56Aloud,001,2022_Sep_26_1113,ProdSingRedoBetween,2021.2.3,60.35961047101678,
,,,,10,0,10,0,,,,,,,,,,,,,,,,,,,,,,1145.0377633000026,None,,,,,,,,,,,,,,,,,worker,135,11,aloud,new,null,1140.445049000089,None,1140.445049000089,None,2,3.103995200013742,1140.445049000089,None,3.103995200013742,1143.5712801000336,None,1144.0893655000255,None,1144.0893655000255,None,n,0.9317285999422893,1144.0893655000255,None,0.9317285999422893,,,56Aloud,001,2022_Sep_26_1113,ProdSingRedoBetween,2021.2.3,60.35961047101678,
,,,,11,0,11,0,,,,,,,,,,,,,,,,,,,,,,1149.3080715000397,None,,,,,,,,,,,,,,,,,partner,46,12,aloud,old,blue,1145.554683100083,None,1145.554683100083,None,6,2.1623610999668017,1145.554683100083,None,2.1623610999668017,1147.7414965000935,None,1148.2404567000922,None,1148.2404567000922,None,r,1.0526146000484005,1148.2404567000922,None,1.0526146000484005,,,56Aloud,001,2022_Sep_26_1113,ProdSingRedoBetween,2021.2.3,60.35961047101678,
,,,,12,0,12,0,,,,,,,,,,,,,,,,,,,,,,1157.950246600085,None,,,,,,,,,,,,,,,,,subject,0,13,aloud,old,yellow,1149.8125317000085,None,1149.8125317000085,None,3,6.984515200019814,1149.8125317000085,None,6.984515200019814,1156.8302610000828,None,1157.3330552000552,None,1157.3330552000552,None,f,0.5999468000372872,1157.3330552000552,None,0.5999468000372872,,,56Aloud,001,2022_Sep_26_1113,ProdSingRedoBetween,2021.2.3,60.35961047101678,
,,,,13,0,13,0,,,,,,,,,,,,,,,,,,,,,,1163.355846600025,None,,,,,,,,,,,,,,,,,smooth,62,14,aloud,old,red,1158.460643800092,None,1158.460643800092,None,2,3.368367000017315,1158.460643800092,None,3.368367000017315,1161.856232500053,None,1162.3780686000828,None,1162.3780686000828,None,n,0.9550218000076711,1162.3780686000828,None,0.9550218000076711,,,56Aloud,001,2022_Sep_26_1113,ProdSingRedoBetween,2021.2.3,60.35961047101678,
,,,,14,0,14,0,,,,,,,,,,,,,,,,,,,,,,1167.0593018000945,None,,,,,,,,,,,,,,,,,graduate,10,15,aloud,old,yellow,1163.8665515000466,None,1163.8665515000466,None,5,2.4745337000349537,1163.8665515000466,None,2.4745337000349537,1166.3598365000216,None,1166.8633185999934,None,1166.8633185999934,None,f,0.16574900003615767,1166.8633185999934,None,0.16574900003615767,,,56Aloud,001,2022_Sep_26_1113,ProdSingRedoBetween,2021.2.3,60.35961047101678,
,,,,15,0,15,0,,,,,,,,,,,,,,,,,,,,,,1170.7296474000905,None,,,,,,,,,,,,,,,,,review,161,16,aloud,new,null,1167.5750812999904,None,1167.5750812999904,None,1,1.741848999983631,1167.5750812999904,None,1.741848999983631,1169.3463557000505,None,1169.8621883000014,None,1169.8621883000014,None,n,0.8389290999621153,1169.8621883000014,None,0.8389290999621153,,,56Aloud,001,2022_Sep_26_1113,ProdSingRedoBetween,2021.2.3,60.35961047101678,
,,,,16,0,16,0,,,,,,,,,,,,,,,,,,,,,,1174.1010857000947,None,,,,,,,,,,,,,,,,,theme,114,17,aloud,new,null,1171.239350900054,None,1171.239350900054,None,1,1.5575646000215784,1171.239350900054,None,1.5575646000215784,1172.8158302000957,None,1173.3268013000488,None,1173.3268013000488,None,n,0.7504030000418425,1173.3268013000488,None,0.7504030000418425,,,56Aloud,001,2022_Sep_26_1113,ProdSingRedoBetween,2021.2.3,60.35961047101678,
,,,,17,0,17,0,,,,,,,,,,,,,,,,,,,,,,1178.8376319999807,None,,,,,,,,,,,,,,,,,broad,35,18,aloud,old,blue,1174.6032458000118,None,1174.6032458000118,None,4,2.8657469999743626,1174.6032458000118,None,2.8657469999743626,1177.4894544000272,None,1178.0034329000628,None,1178.0034329000628,None,f,0.8095983000239357,1178.0034329000628,None,0.8095983000239357,,,56Aloud,001,2022_Sep_26_1113,ProdSingRedoBetween,2021.2.3,60.35961047101678,
,,,,18,0,18,0,,,,,,,,,,,,,,,,,,,,,,1182.8083468000405,None,,,,,,,,,,,,,,,,,crime,5,19,aloud,old,yellow,1179.339686500025,None,1179.339686500025,None,6,1.6412227000109851,1179.339686500025,None,1.6412227000109851,1181.006197800045,None,1181.5073295000475,None,1181.5073295000475,None,r,1.2816559000639245,1181.5073295000475,None,1.2816559000639245,,,56Aloud,001,2022_Sep_26_1113,ProdSingRedoBetween,2021.2.3,60.35961047101678,
,,,,19,0,19,0,,,,,,,,,,,,,,,,,,,,,,1187.930035400088,None,,,,,,,,,,,,,,,,,sound,4,20,aloud,old,yellow,1183.319138700026,None,1183.319138700026,None,3,1.9419047000119463,1183.319138700026,None,1.9419047000119463,1185.2805742000928,None,1185.7993266000412,None,1185.7993266000412,None,n,2.101735100033693,1185.7993266000412,None,2.101735100033693,,,56Aloud,001,2022_Sep_26_1113,ProdSingRedoBetween,2021.2.3,60.35961047101678,
,,,,20,0,20,0,,,,,,,,,,,,,,,,,,,,,,1191.842640100047,None,,,,,,,,,,,,,,,,,pressure,22,21,aloud,old,yellow,1188.4411513999803,None,1188.4411513999803,None,1,1.6679235000628978,1188.4411513999803,None,1.6679235000628978,1190.1410319000715,None,1190.64978159999,None,1190.64978159999,None,n,1.1554808999644592,1190.64978159999,None,1.1554808999644592,,,56Aloud,001,2022_Sep_26_1113,ProdSingRedoBetween,2021.2.3,60.35961047101678,
,,,,21,0,21,0,,,,,,,,,,,,,,,,,,,,,,1197.0225030999864,None,,,,,,,,,,,,,,,,,evidence,168,22,aloud,new,null,1192.3633742000675,None,1192.3633742000675,None,2,3.3696053999010473,1192.3633742000675,None,3.3696053999010473,1195.7565760000143,None,1196.2802763000363,None,1196.2802763000363,None,n,0.7167126999702305,1196.2802763000363,None,0.7167126999702305,,,56Aloud,001,2022_Sep_26_1113,ProdSingRedoBetween,2021.2.3,60.35961047101678,
,,,,22,0,22,0,,,,,,,,,,,,,,,,,,,,,,1200.9459054000909,None,,,,,,,,,,,,,,,,,primary,130,23,aloud,new,null,1197.5260330000892,None,1197.5260330000892,None,1,1.6630530999973416,1197.5260330000892,None,1.6630530999973416,1199.2091073000338,None,1199.7141657000175,None,1199.7141657000175,None,n,1.21079100004863,1199.7141657000175,None,1.21079100004863,,,56Aloud,001,2022_Sep_26_1113,ProdSingRedoBetween,2021.2.3,60.35961047101678,
,,,,23,0,23,0,,,,,,,,,,,,,,,,,,,,,,1207.4526818000013,None,,,,,,,,,,,,,,,,,quiet,100,24,aloud,new,null,1201.4612674000673,None,1201.4612674000673,None,2,4.311685200082138,1201.4612674000673,None,4.311685200082138,1205.806748400093,None,1206.3209473000607,None,1206.3209473000607,None,n,1.108217499917373,1206.3209473000607,None,1.108217499917373,,,56Aloud,001,2022_Sep_26_1113,ProdSingRedoBetween,2021.2.3,60.35961047101678,
,,,,24,0,24,0,,,,,,,,,,,,,,,,,,,,,,1211.7204641000135,None,,,,,,,,,,,,,,,,,taste,125,25,aloud,new,null,1207.9696170000825,None,1207.9696170000825,None,1,2.4593166999984533,1207.9696170000825,None,2.4593166999984533,1210.4537872000365,None,1210.9568556000013,None,1210.9568556000013,None,n,0.7360356000717729,1210.9568556000013,None,0.7360356000717729,,,56Aloud,001,2022_Sep_26_1113,ProdSingRedoBetween,2021.2.3,60.35961047101678,
,,,,25,0,25,0,,,,,,,,,,,,,,,,,,,,,,1214.7569116000086,None,,,,,,,,,,,,,,,,,cousin,104,26,aloud,new,null,1212.2260176000418,None,1212.2260176000418,None,1,1.6909077999880537,1212.2260176000418,None,1.6909077999880537,1213.9410353000276,None,1214.4497998000588,None,1214.4497998000588,None,n,0.29104559996630996,1214.4497998000588,None,0.29104559996630996,,,56Aloud,001,2022_Sep_26_1113,ProdSingRedoBetween,2021.2.3,60.35961047101678,
,,,,26,0,26,0,,,,,,,,,,,,,,,,,,,,,,1217.259335800074,None,,,,,,,,,,,,,,,,,passage,21,27,aloud,old,yellow,1215.2606752000283,None,1215.2606752000283,None,1,1.3283462999388576,1215.2606752000283,None,1.3283462999388576,1216.619349900051,None,1217.1260584000265,None,1217.1260584000265,None,n,0.10292309999931604,1217.1260584000265,None,0.10292309999931604,,,56Aloud,001,2022_Sep_26_1113,ProdSingRedoBetween,2021.2.3,60.35961047101678,
,,,,27,0,27,0,,,,,,,,,,,,,,,,,,,,,,1219.5950312000932,None,,,,,,,,,,,,,,,,,gesture,147,28,aloud,new,null,1217.7726273000007,None,1217.7726273000007,None,1,1.224461300065741,1217.7726273000007,None,1.224461300065741,1219.0287683000788,None,1219.5372161000269,None,1219.5372161000269,None,n,0.027723300037905574,1219.5372161000269,None,0.027723300037905574,,,56Aloud,001,2022_Sep_26_1113,ProdSingRedoBetween,2021.2.3,60.35961047101678,
,,,,28,0,28,0,,,,,,,,,,,,,,,,,,,,,,1222.1475225000177,None,,,,,,,,,,,,,,,,,surface,131,29,aloud,new,null,1220.0993468000088,None,1220.0993468000088,None,1,1.3615990999387577,1220.0993468000088,None,1.3615990999387577,1221.484918900067,None,1221.9973898000317,None,1221.9973898000317,None,n,0.12752549990545958,1221.9973898000317,None,0.12752549990545958,,,56Aloud,001,2022_Sep_26_1113,ProdSingRedoBetween,2021.2.3,60.35961047101678,
,,,,29,0,29,0,,,,,,,,,,,,,,,,,,,,,,1228.506177800009,None,,,,,,,,,,,,,,,,,damage,23,30,aloud,old,yellow,1222.6558706000214,None,1222.6558706000214,None,1,4.501088500022888,1222.6558706000214,None,4.501088500022888,1227.1864547000732,None,1227.7017971000168,None,1227.7017971000168,None,n,0.7751700000371784,1227.7017971000168,None,0.7751700000371784,,,56Aloud,001,2022_Sep_26_1113,ProdSingRedoBetween,2021.2.3,60.35961047101678,
,,,,30,0,30,0,,,,,,,,,,,,,,,,,,,,,,1231.2917475000722,None,,,,,,,,,,,,,,,,,safety,50,31,aloud,old,blue,1229.0366050000302,None,1229.0366050000302,None,1,1.3363795999903232,1229.0366050000302,None,1.3363795999903232,1230.394404200022,None,1230.910814300063,None,1230.910814300063,None,n,0.3503535999916494,1230.910814300063,None,0.3503535999916494,,,56Aloud,001,2022_Sep_26_1113,ProdSingRedoBetween,2021.2.3,60.35961047101678,
,,,,31,0,31,0,,,,,,,,,,,,,,,,,,,,,,1233.8758167000487,None,,,,,,,,,,,,,,,,,interior,55,32,aloud,old,blue,1231.7993270000443,None,1231.7993270000443,None,1,1.253692099940963,1231.7993270000443,None,1.253692099940963,1233.0777772000292,None,1233.5924364000093,None,1233.5924364000093,None,n,0.26845390000380576,1233.5924364000093,None,0.26845390000380576,,,56Aloud,001,2022_Sep_26_1113,ProdSingRedoBetween,2021.2.3,60.35961047101678,
,,,,32,0,32,0,,,,,,,,,,,,,,,,,,,,,,1237.129157599993,None,,,,,,,,,,,,,,,,,majority,93,33,aloud,new,null,1234.3815081000794,None,1234.3815081000794,None,1,1.6474472000263631,1234.3815081000794,None,1.6474472000263631,1236.0538340000203,None,1236.562061500037,None,1236.562061500037,None,n,0.5388543999288231,1236.562061500037,None,0.5388543999288231,,,56Aloud,001,2022_Sep_26_1113,ProdSingRedoBetween,2021.2.3,60.35961047101678,
,,,,33,0,33,0,,,,,,,,,,,,,,,,,,,,,,1241.2497108000098,None,,,,,,,,,,,,,,,,,curve,32,34,aloud,old,blue,1237.6497290000552,None,1237.6497290000552,None,1,1.9551806000526994,1237.6497290000552,None,1.9551806000526994,1239.6393946000608,None,1240.1605985000497,None,1240.1605985000497,None,n,1.0681653999490663,1240.1605985000497,None,1.0681653999490663,,,56Aloud,001,2022_Sep_26_1113,ProdSingRedoBetween,2021.2.3,60.35961047101678,
,,,,34,0,34,0,,,,,,,,,,,,,,,,,,,,,,1245.0035793000134,None,,,,,,,,,,,,,,,,,heavy,155,35,aloud,new,null,1241.7538875000319,None,1241.7538875000319,None,3,2.2110715999733657,1241.7538875000319,None,2.2110715999733657,1243.9969008000335,None,1244.514695800026,None,1244.514695800026,None,n,0.46623259992338717,1244.514695800026,None,0.46623259992338717,,,56Aloud,001,2022_Sep_26_1113,ProdSingRedoBetween,2021.2.3,60.35961047101678,
,,,,35,0,35,0,,,,,,,,,,,,,,,,,,,,,,1249.9920031999936,None,,,,,,,,,,,,,,,,,society,58,36,aloud,old,blue,1245.509474300081,None,1245.509474300081,None,4,2.935422300011851,1245.509474300081,None,2.935422300011851,1248.474742499995,None,1248.9743491000263,None,1248.9743491000263,None,f,0.9985120000783354,1248.9743491000263,None,0.9985120000783354,,,56Aloud,001,2022_Sep_26_1113,ProdSingRedoBetween,2021.2.3,60.35961047101678,
,,,,36,0,36,0,,,,,,,,,,,,,,,,,,,,,,1253.6121732000029,None,,,,,,,,,,,,,,,,,government,111,37,aloud,new,null,1250.5014034000924,None,1250.5014034000924,None,3,2.0875589000061154,1250.5014034000924,None,2.0875589000061154,1252.623376899981,None,1253.1286507000914,None,1253.1286507000914,None,n,0.46826700004749,1253.1286507000914,None,0.46826700004749,,,56Aloud,001,2022_Sep_26_1113,ProdSingRedoBetween,2021.2.3,60.35961047101678,
,,,,37,0,37,0,,,,,,,,,,,,,,,,,,,,,,1257.5161468000151,None,,,,,,,,,,,,,,,,,fight,30,38,aloud,old,blue,1254.1152079000603,None,1254.1152079000603,None,3,2.6256408999906853,1254.1152079000603,None,2.6256408999906853,1256.7671686999965,None,1257.2873972000089,None,1257.2873972000089,None,n,0.19751900003757328,1257.2873972000089,None,0.19751900003757328,,,56Aloud,001,2022_Sep_26_1113,ProdSingRedoBetween,2021.2.3,60.35961047101678,
,,,,38,0,38,0,,,,,,,,,,,,,,,,,,,,,,1260.0685186000774,None,,,,,,,,,,,,,,,,,range,92,39,aloud,new,null,1258.0244237000588,None,1258.0244237000588,None,3,1.3165046001086012,1258.0244237000588,None,1.3165046001086012,1259.3722855000524,None,1259.8872372000478,None,1259.8872372000478,None,n,0.1655966000398621,1259.8872372000478,None,0.1655966000398621,,,56Aloud,001,2022_Sep_26_1113,ProdSingRedoBetween,2021.2.3,60.35961047101678,
,,,,39,0,39,0,,,,,,,,,,,,,,,,,,,,,,1263.2767308000475,None,,,,,,,,,,,,,,,,,military,170,40,aloud,new,null,1260.5823106000898,None,1260.5823106000898,None,1,2.046540500014089,1260.5823106000898,None,2.046540500014089,1262.6571580000455,None,1263.1772030000575,None,1263.1772030000575,None,n,0.06787459994666278,1263.1772030000575,None,0.06787459994666278,,,56Aloud,001,2022_Sep_26_1113,ProdSingRedoBetween,2021.2.3,60.35961047101678,
,,,,40,0,40,0,,,,,,,,,,,,,,,,,,,,,,1265.7742059000302,None,,,,,,,,,,,,,,,,,object,112,41,aloud,new,null,1263.789103700081,None,1263.789103700081,None,1,1.3757641999982297,1263.789103700081,None,1.3757641999982297,1265.1916891,None,1265.697480800096,None,1265.697480800096,None,n,0.059358400059863925,1265.697480800096,None,0.059358400059863925,,,56Aloud,001,2022_Sep_26_1113,ProdSingRedoBetween,2021.2.3,60.35961047101678,
,,,,41,0,41,0,,,,,,,,,,,,,,,,,,,,,,1269.3445885999827,None,,,,,,,,,,,,,,,,,dispute,108,42,aloud,new,null,1266.2787250999827,None,1266.2787250999827,None,1,1.2541342000477016,1266.2787250999827,None,1.2541342000477016,1267.565383600071,None,1268.0767882000655,None,1268.0767882000655,None,n,1.2399877000134438,1268.0767882000655,None,1.2399877000134438,,,56Aloud,001,2022_Sep_26_1113,ProdSingRedoBetween,2021.2.3,60.35961047101678,
,,,,42,0,42,0,,,,,,,,,,,,,,,,,,,,,,1274.6857934000436,None,,,,,,,,,,,,,,,,,sweet,87,43,aloud,old,red,1269.854493400082,None,1269.854493400082,None,5,2.96626939997077,1269.854493400082,None,2.96626939997077,1272.8490678000962,None,1273.3515473000007,None,1273.3515473000007,None,f,1.3093901999527588,1273.3515473000007,None,1.3093901999527588,,,56Aloud,001,2022_Sep_26_1113,ProdSingRedoBetween,2021.2.3,60.35961047101678,
,,,,43,0,43,0,,,,,,,,,,,,,,,,,,,,,,1279.3878979000729,None,,,,,,,,,,,,,,,,,literature,151,44,aloud,new,null,1275.2093538000481,None,1275.2093538000481,None,1,3.5953986999811605,1275.2093538000481,None,3.5953986999811605,1278.8219286000822,None,1279.3256920999847,None,1279.3256920999847,None,n,0.031233200104907155,1279.3256920999847,None,0.031233200104907155,,,56Aloud,001,2022_Sep_26_1113,ProdSingRedoBetween,2021.2.3,60.35961047101678,
,,,,44,0,44,0,,,,,,,,,,,,,,,,,,,,,,1282.6578896000283,None,,,,,,,,,,,,,,,,,order,162,45,aloud,new,null,1279.8996270000935,None,1279.8996270000935,None,1,1.2492456000763923,1279.8996270000935,None,1.2492456000763923,1281.1792381000705,None,1281.6924416000256,None,1281.6924416000256,None,n,0.9443873999407515,1281.6924416000256,None,0.9443873999407515,,,56Aloud,001,2022_Sep_26_1113,ProdSingRedoBetween,2021.2.3,60.35961047101678,
,,,,45,0,45,0,,,,,,,,,,,,,,,,,,,,,,1285.0102943000384,None,,,,,,,,,,,,,,,,,clear,88,46,aloud,old,red,1283.160429200041,None,1283.160429200041,None,1,1.276414299965836,1283.160429200041,None,1.276414299965836,1284.4608616000041,None,1284.9602838000283,None,1284.9602838000283,None,n,0.028598599950782955,1284.9602838000283,None,0.028598599950782955,,,56Aloud,001,2022_Sep_26_1113,ProdSingRedoBetween,2021.2.3,60.35961047101678,
,,,,46,0,46,0,,,,,,,,,,,,,,,,,,,,,,1289.3657868000446,None,,,,,,,,,,,,,,,,,direction,39,47,aloud,old,blue,1285.5221361999866,None,1285.5221361999866,None,4,2.9065389999886975,1285.5221361999866,None,2.9065389999886975,1288.447521300055,None,1288.950907099992,None,1288.950907099992,None,f,0.3739519000519067,1288.950907099992,None,0.3739519000519067,,,56Aloud,001,2022_Sep_26_1113,ProdSingRedoBetween,2021.2.3,60.35961047101678,
,,,,47,0,47,0,,,,,,,,,,,,,,,,,,,,,,1292.667941700085,None,,,,,,,,,,,,,,,,,treatment,109,48,aloud,new,null,1289.8669606000185,None,1289.8669606000185,None,2,2.1057760999538004,1289.8669606000185,None,2.1057760999538004,1292.0006417999975,None,1292.5115801000502,None,1292.5115801000502,None,n,0.14120150008238852,1292.5115801000502,None,0.14120150008238852,,,56Aloud,001,2022_Sep_26_1113,ProdSingRedoBetween,2021.2.3,60.35961047101678,
,,,,48,0,48,0,,,,,,,,,,,,,,,,,,,,,,1296.771975300042,None,,,,,,,,,,,,,,,,,nation,91,49,aloud,new,null,1293.1705536000663,None,1293.1705536000663,None,1,2.0500944999512285,1293.1705536000663,None,2.0500944999512285,1295.2395858000964,None,1295.7607382000424,None,1295.7607382000424,None,n,0.980054699932225,1295.7607382000424,None,0.980054699932225,,,56Aloud,001,2022_Sep_26_1113,ProdSingRedoBetween,2021.2.3,60.35961047101678,
,,,,49,0,49,0,,,,,,,,,,,,,,,,,,,,,,1301.1595632000826,None,,,,,,,,,,,,,,,,,religion,25,50,aloud,old,yellow,1297.2817285000347,None,1297.2817285000347,None,1,2.2350422999588773,1297.2817285000347,None,2.2350422999588773,1299.5430630000774,None,1300.0640564000932,None,1300.0640564000932,None,n,1.0686309000011533,1300.0640564000932,None,1.0686309000011533,,,56Aloud,001,2022_Sep_26_1113,ProdSingRedoBetween,2021.2.3,60.35961047101678,
,,,,50,0,50,0,,,,,,,,,,,,,,,,,,,,,,1304.6963342000963,None,,,,,,,,,,,,,,,,,message,123,51,aloud,new,null,1301.6600756000262,None,1301.6600756000262,None,1,1.5526754000457004,1301.6600756000262,None,1.5526754000457004,1303.229957100004,None,1303.7397412999999,None,1303.7397412999999,None,n,0.9290710999630392,1303.7397412999999,None,0.9290710999630392,,,56Aloud,001,2022_Sep_26_1113,ProdSingRedoBetween,2021.2.3,60.35961047101678,
,,,,51,0,51,0,,,,,,,,,,,,,,,,,,,,,,1318.2600630000234,None,,,,,,,,,,,,,,,,,generation,1,52,aloud,old,yellow,1305.2042597000254,None,1305.2042597000254,None,1,11.448577800067142,1305.2042597000254,None,11.448577800067142,1316.680707700085,None,1317.1922580000246,None,1317.1922580000246,None,n,1.0524425000185147,1317.1922580000246,None,1.0524425000185147,,,56Aloud,001,2022_Sep_26_1113,ProdSingRedoBetween,2021.2.3,60.35961047101678,
,,,,52,0,52,0,,,,,,,,,,,,,,,,,,,,,,1333.675435799989,None,,,,,,,,,,,,,,,,,prime,133,53,aloud,new,null,1318.7671173000708,None,1318.7671173000708,None,4,13.525684399995953,1318.7671173000708,None,13.525684399995953,1332.3251718999818,None,1332.8322445000522,None,1332.8322445000522,None,f,0.8125367999309674,1332.8322445000522,None,0.8125367999309674,,,56Aloud,001,2022_Sep_26_1113,ProdSingRedoBetween,2021.2.3,60.35961047101678,
,,,,53,0,53,0,,,,,,,,,,,,,,,,,,,,,,1336.5836263000965,None,,,,,,,,,,,,,,,,,second,81,54,aloud,old,red,1334.176105300081,None,1334.176105300081,None,1,1.8366337000625208,1334.176105300081,None,1.8366337000625208,1336.0291195000755,None,1336.5315648000687,None,1336.5315648000687,None,n,0.017253900063224137,1336.5315648000687,None,0.017253900063224137,,,56Aloud,001,2022_Sep_26_1113,ProdSingRedoBetween,2021.2.3,60.35961047101678,
,,,,54,0,54,0,,,,,,,,,,,,,,,,,,,,,,1340.2653414000524,None,,,,,,,,,,,,,,,,,finance,143,55,aloud,new,null,1337.1009452000726,None,1337.1009452000726,None,1,1.73570339998696,1337.1009452000726,None,1.73570339998696,1338.865350499982,None,1339.365073400084,None,1339.365073400084,None,n,0.8801318999612704,1339.365073400084,None,0.8801318999612704,,,56Aloud,001,2022_Sep_26_1113,ProdSingRedoBetween,2021.2.3,60.35961047101678,
,,,,55,0,55,0,,,,,,,,,,,,,,,,,,,,,,1342.751166000031,None,,,,,,,,,,,,,,,,,story,51,56,aloud,old,blue,1340.7741444000276,None,1340.7741444000276,None,1,1.358555700047873,1340.7741444000276,None,1.358555700047873,1342.1559318000218,None,1342.6728659000946,None,1342.6728659000946,None,n,0.05204740003682673,1342.6728659000946,None,0.05204740003682673,,,56Aloud,001,2022_Sep_26_1113,ProdSingRedoBetween,2021.2.3,60.35961047101678,
,,,,56,0,56,0,,,,,,,,,,,,,,,,,,,,,,1347.5558891000692,None,,,,,,,,,,,,,,,,,thick,85,57,aloud,old,red,1343.255084500066,None,1343.255084500066,None,6,1.861727699986659,1343.255084500066,None,1.861727699986659,1345.1421452000504,None,1345.6542122000828,None,1345.6542122000828,None,r,1.886509499978274,1345.6542122000828,None,1.886509499978274,,,56Aloud,001,2022_Sep_26_1113,ProdSingRedoBetween,2021.2.3,60.35961047101678,
,,,,57,0,57,0,,,,,,,,,,,,,,,,,,,,,,1354.2126342999982,None,,,,,,,,,,,,,,,,,commercial,74,58,aloud,old,red,1348.0601229000604,None,1348.0601229000604,None,3,4.920579900033772,1348.0601229000604,None,4.920579900033772,1353.0144321999978,None,1353.5286063000094,None,1353.5286063000094,None,n,0.6681401999667287,1353.5286063000094,None,0.6681401999667287,,,56Aloud,001,2022_Sep_26_1113,ProdSingRedoBetween,2021.2.3,60.35961047101678,
,,,,58,0,58,0,,,,,,,,,,,,,,,,,,,,,,1357.3991528000915,None,,,,,,,,,,,,,,,,,impact,113,59,aloud,new,null,1354.7229565000162,None,1354.7229565000162,None,1,1.577713800012134,1354.7229565000162,None,1.577713800012134,1356.3323082000716,None,1356.8325239000842,None,1356.8325239000842,None,n,0.5481964000500739,1356.8325239000842,None,0.5481964000500739,,,56Aloud,001,2022_Sep_26_1113,ProdSingRedoBetween,2021.2.3,60.35961047101678,
,,,,59,0,59,0,,,,,,,,,,,,,,,,,,,,,,1363.3549254999962,None,,,,,,,,,,,,,,,,,design,121,60,aloud,new,null,1357.9029466999928,None,1357.9029466999928,None,4,3.341630300041288,1357.9029466999928,None,3.341630300041288,1361.2700710000936,None,1361.7701901000692,None,1361.7701901000692,None,f,1.5624737000325695,1361.7701901000692,None,1.5624737000325695,,,56Aloud,001,2022_Sep_26_1113,ProdSingRedoBetween,2021.2.3,60.35961047101678,
,,,,60,0,60,0,,,,,,,,,,,,,,,,,,,,,,1367.692702600034,None,,,,,,,,,,,,,,,,,atmosphere,34,61,aloud,old,blue,1363.8656997000799,None,1363.8656997000799,None,6,1.8431450999341905,1363.8656997000799,None,1.8431450999341905,1365.7327762000496,None,1366.2413898999803,None,1366.2413898999803,None,r,1.4272834999719635,1366.2413898999803,None,1.4272834999719635,,,56Aloud,001,2022_Sep_26_1113,ProdSingRedoBetween,2021.2.3,60.35961047101678,
,,,,61,0,61,0,,,,,,,,,,,,,,,,,,,,,,1371.3811426000902,None,,,,,,,,,,,,,,,,,shear,29,62,aloud,old,blue,1368.196409300086,None,1368.196409300086,None,1,2.0322002000175416,1368.196409300086,None,2.0322002000175416,1370.2468116000528,None,1370.7634282000363,None,1370.7634282000363,None,n,0.5851873999927193,1370.7634282000363,None,0.5851873999927193,,,56Aloud,001,2022_Sep_26_1113,ProdSingRedoBetween,2021.2.3,60.35961047101678,
,,,,62,0,62,0,,,,,,,,,,,,,,,,,,,,,,1375.650664600078,None,,,,,,,,,,,,,,,,,husband,2,63,aloud,old,yellow,1371.8887072000653,None,1371.8887072000653,None,6,2.6759533000877127,1371.8887072000653,None,2.6759533000877127,1374.5898861000314,None,1375.1036851999816,None,1375.1036851999816,None,r,0.5170067999279127,1375.1036851999816,None,0.5170067999279127,,,56Aloud,001,2022_Sep_26_1113,ProdSingRedoBetween,2021.2.3,60.35961047101678,
,,,,63,0,63,0,,,,,,,,,,,,,,,,,,,,,,1380.2384764000308,None,,,,,,,,,,,,,,,,,dozen,48,64,aloud,old,blue,1376.1620223000646,None,1376.1620223000646,None,6,2.122644199989736,1376.1620223000646,None,2.122644199989736,1378.3122674000915,None,1378.8225296000019,None,1378.8225296000019,None,r,1.3900711999740452,1378.8225296000019,None,1.3900711999740452,,,56Aloud,001,2022_Sep_26_1113,ProdSingRedoBetween,2021.2.3,60.35961047101678,
,,,,64,0,64,0,,,,,,,,,,,,,,,,,,,,,,1383.3080890000565,None,,,,,,,,,,,,,,,,,owner,115,65,aloud,new,null,1380.7483884000685,None,1380.7483884000685,None,1,1.3042591999983415,1380.7483884000685,None,1.3042591999983415,1382.075139600085,None,1382.5789016000926,None,1382.5789016000926,None,n,0.6977945000398904,1382.5789016000926,None,0.6977945000398904,,,56Aloud,001,2022_Sep_26_1113,ProdSingRedoBetween,2021.2.3,60.35961047101678,
,,,,65,0,65,0,,,,,,,,,,,,,,,,,,,,,,1386.6949278999818,None,,,,,,,,,,,,,,,,,territory,160,66,aloud,new,null,1383.8339766000863,None,1383.8339766000863,None,1,1.5946513999952003,1383.8339766000863,None,1.5946513999952003,1385.4522104000207,None,1385.9637182999868,None,1385.9637182999868,None,n,0.7048195999814197,1385.9637182999868,None,0.7048195999814197,,,56Aloud,001,2022_Sep_26_1113,ProdSingRedoBetween,2021.2.3,60.35961047101678,
,,,,66,0,66,0,,,,,,,,,,,,,,,,,,,,,,1391.2837069000816,None,,,,,,,,,,,,,,,,,business,82,67,aloud,old,red,1387.204315799987,None,1387.204315799987,None,6,2.3362859999760985,1387.204315799987,None,2.3362859999760985,1389.5643352000043,None,1390.0720081999898,None,1390.0720081999898,None,r,1.188495499896817,1390.0720081999898,None,1.188495499896817,,,56Aloud,001,2022_Sep_26_1113,ProdSingRedoBetween,2021.2.3,60.35961047101678,
,,,,67,0,67,0,,,,,,,,,,,,,,,,,,,,,,1394.3693881999934,None,,,,,,,,,,,,,,,,,guide,71,68,aloud,old,red,1391.7835813000565,None,1391.7835813000565,None,1,1.6530486999545246,1391.7835813000565,None,1.6530486999545246,1393.4514717999846,None,1393.952338400064,None,1393.952338400064,None,n,0.3963430000003427,1393.952338400064,None,0.3963430000003427,,,56Aloud,001,2022_Sep_26_1113,ProdSingRedoBetween,2021.2.3,60.35961047101678,
,,,,68,0,68,0,,,,,,,,,,,,,,,,,,,,,,1396.704990600003,None,,,,,,,,,,,,,,,,,minute,75,69,aloud,old,red,1394.8816005000845,None,1394.8816005000845,None,1,1.2270409000338987,1394.8816005000845,None,1.2270409000338987,1396.1386473000748,None,1396.6384523999877,None,1396.6384523999877,None,n,0.04623219999484718,1396.6384523999877,None,0.04623219999484718,,,56Aloud,001,2022_Sep_26_1113,ProdSingRedoBetween,2021.2.3,60.35961047101678,
,,,,69,0,69,0,,,,,,,,,,,,,,,,,,,,,,1400.708951800014,None,,,,,,,,,,,,,,,,,discussion,148,70,aloud,new,null,1397.220788500039,None,1397.220788500039,None,4,2.847818600013852,1397.220788500039,None,2.847818600013852,1400.0931583000347,None,1400.596778600011,None,1400.596778600011,None,f,0.09588659997098148,1400.596778600011,None,0.09588659997098148,,,56Aloud,001,2022_Sep_26_1113,ProdSingRedoBetween,2021.2.3,60.35961047101678,
,,,,70,0,70,0,,,,,,,,,,,,,,,,,,,,,,1403.6952916000737,None,,,,,,,,,,,,,,,,,division,122,71,aloud,new,null,1401.2243097000755,None,1401.2243097000755,None,1,1.5402365999761969,1401.2243097000755,None,1.5402365999761969,1402.7969593000598,None,1403.316242900095,None,1403.316242900095,None,n,0.35245580004993826,1403.316242900095,None,0.35245580004993826,,,56Aloud,001,2022_Sep_26_1113,ProdSingRedoBetween,2021.2.3,60.35961047101678,
,,,,71,0,71,0,,,,,,,,,,,,,,,,,,,,,,1406.5812761000125,None,,,,,,,,,,,,,,,,,income,174,72,aloud,new,null,1404.2029114000034,None,1404.2029114000034,None,1,1.593820400070399,1404.2029114000034,None,1.593820400070399,1405.8173909999896,None,1406.3313590000616,None,1406.3313590000616,None,n,0.23325340007431805,1406.3313590000616,None,0.23325340007431805,,,56Aloud,001,2022_Sep_26_1113,ProdSingRedoBetween,2021.2.3,60.35961047101678,
,,,,72,0,72,0,,,,,,,,,,,,,,,,,,,,,,1416.0928568000672,None,,,,,,,,,,,,,,,,,salary,19,73,aloud,old,yellow,1407.0852895000717,None,1407.0852895000717,None,4,7.495305099990219,1407.0852895000717,None,7.495305099990219,1414.609083999996,None,1415.1273804000812,None,1415.1273804000812,None,f,0.9413567000301555,1415.1273804000812,None,0.9413567000301555,,,56Aloud,001,2022_Sep_26_1113,ProdSingRedoBetween,2021.2.3,60.35961047101678,
,,,,73,0,73,0,,,,,,,,,,,,,,,,,,,,,,1419.231823500013,None,,,,,,,,,,,,,,,,,distance,96,74,aloud,new,null,1416.6180732999928,None,1416.6180732999928,None,1,1.5625993000576273,1416.6180732999928,None,1.5625993000576273,1418.216777900001,None,1418.7295116999885,None,1418.7295116999885,None,n,0.47523700003512204,1418.7295116999885,None,0.47523700003512204,,,56Aloud,001,2022_Sep_26_1113,ProdSingRedoBetween,2021.2.3,60.35961047101678,
,,,,74,0,74,0,,,,,,,,,,,,,,,,,,,,,,1423.1563663000707,None,,,,,,,,,,,,,,,,,weight,47,75,aloud,old,blue,1419.7533081000438,None,1419.7533081000438,None,6,1.459180900012143,1419.7533081000438,None,1.459180900012143,1421.2291721000802,None,1421.7301080999896,None,1421.7301080999896,None,r,1.4026029000524431,1421.7301080999896,None,1.4026029000524431,,,56Aloud,001,2022_Sep_26_1113,ProdSingRedoBetween,2021.2.3,60.35961047101678,
,,,,75,0,75,0,,,,,,,,,,,,,,,,,,,,,,1425.5712828000542,None,,,,,,,,,,,,,,,,,express,173,76,aloud,new,null,1423.6803152000066,None,1423.6803152000066,None,1,1.24437339999713,1423.6803152000066,None,1.24437339999713,1424.9584060000489,None,1425.4704106000718,None,1425.4704106000718,None,n,0.0702704000286758,1425.4704106000718,None,0.0702704000286758,,,56Aloud,001,2022_Sep_26_1113,ProdSingRedoBetween,2021.2.3,60.35961047101678,
,,,,76,0,76,0,,,,,,,,,,,,,,,,,,,,,,1429.020782800042,None,,,,,,,,,,,,,,,,,murder,12,77,aloud,old,yellow,1426.0886109999847,None,1426.0886109999847,None,6,1.3798928000032902,1426.0886109999847,None,1.3798928000032902,1427.4885627999902,None,1428.004890799988,None,1428.004890799988,None,r,0.9917229000711814,1428.004890799988,None,0.9917229000711814,,,56Aloud,001,2022_Sep_26_1113,ProdSingRedoBetween,2021.2.3,60.35961047101678,
,,,,77,0,77,0,,,,,,,,,,,,,,,,,,,,,,1432.607482100022,None,,,,,,,,,,,,,,,,,weather,144,78,aloud,new,null,1429.5243090000004,None,1429.5243090000004,None,4,2.208312400034629,1429.5243090000004,None,2.208312400034629,1431.7603065000148,None,1432.2738532000221,None,1432.2738532000221,None,f,0.314722599927336,1432.2738532000221,None,0.314722599927336,,,56Aloud,001,2022_Sep_26_1113,ProdSingRedoBetween,2021.2.3,60.35961047101678,
,,,,78,0,78,0,,,,,,,,,,,,,,,,,,,,,,1434.8095209000167,None,,,,,,,,,,,,,,,,,south,179,79,aloud,new,null,1433.1081911000656,None,1433.1081911000656,None,1,1.1523424999322742,1433.1081911000656,None,1.1523424999322742,1434.2760342999827,None,1434.776279599988,None,1434.776279599988,None,n,0.004364300053566694,1434.776279599988,None,0.004364300053566694,,,56Aloud,001,2022_Sep_26_1113,ProdSingRedoBetween,2021.2.3,60.35961047101678,
,,,,79,0,79,0,,,,,,,,,,,,,,,,,,,,,,1438.179724500049,None,,,,,,,,,,,,,,,,,dance,94,80,aloud,new,null,1435.3127932000207,None,1435.3127932000207,None,5,1.9798186999978498,1435.3127932000207,None,1.9798186999978498,1437.316660100012,None,1437.8294389999937,None,1437.8294389999937,None,f,0.32710280001629144,1437.8294389999937,None,0.32710280001629144,,,56Aloud,001,2022_Sep_26_1113,ProdSingRedoBetween,2021.2.3,60.35961047101678,
,,,,80,0,80,0,,,,,,,,,,,,,,,,,,,,,,1441.5004917000188,None,,,,,,,,,,,,,,,,,bucket,126,81,aloud,new,null,1438.6898822000949,None,1438.6898822000949,None,1,1.0667471999768168,1438.6898822000949,None,1.0667471999768168,1439.7883811000502,None,1440.301219200017,None,1440.301219200017,None,n,1.1675529000349343,1440.301219200017,None,1.1675529000349343,,,56Aloud,001,2022_Sep_26_1113,ProdSingRedoBetween,2021.2.3,60.35961047101678,
,,,,81,0,81,0,,,,,,,,,,,,,,,,,,,,,,1446.4710579999955,None,,,,,,,,,,,,,,,,,color,95,82,aloud,new,null,1442.0065794000402,None,1442.0065794000402,None,1,2.501899900031276,1442.0065794000402,None,2.501899900031276,1444.5374143000226,None,1445.0366216000402,None,1445.0366216000402,None,n,1.407926700077951,1445.0366216000402,None,1.407926700077951,,,56Aloud,001,2022_Sep_26_1113,ProdSingRedoBetween,2021.2.3,60.35961047101678,
,,,,82,0,82,0,,,,,,,,,,,,,,,,,,,,,,1450.4753143000416,None,,,,,,,,,,,,,,,,,cover,66,83,aloud,old,red,1446.9755423000315,None,1446.9755423000315,None,6,1.732983500114642,1446.9755423000315,None,1.732983500114642,1448.725045200088,None,1449.2321752000134,None,1449.2321752000134,None,f,1.2122859000228345,1449.2321752000134,None,1.2122859000228345,,,56Aloud,001,2022_Sep_26_1113,ProdSingRedoBetween,2021.2.3,60.35961047101678,
,,,,83,0,83,0,,,,,,,,,,,,,,,,,,,,,,1453.7452494000318,None,,,,,,,,,,,,,,,,,threat,142,84,aloud,new,null,1450.9840952000814,None,1450.9840952000814,None,1,1.3167133999522775,1450.9840952000814,None,1.3167133999522775,1452.3382401000708,None,1452.8447946000379,None,1452.8447946000379,None,n,0.8797269000206143,1452.8447946000379,None,0.8797269000206143,,,56Aloud,001,2022_Sep_26_1113,ProdSingRedoBetween,2021.2.3,60.35961047101678,
,,,,84,0,84,0,,,,,,,,,,,,,,,,,,,,,,1457.9160538000287,None,,,,,,,,,,,,,,,,,trial,6,85,aloud,old,yellow,1454.2521594000282,None,1454.2521594000282,None,6,2.5684433999704197,1454.2521594000282,None,2.5684433999704197,1456.8538631000556,None,1457.36556080007,None,1457.36556080007,None,r,0.5269672999856994,1457.36556080007,None,0.5269672999856994,,,56Aloud,001,2022_Sep_26_1113,ProdSingRedoBetween,2021.2.3,60.35961047101678,
,,,,85,0,85,0,,,,,,,,,,,,,,,,,,,,,,1461.686506099999,None,,,,,,,,,,,,,,,,,skill,41,86,aloud,old,blue,1458.4296881000046,None,1458.4296881000046,None,3,2.190845499979332,1458.4296881000046,None,2.190845499979332,1460.653125800076,None,1461.170022400096,None,1461.170022400096,None,n,0.4904176000272855,1461.170022400096,None,0.4904176000272855,,,56Aloud,001,2022_Sep_26_1113,ProdSingRedoBetween,2021.2.3,60.35961047101678,
,,,,86,0,86,0,,,,,,,,,,,,,,,,,,,,,,1464.026506800088,None,,,,,,,,,,,,,,,,,council,119,87,aloud,new,null,1462.1947783000069,None,1462.1947783000069,None,1,1.2337584999622777,1462.1947783000069,None,1.2337584999622777,1463.457533900044,None,1463.9757329000859,None,1463.9757329000859,None,n,0.020920999930240214,1463.9757329000859,None,0.020920999930240214,,,56Aloud,001,2022_Sep_26_1113,ProdSingRedoBetween,2021.2.3,60.35961047101678,
,,,,87,0,87,0,,,,,,,,,,,,,,,,,,,,,,1467.3588345000753,None,,,,,,,,,,,,,,,,,sight,154,88,aloud,new,null,1464.5398392000934,None,1464.5398392000934,None,1,1.376681900001131,1464.5398392000934,None,1.376681900001131,1465.9431211000774,None,1466.459339400055,None,1466.459339400055,None,n,0.8811353999190032,1466.459339400055,None,0.8811353999190032,,,56Aloud,001,2022_Sep_26_1113,ProdSingRedoBetween,2021.2.3,60.35961047101678,
,,,,88,0,88,0,,,,,,,,,,,,,,,,,,,,,,1471.3961476000259,None,,,,,,,,,,,,,,,,,number,176,89,aloud,new,null,1467.8703950000927,None,1467.8703950000927,None,4,2.206122500007041,1467.8703950000927,None,2.206122500007041,1470.0972605000716,None,1470.617249300005,None,1470.617249300005,None,f,0.7552786000305787,1470.617249300005,None,0.7552786000305787,,,56Aloud,001,2022_Sep_26_1113,ProdSingRedoBetween,2021.2.3,60.35961047101678,
,,,,89,0,89,0,,,,,,,,,,,,,,,,,,,,,,1475.3339471000945,None,,,,,,,,,,,,,,,,,management,128,90,aloud,new,null,1471.904626600095,None,1471.904626600095,None,4,2.7718464001081884,1471.904626600095,None,2.7718464001081884,1474.7021462999983,None,1475.21895270003,None,1475.21895270003,None,f,0.09753150003962219,1475.21895270003,None,0.09753150003962219,,,56Aloud,001,2022_Sep_26_1113,ProdSingRedoBetween,2021.2.3,60.35961047101678,
,,,,90,0,90,0,,,,,,,,,,,,,,,,,,,,,,1478.1859993999824,None,,,,,,,,,,,,,,,,,novel,141,91,aloud,new,null,1475.8412565999897,None,1475.8412565999897,None,1,1.2352835000492632,1475.8412565999897,None,1.2352835000492632,1477.102509599994,None,1477.6067731000949,None,1477.6067731000949,None,n,0.5495767000829801,1477.6067731000949,None,0.5495767000829801,,,56Aloud,001,2022_Sep_26_1113,ProdSingRedoBetween,2021.2.3,60.35961047101678,
,,,,91,0,91,0,,,,,,,,,,,,,,,,,,,,,,1481.3560477000428,None,,,,,,,,,,,,,,,,,swift,77,92,aloud,old,red,1478.6979334000498,None,1478.6979334000498,None,4,1.5867619999917224,1478.6979334000498,None,1.5867619999917224,1480.3116889999947,None,1480.8259763000533,None,1480.8259763000533,None,f,0.4983900999650359,1480.8259763000533,None,0.4983900999650359,,,56Aloud,001,2022_Sep_26_1113,ProdSingRedoBetween,2021.2.3,60.35961047101678,
,,,,92,0,92,0,,,,,,,,,,,,,,,,,,,,,,1484.8761325000087,None,,,,,,,,,,,,,,,,,incident,105,93,aloud,new,null,1481.8568247000221,None,1481.8568247000221,None,1,1.435704099945724,1481.8568247000221,None,1.435704099945724,1483.3184169000015,None,1483.8251873999834,None,1483.8251873999834,None,n,1.0273443000623956,1483.8251873999834,None,1.0273443000623956,,,56Aloud,001,2022_Sep_26_1113,ProdSingRedoBetween,2021.2.3,60.35961047101678,
,,,,93,0,93,0,,,,,,,,,,,,,,,,,,,,,,1487.745722200023,None,,,,,,,,,,,,,,,,,machinery,158,94,aloud,new,null,1485.3801560000284,None,1485.3801560000284,None,1,1.1763067999854684,1485.3801560000284,None,1.1763067999854684,1486.579347699997,None,1487.0854607000947,None,1487.0854607000947,None,n,0.6390387000283226,1487.0854607000947,None,0.6390387000283226,,,56Aloud,001,2022_Sep_26_1113,ProdSingRedoBetween,2021.2.3,60.35961047101678,
,,,,94,0,94,0,,,,,,,,,,,,,,,,,,,,,,1490.0337309000315,None,,,,,,,,,,,,,,,,,author,28,95,aloud,old,yellow,1488.2495223000878,None,1488.2495223000878,None,1,1.0349223000230268,1488.2495223000878,None,1.0349223000230268,1489.3165783000877,None,1489.8313627000898,None,1489.8313627000898,None,n,0.1730536000104621,1489.8313627000898,None,0.1730536000104621,,,56Aloud,001,2022_Sep_26_1113,ProdSingRedoBetween,2021.2.3,60.35961047101678,
,,,,95,0,95,0,,,,,,,,,,,,,,,,,,,,,,1492.9510370000498,None,,,,,,,,,,,,,,,,,minor,40,96,aloud,old,blue,1490.5487323000561,None,1490.5487323000561,None,6,1.3597838999703526,1490.5487323000561,None,1.3597838999703526,1491.9401625000173,None,1492.4565223000245,None,1492.4565223000245,None,r,0.4678340000100434,1492.4565223000245,None,0.4678340000100434,,,56Aloud,001,2022_Sep_26_1113,ProdSingRedoBetween,2021.2.3,60.35961047101678,
,,,,96,0,96,0,,,,,,,,,,,,,,,,,,,,,,1496.9883999000303,None,,,,,,,,,,,,,,,,,death,53,97,aloud,old,blue,1493.4579743000213,None,1493.4579743000213,None,5,2.266496600001119,1493.4579743000213,None,2.266496600001119,1495.7643764000386,None,1496.2711119999876,None,1496.2711119999876,None,f,0.6852468000724912,1496.2711119999876,None,0.6852468000724912,,,56Aloud,001,2022_Sep_26_1113,ProdSingRedoBetween,2021.2.3,60.35961047101678,
,,,,97,0,97,0,,,,,,,,,,,,,,,,,,,,,,1499.25717300002,None,,,,,,,,,,,,,,,,,fashion,145,98,aloud,new,null,1497.4971384999808,None,1497.4971384999808,None,1,1.1552919000387192,1497.4971384999808,None,1.1552919000387192,1498.675077800057,None,1499.1906037000008,None,1499.1906037000008,None,n,0.045942099997773767,1499.1906037000008,None,0.045942099997773767,,,56Aloud,001,2022_Sep_26_1113,ProdSingRedoBetween,2021.2.3,60.35961047101678,
,,,,98,0,98,0,,,,,,,,,,,,,,,,,,,,,,1502.1140683999984,None,,,,,,,,,,,,,,,,,rough,110,99,aloud,new,null,1499.7631478999974,None,1499.7631478999974,None,5,1.6733027000445873,1499.7631478999974,None,1.6733027000445873,1501.4659663999919,None,1501.9818972999929,None,1501.9818972999929,None,f,0.10257270000874996,1501.9818972999929,None,0.10257270000874996,,,56Aloud,001,2022_Sep_26_1113,ProdSingRedoBetween,2021.2.3,60.35961047101678,
,,,,99,0,99,0,,,,,,,,,,,,,,,,,,,,,,1505.0141703999834,None,,,,,,,,,,,,,,,,,under,98,100,aloud,new,null,1502.6300188000314,None,1502.6300188000314,None,1,1.2543413999956101,1502.6300188000314,None,1.2543413999956101,1503.9119253000244,None,1504.4124827000778,None,1504.4124827000778,None,n,0.5760342000285164,1504.4124827000778,None,0.5760342000285164,,,56Aloud,001,2022_Sep_26_1113,ProdSingRedoBetween,2021.2.3,60.35961047101678,
,,,,100,0,100,0,,,,,,,,,,,,,,,,,,,,,,1508.6183504000073,None,,,,,,,,,,,,,,,,,bureau,14,101,aloud,old,yellow,1505.5171971000964,None,1505.5171971000964,None,6,1.5033081999281421,1505.5171971000964,None,1.5033081999281421,1507.0527427000925,None,1507.5656336999964,None,1507.5656336999964,None,f,1.022844500024803,1507.5656336999964,None,1.022844500024803,,,56Aloud,001,2022_Sep_26_1113,ProdSingRedoBetween,2021.2.3,60.35961047101678,
,,,,101,0,101,0,,,,,,,,,,,,,,,,,,,,,,1511.95316740009,None,,,,,,,,,,,,,,,,,comfort,152,102,aloud,new,null,1509.1372548000654,None,1509.1372548000654,None,4,2.10707440006081,1509.1372548000654,None,2.10707440006081,1511.2691387999803,None,1511.7697419000324,None,1511.7697419000324,None,f,0.1626717000035569,1511.7697419000324,None,0.1626717000035569,,,56Aloud,001,2022_Sep_26_1113,ProdSingRedoBetween,2021.2.3,60.35961047101678,
,,,,102,0,102,0,,,,,,,,,,,,,,,,,,,,,,1514.2722485000268,None,,,,,,,,,,,,,,,,,edition,84,103,aloud,old,red,1512.4556102000643,None,1512.4556102000643,None,1,1.228900899994187,1512.4556102000643,None,1.228900899994187,1513.7060512000462,None,1514.2113220000174,None,1514.2113220000174,None,n,0.03298799996264279,1514.2113220000174,None,0.03298799996264279,,,56Aloud,001,2022_Sep_26_1113,ProdSingRedoBetween,2021.2.3,60.35961047101678,
,,,,103,0,103,0,,,,,,,,,,,,,,,,,,,,,,1517.8591488000238,None,,,,,,,,,,,,,,,,,drove,17,104,aloud,old,yellow,1514.7793850000016,None,1514.7793850000016,None,3,2.0250239999732003,1514.7793850000016,None,2.0250239999732003,1516.826451400062,None,1517.3487897000741,None,1517.3487897000741,None,n,0.4796756999567151,1517.3487897000741,None,0.4796756999567151,,,56Aloud,001,2022_Sep_26_1113,ProdSingRedoBetween,2021.2.3,60.35961047101678,
,,,,104,0,104,0,,,,,,,,,,,,,,,,,,,,,,1522.6806109000463,None,,,,,,,,,,,,,,,,,front,64,105,aloud,old,red,1518.3672485999996,None,1518.3672485999996,None,3,2.621177399996668,1518.3672485999996,None,2.621177399996668,1521.0138251000317,None,1521.5183774000034,None,1521.5183774000034,None,n,1.1420287999790162,1521.5183774000034,None,1.1420287999790162,,,56Aloud,001,2022_Sep_26_1113,ProdSingRedoBetween,2021.2.3,60.35961047101678,
,,,,105,0,105,0,,,,,,,,,,,,,,,,,,,,,,1526.1341388000874,None,,,,,,,,,,,,,,,,,individual,72,106,aloud,old,red,1523.189908600063,None,1523.189908600063,None,6,1.9184875999344513,1523.189908600063,None,1.9184875999344513,1525.133738500066,None,1525.6398207000457,None,1525.6398207000457,None,f,0.4765052000293508,1525.6398207000457,None,0.4765052000293508,,,56Aloud,001,2022_Sep_26_1113,ProdSingRedoBetween,2021.2.3,60.35961047101678,
,,,,106,0,106,0,,,,,,,,,,,,,,,,,,,,,,1528.686566599994,None,,,,,,,,,,,,,,,,,captain,45,107,aloud,old,blue,1526.6407135000918,None,1526.6407135000918,None,6,1.3956451999256387,1526.6407135000918,None,1.3956451999256387,1528.0544102999847,None,1528.57284300006,None,1528.57284300006,None,f,0.09542539995163679,1528.57284300006,None,0.09542539995163679,,,56Aloud,001,2022_Sep_26_1113,ProdSingRedoBetween,2021.2.3,60.35961047101678,
,,,,107,0,107,0,,,,,,,,,,,,,,,,,,,,,,1531.3194309000392,None,,,,,,,,,,,,,,,,,school,116,108,aloud,new,null,1529.194556600065,None,1529.194556600065,None,3,1.2979198000393808,1529.194556600065,None,1.2979198000393808,1530.5304001000477,None,1531.0392170000123,None,1531.0392170000123,None,n,0.23729049996472895,1531.0392170000123,None,0.23729049996472895,,,56Aloud,001,2022_Sep_26_1113,ProdSingRedoBetween,2021.2.3,60.35961047101678,
,,,,108,0,108,0,,,,,,,,,,,,,,,,,,,,,,1535.8781996000325,None,,,,,,,,,,,,,,,,,goose,49,109,aloud,old,blue,1531.8285166000715,None,1531.8285166000715,None,6,1.967763900058344,1531.8285166000715,None,1.967763900058344,1533.8277736000018,None,1534.3423747000052,None,1534.3423747000052,None,n,1.5180889000184834,1534.3423747000052,None,1.5180889000184834,,,56Aloud,001,2022_Sep_26_1113,ProdSingRedoBetween,2021.2.3,60.35961047101678,
,,,,109,0,109,0,,,,,,,,,,,,,,,,,,,,,,1542.2668866000604,None,,,,,,,,,,,,,,,,,marriage,139,110,aloud,new,null,1536.3846820000326,None,1536.3846820000326,None,6,1.763700700015761,1536.3846820000326,None,1.763700700015761,1538.1865568000358,None,1538.6978493999923,None,1538.6978493999923,None,r,3.5465186000801623,1538.6978493999923,None,3.5465186000801623,,,56Aloud,001,2022_Sep_26_1113,ProdSingRedoBetween,2021.2.3,60.35961047101678,
,,,,110,0,110,0,,,,,,,,,,,,,,,,,,,,,,1545.80366840004,None,,,,,,,,,,,,,,,,,trail,166,111,aloud,new,null,1542.7737436000025,None,1542.7737436000025,None,6,2.166778700076975,1542.7737436000025,None,2.166778700076975,1544.9727743000258,None,1545.4884010000387,None,1545.4884010000387,None,f,0.28402400005143136,1545.4884010000387,None,0.28402400005143136,,,56Aloud,001,2022_Sep_26_1113,ProdSingRedoBetween,2021.2.3,60.35961047101678,
,,,,111,0,111,0,,,,,,,,,,,,,,,,,,,,,,1548.7397264000028,None,,,,,,,,,,,,,,,,,chief,43,112,aloud,old,blue,1546.3182486000005,None,1546.3182486000005,None,3,1.6621222000103444,1546.3182486000005,None,1.6621222000103444,1548.0067485000473,None,1548.506479700096,None,1548.506479700096,None,n,0.20997349999379367,1548.506479700096,None,0.20997349999379367,,,56Aloud,001,2022_Sep_26_1113,ProdSingRedoBetween,2021.2.3,60.35961047101678,
,,,,112,0,112,0,,,,,,,,,,,,,,,,,,,,,,1553.2108665000414,None,,,,,,,,,,,,,,,,,space,159,113,aloud,new,null,1549.248655400006,None,1549.248655400006,None,3,2.5956560999620706,1549.248655400006,None,2.5956560999620706,1551.8639413000783,None,1552.3769283000147,None,1552.3769283000147,None,n,0.8194434000179172,1552.3769283000147,None,0.8194434000179172,,,56Aloud,001,2022_Sep_26_1113,ProdSingRedoBetween,2021.2.3,60.35961047101678,
,,,,113,0,113,0,,,,,,,,,,,,,,,,,,,,,,1560.801970600034,None,,,,,,,,,,,,,,,,,equipment,73,114,aloud,old,red,1553.7330901999958,None,1553.7330901999958,None,3,4.6392600000835955,1553.7330901999958,None,4.6392600000835955,1558.4039366000798,None,1558.916589600034,None,1558.916589600034,None,f,1.855733299977146,1558.916589600034,None,1.855733299977146,,,56Aloud,001,2022_Sep_26_1113,ProdSingRedoBetween,2021.2.3,60.35961047101678,
,,,,114,0,114,0,,,,,,,,,,,,,,,,,,,,,,1563.7715170000447,None,,,,,,,,,,,,,,,,,block,102,115,aloud,new,null,1561.3186328000156,None,1561.3186328000156,None,2,1.5337078000884503,1561.3186328000156,None,1.5337078000884503,1562.876254200004,None,1563.3925361000001,None,1563.3925361000001,None,n,0.35583520005457103,1563.3925361000001,None,0.35583520005457103,,,56Aloud,001,2022_Sep_26_1113,ProdSingRedoBetween,2021.2.3,60.35961047101678,
,,,,115,0,115,0,,,,,,,,,,,,,,,,,,,,,,1567.6421273000306,None,,,,,,,,,,,,,,,,,court,57,116,aloud,old,blue,1564.2831579000922,None,1564.2831579000922,None,4,2.4730183000210673,1564.2831579000922,None,2.4730183000210673,1566.7743442000356,None,1567.2752351000672,None,1567.2752351000672,None,f,0.3451231000944972,1567.2752351000672,None,0.3451231000944972,,,56Aloud,001,2022_Sep_26_1113,ProdSingRedoBetween,2021.2.3,60.35961047101678,
,,,,116,0,116,0,,,,,,,,,,,,,,,,,,,,,,1570.411512700026,None,,,,,,,,,,,,,,,,,beauty,132,117,aloud,new,null,1568.1519496000838,None,1568.1519496000838,None,1,1.6044087999034673,1568.1519496000838,None,1.6044087999034673,1569.784753600019,None,1570.295023099985,None,1570.295023099985,None,n,0.10134320007637143,1570.295023099985,None,0.10134320007637143,,,56Aloud,001,2022_Sep_26_1113,ProdSingRedoBetween,2021.2.3,60.35961047101678,
,,,,117,0,117,0,,,,,,,,,,,,,,,,,,,,,,1573.1661893000128,None,,,,,,,,,,,,,,,,,notice,165,118,aloud,new,null,1570.9199798000045,None,1570.9199798000045,None,1,1.260328600066714,1570.9199798000045,None,1.260328600066714,1572.1975265000947,None,1572.7016432000091,None,1572.7016432000091,None,n,0.4467411000514403,1572.7016432000091,None,0.4467411000514403,,,56Aloud,001,2022_Sep_26_1113,ProdSingRedoBetween,2021.2.3,60.35961047101678,
,,,,118,0,118,0,,,,,,,,,,,,,,,,,,,,,,1575.9670589000452,None,,,,,,,,,,,,,,,,,suspect,42,119,aloud,old,blue,1573.6924457000569,None,1573.6924457000569,None,4,1.4959677000297233,1573.6924457000569,None,1.4959677000297233,1575.226885000011,None,1575.739348800038,None,1575.739348800038,None,f,0.20896920002996922,1575.739348800038,None,0.20896920002996922,,,56Aloud,001,2022_Sep_26_1113,ProdSingRedoBetween,2021.2.3,60.35961047101678,
,,,,119,0,119,0,,,,,,,,,,,,,,,,,,,,,,1579.420544099994,None,,,,,,,,,,,,,,,,,general,67,120,aloud,old,red,1576.467721800087,None,1576.467721800087,None,3,2.016551300068386,1576.467721800087,None,2.016551300068386,1578.5039253000868,None,1579.0086753000505,None,1579.0086753000505,None,n,0.3876063999487087,1579.0086753000505,None,0.3876063999487087,,,56Aloud,001,2022_Sep_26_1113,ProdSingRedoBetween,2021.2.3,60.35961047101678,
,,,,120,0,120,0,,,,,,,,,,,,,,,,,,,,,,1582.5403189000208,None,,,,,,,,,,,,,,,,,grade,90,121,aloud,new,null,1579.9347932999954,None,1579.9347932999954,None,3,1.6615419000154361,1579.9347932999954,None,1.6615419000154361,1581.6280740000075,None,1582.1408425000263,None,1582.1408425000263,None,n,0.3835357999196276,1582.1408425000263,None,0.3835357999196276,,,56Aloud,001,2022_Sep_26_1113,ProdSingRedoBetween,2021.2.3,60.35961047101678,
,,,,121,0,121,0,,,,,,,,,,,,,,,,,,,,,,1586.4941763000097,None,,,,,,,,,,,,,,,,,listen,138,122,aloud,new,null,1583.0571769999806,None,1583.0571769999806,None,2,2.4271142999641597,1583.0571769999806,None,2.4271142999641597,1585.512834800058,None,1586.0271764000645,None,1586.0271764000645,None,n,0.4410855999449268,1586.0271764000645,None,0.4410855999449268,,,56Aloud,001,2022_Sep_26_1113,ProdSingRedoBetween,2021.2.3,60.35961047101678,
,,,,122,0,122,0,,,,,,,,,,,,,,,,,,,,,,1589.1800426000264,None,,,,,,,,,,,,,,,,,whole,117,123,aloud,new,null,1587.0005860000383,None,1587.0005860000383,None,1,1.3717781000304967,1587.0005860000383,None,1.3717781000304967,1588.406877500005,None,1588.9168946000282,None,1588.9168946000282,None,n,0.2474517000373453,1588.9168946000282,None,0.2474517000373453,,,56Aloud,001,2022_Sep_26_1113,ProdSingRedoBetween,2021.2.3,60.35961047101678,
,,,,123,0,123,0,,,,,,,,,,,,,,,,,,,,,,1592.5837184999837,None,,,,,,,,,,,,,,,,,music,106,124,aloud,new,null,1589.6908386000432,None,1589.6908386000432,None,4,2.0974034999962896,1589.6908386000432,None,2.0974034999962896,1591.8172398000024,None,1592.3167765000835,None,1592.3167765000835,None,f,0.23944090004079044,1592.3167765000835,None,0.23944090004079044,,,56Aloud,001,2022_Sep_26_1113,ProdSingRedoBetween,2021.2.3,60.35961047101678,
,,,,124,0,124,0,,,,,,,,,,,,,,,,,,,,,,1595.6866948000388,None,,,,,,,,,,,,,,,,,pretty,99,125,aloud,new,null,1593.0963332999963,None,1593.0963332999963,None,1,1.4599345999304205,1593.0963332999963,None,1.4599345999304205,1594.5866563000018,None,1595.0863278000616,None,1595.0863278000616,None,n,0.5739841999020427,1595.0863278000616,None,0.5739841999020427,,,56Aloud,001,2022_Sep_26_1113,ProdSingRedoBetween,2021.2.3,60.35961047101678,
,,,,125,0,125,0,,,,,,,,,,,,,,,,,,,,,,1600.850109299994,None,,,,,,,,,,,,,,,,,measure,44,126,aloud,old,blue,1596.1941338999895,None,1596.1941338999895,None,1,4.066089699976146,1596.1941338999895,None,4.066089699976146,1600.2943978999974,None,1600.8139223000035,None,1600.8139223000035,None,n,0.014592600055038929,1600.8139223000035,None,0.014592600055038929,,,56Aloud,001,2022_Sep_26_1113,ProdSingRedoBetween,2021.2.3,60.35961047101678,
,,,,126,0,126,0,,,,,,,,,,,,,,,,,,,,,,1603.5779897000175,None,,,,,,,,,,,,,,,,,master,146,127,aloud,new,null,1601.3590038000839,None,1601.3590038000839,None,5,1.4937653999077156,1601.3590038000839,None,1.4937653999077156,1602.8846595000941,None,1603.3946456999984,None,1603.3946456999984,None,f,0.16165700007695705,1603.3946456999984,None,0.16165700007695705,,,56Aloud,001,2022_Sep_26_1113,ProdSingRedoBetween,2021.2.3,60.35961047101678,
,,,,127,0,127,0,,,,,,,,,,,,,,,,,,,,,,1606.2471921000397,None,,,,,,,,,,,,,,,,,defeat,65,128,aloud,old,red,1604.0910349000478,None,1604.0910349000478,None,1,1.1132269001100212,1604.0910349000478,None,1.1132269001100212,1605.2314253000077,None,1605.7489118000958,None,1605.7489118000958,None,n,0.471324099926278,1605.7489118000958,None,0.471324099926278,,,56Aloud,001,2022_Sep_26_1113,ProdSingRedoBetween,2021.2.3,60.35961047101678,
,,,,128,0,128,0,,,,,,,,,,,,,,,,,,,,,,1608.3846854000585,None,,,,,,,,,,,,,,,,,tough,163,129,aloud,new,null,1606.761270900024,None,1606.761270900024,None,1,1.066900399979204,1606.761270900024,None,1.066900399979204,1607.849081100081,None,1608.350230299984,None,1608.350230299984,None,n,0.013942099991254508,1608.350230299984,None,0.013942099991254508,,,56Aloud,001,2022_Sep_26_1113,ProdSingRedoBetween,2021.2.3,60.35961047101678,
,,,,129,0,129,0,,,,,,,,,,,,,,,,,,,,,,1610.789571500034,None,,,,,,,,,,,,,,,,,match,37,130,aloud,old,blue,1608.9037645000499,None,1608.9037645000499,None,1,1.1565434999065474,1608.9037645000499,None,1.1565434999065474,1610.0899628000334,None,1610.6017299999949,None,1610.6017299999949,None,n,0.16260939999483526,1610.6017299999949,None,0.16260939999483526,,,56Aloud,001,2022_Sep_26_1113,ProdSingRedoBetween,2021.2.3,60.35961047101678,
,,,,130,0,130,0,,,,,,,,,,,,,,,,,,,,,,1613.1041814000346,None,,,,,,,,,,,,,,,,,stand,59,131,aloud,old,yellow,1611.3172411000123,None,1611.3172411000123,None,1,1.1269525999668986,1611.3172411000123,None,1.1269525999668986,1612.4725970000727,None,1612.9875543999951,None,1612.9875543999951,None,n,0.0967794000171125,1612.9875543999951,None,0.0967794000171125,,,56Aloud,001,2022_Sep_26_1113,ProdSingRedoBetween,2021.2.3,60.35961047101678,
,,,,131,0,131,0,,,,,,,,,,,,,,,,,,,,,,1618.592676200089,None,,,,,,,,,,,,,,,,,straight,78,132,aloud,old,red,1613.6133764000842,None,1613.6133764000842,None,6,3.2708108999067917,1613.6133764000842,None,3.2708108999067917,1616.9089417000068,None,1617.4136267000576,None,1617.4136267000576,None,r,1.158594899927266,1617.4136267000576,None,1.158594899927266,,,56Aloud,001,2022_Sep_26_1113,ProdSingRedoBetween,2021.2.3,60.35961047101678,
,,,,132,0,132,0,,,,,,,,,,,,,,,,,,,,,,1623.1474087000825,None,,,,,,,,,,,,,,,,,beginning,172,133,aloud,new,null,1619.0994393000146,None,1619.0994393000146,None,1,3.200786600005813,1619.0994393000146,None,3.200786600005813,1622.3307294000406,None,1622.8343786000041,None,1622.8343786000041,None,n,0.2898717999923974,1622.8343786000041,None,0.2898717999923974,,,56Aloud,001,2022_Sep_26_1113,ProdSingRedoBetween,2021.2.3,60.35961047101678,
,,,,133,0,133,0,,,,,,,,,,,,,,,,,,,,,,1625.384488800075,None,,,,,,,,,,,,,,,,,hunger,33,134,aloud,old,blue,1623.6569408000214,None,1623.6569408000214,None,1,1.1152376000536606,1623.6569408000214,None,1.1152376000536606,1624.8014649000252,None,1625.3164933000226,None,1625.3164933000226,None,n,0.039803999941796064,1625.3164933000226,None,0.039803999941796064,,,56Aloud,001,2022_Sep_26_1113,ProdSingRedoBetween,2021.2.3,60.35961047101678,
,,,,134,0,134,0,,,,,,,,,,,,,,,,,,,,,,1627.869041900034,None,,,,,,,,,,,,,,,,,column,150,135,aloud,new,null,1625.8848881000886,None,1625.8848881000886,None,1,1.0074713000794873,1625.8848881000886,None,1.0074713000794873,1626.9210129000712,None,1627.4388996000635,None,1627.4388996000635,None,n,0.413478699978441,1627.4388996000635,None,0.413478699978441,,,56Aloud,001,2022_Sep_26_1113,ProdSingRedoBetween,2021.2.3,60.35961047101678,
,,,,135,0,135,0,,,,,,,,,,,,,,,,,,,,,,1630.3212926000124,None,,,,,,,,,,,,,,,,,power,38,136,aloud,old,blue,1628.381616000086,None,1628.381616000086,None,1,1.286606900044717,1628.381616000086,None,1.286606900044717,1629.6903891999973,None,1630.2087302000728,None,1630.2087302000728,None,n,0.08360940008424222,1630.2087302000728,None,0.08360940008424222,,,56Aloud,001,2022_Sep_26_1113,ProdSingRedoBetween,2021.2.3,60.35961047101678,
,,,,136,0,136,0,,,,,,,,,,,,,,,,,,,,,,1633.1405432000756,None,,,,,,,,,,,,,,,,,carry,83,137,aloud,old,red,1630.8281196000753,None,1630.8281196000753,None,1,1.1119804999325424,1630.8281196000753,None,1.1119804999325424,1631.956932400004,None,1632.46450500004,None,1632.46450500004,None,n,0.659797600004822,1632.46450500004,None,0.659797600004822,,,56Aloud,001,2022_Sep_26_1113,ProdSingRedoBetween,2021.2.3,60.35961047101678,
,,,,137,0,137,0,,,,,,,,,,,,,,,,,,,,,,1635.459734300035,None,,,,,,,,,,,,,,,,,light,15,138,aloud,old,yellow,1633.6427045000019,None,1633.6427045000019,None,1,1.0096426999662071,1633.6427045000019,None,1.0096426999662071,1634.675384900067,None,1635.1763105000136,None,1635.1763105000136,None,n,0.2599310999503359,1635.1763105000136,None,0.2599310999503359,,,56Aloud,001,2022_Sep_26_1113,ProdSingRedoBetween,2021.2.3,60.35961047101678,
,,,,138,0,138,0,,,,,,,,,,,,,,,,,,,,,,1638.5628198999912,None,,,,,,,,,,,,,,,,,speech,9,139,aloud,old,yellow,1635.9634888999863,None,1635.9634888999863,None,1,1.5847037000348791,1635.9634888999863,None,1.5847037000348791,1637.579926000093,None,1638.088510600035,None,1638.088510600035,None,n,0.44368299993220717,1638.088510600035,None,0.44368299993220717,,,56Aloud,001,2022_Sep_26_1113,ProdSingRedoBetween,2021.2.3,60.35961047101678,
,,,,139,0,139,0,,,,,,,,,,,,,,,,,,,,,,1641.1015704000602,None,,,,,,,,,,,,,,,,,growth,107,140,aloud,new,null,1639.0713719000341,None,1639.0713719000341,None,1,1.1487281000008807,1639.0713719000341,None,1.1487281000008807,1640.2498162999982,None,1640.767757200054,None,1640.767757200054,None,n,0.30842160002794117,1640.767757200054,None,0.30842160002794117,,,56Aloud,001,2022_Sep_26_1113,ProdSingRedoBetween,2021.2.3,60.35961047101678,
,,,,140,0,140,0,,,,,,,,,,,,,,,,,,,,,,1643.6012200000696,None,,,,,,,,,,,,,,,,,display,120,141,aloud,new,null,1641.6251289000502,None,1641.6251289000502,None,1,1.195062299957499,1641.6251289000502,None,1.195062299957499,1642.8516327000689,None,1643.3556059000548,None,1643.3556059000548,None,n,0.2165883999550715,1643.3556059000548,None,0.2165883999550715,,,56Aloud,001,2022_Sep_26_1113,ProdSingRedoBetween,2021.2.3,60.35961047101678,
,,,,141,0,141,0,,,,,,,,,,,,,,,,,,,,,,1647.1713987999829,None,,,,,,,,,,,,,,,,,state,61,142,aloud,old,red,1644.122297600028,None,1644.122297600028,None,6,1.4339497999753803,1644.122297600028,None,1.4339497999753803,1645.5935797999846,None,1646.1065016000066,None,1646.1065016000066,None,f,1.0416802000254393,1646.1065016000066,None,1.0416802000254393,,,56Aloud,001,2022_Sep_26_1113,ProdSingRedoBetween,2021.2.3,60.35961047101678,
,,,,142,0,142,0,,,,,,,,,,,,,,,,,,,,,,1651.2922360000666,None,,,,,,,,,,,,,,,,,motion,80,143,aloud,old,red,1647.6813271000283,None,1647.6813271000283,None,4,2.826811800012365,1647.6813271000283,None,2.826811800012365,1650.5247745000524,None,1651.027605600073,None,1651.027605600073,None,f,0.2405989000108093,1651.027605600073,None,0.2405989000108093,,,56Aloud,001,2022_Sep_26_1113,ProdSingRedoBetween,2021.2.3,60.35961047101678,
,,,,143,0,143,0,,,,,,,,,,,,,,,,,,,,,,1653.7780419000192,None,,,,,,,,,,,,,,,,,health,79,144,aloud,old,red,1651.8086248000618,None,1651.8086248000618,None,3,1.3315405000466853,1651.8086248000618,None,1.3315405000466853,1653.1617795000784,None,1653.663173399982,None,1653.663173399982,None,n,0.08505910006351769,1653.663173399982,None,0.08505910006351769,,,56Aloud,001,2022_Sep_26_1113,ProdSingRedoBetween,2021.2.3,60.35961047101678,
,,,,144,0,144,0,,,,,,,,,,,,,,,,,,,,,,1656.9478991000215,None,,,,,,,,,,,,,,,,,present,101,145,aloud,new,null,1654.2826394999865,None,1654.2826394999865,None,1,2.097492399974726,1654.2826394999865,None,2.097492399974726,1656.39806580008,None,1656.9069238000084,None,1656.9069238000084,None,n,0.017532699974253774,1656.9069238000084,None,0.017532699974253774,,,56Aloud,001,2022_Sep_26_1113,ProdSingRedoBetween,2021.2.3,60.35961047101678,
,,,,145,0,145,0,,,,,,,,,,,,,,,,,,,,,,1659.9675950000528,None,,,,,,,,,,,,,,,,,suggestion,156,146,aloud,new,null,1657.4628782999935,None,1657.4628782999935,None,1,1.8931965000228956,1657.4628782999935,None,1.8931965000228956,1659.3849100000225,None,1659.884254100034,None,1659.884254100034,None,n,0.055871699936687946,1659.884254100034,None,0.055871699936687946,,,56Aloud,001,2022_Sep_26_1113,ProdSingRedoBetween,2021.2.3,60.35961047101678,
,,,,146,0,146,0,,,,,,,,,,,,,,,,,,,,,,1662.6034653000534,None,,,,,,,,,,,,,,,,,article,69,147,aloud,old,red,1660.474512099987,None,1660.474512099987,None,1,1.1296551000559703,1660.474512099987,None,1.1296551000559703,1661.619220099994,None,1662.1225407000165,None,1662.1225407000165,None,n,0.4497022000141442,1662.1225407000165,None,0.4497022000141442,,,56Aloud,001,2022_Sep_26_1113,ProdSingRedoBetween,2021.2.3,60.35961047101678,
,,,,147,0,147,0,,,,,,,,,,,,,,,,,,,,,,1665.1242043999955,None,,,,,,,,,,,,,,,,,trend,52,148,aloud,old,blue,1663.1089415000752,None,1663.1089415000752,None,1,1.35124949994497,1663.1089415000752,None,1.35124949994497,1664.4887061000336,None,1664.9939551000716,None,1664.9939551000716,None,n,0.09823329991195351,1664.9939551000716,None,0.09823329991195351,,,56Aloud,001,2022_Sep_26_1113,ProdSingRedoBetween,2021.2.3,60.35961047101678,
,,,,148,0,148,0,,,,,,,,,,,,,,,,,,,,,,1667.5933823999949,None,,,,,,,,,,,,,,,,,victory,11,149,aloud,old,yellow,1665.6278826000635,None,1665.6278826000635,None,1,1.384283100022003,1665.6278826000635,None,1.384283100022003,1667.042690500035,None,1667.5492830000585,None,1667.5492830000585,None,n,0.022913999971933663,1667.5492830000585,None,0.022913999971933663,,,56Aloud,001,2022_Sep_26_1113,ProdSingRedoBetween,2021.2.3,60.35961047101678,
,,,,149,0,149,0,,,,,,,,,,,,,,,,,,,,,,1669.9140809000237,None,,,,,,,,,,,,,,,,,angle,97,150,aloud,new,null,1668.100458500092,None,1668.100458500092,None,1,0.943620300036855,1668.100458500092,None,0.943620300036855,1669.0625507000368,None,1669.5804501000093,None,1669.5804501000093,None,n,0.3038498000241816,1669.5804501000093,None,0.3038498000241816,,,56Aloud,001,2022_Sep_26_1113,ProdSingRedoBetween,2021.2.3,60.35961047101678,
,,,,150,0,150,0,,,,,,,,,,,,,,,,,,,,,,1672.2629990000278,None,,,,,,,,,,,,,,,,,tennis,54,151,aloud,old,blue,1670.4436895999825,None,1670.4436895999825,None,1,1.032662900048308,1670.4436895999825,None,1.032662900048308,1671.5099209999898,None,1672.0185719000874,None,1672.0185719000874,None,n,0.21755220007617027,1672.0185719000874,None,0.21755220007617027,,,56Aloud,001,2022_Sep_26_1113,ProdSingRedoBetween,2021.2.3,60.35961047101678,
,,,,151,0,151,0,,,,,,,,,,,,,,,,,,,,,,1674.5320433999877,None,,,,,,,,,,,,,,,,,opening,3,152,aloud,old,yellow,1672.7755368000362,None,1672.7755368000362,None,1,1.052576299989596,1672.7755368000362,None,1.052576299989596,1673.8558068000712,None,1674.3664933000691,None,1674.3664933000691,None,n,0.14954020001459867,1674.3664933000691,None,0.14954020001459867,,,56Aloud,001,2022_Sep_26_1113,ProdSingRedoBetween,2021.2.3,60.35961047101678,
,,,,152,0,152,0,,,,,,,,,,,,,,,,,,,,,,1677.2346745000686,None,,,,,,,,,,,,,,,,,build,56,153,aloud,old,blue,1675.0432790000923,None,1675.0432790000923,None,4,1.5688857000786811,1675.0432790000923,None,1.5688857000786811,1676.639021800016,None,1677.1511762000155,None,1677.1511762000155,None,f,0.06104449997656047,1677.1511762000155,None,0.06104449997656047,,,56Aloud,001,2022_Sep_26_1113,ProdSingRedoBetween,2021.2.3,60.35961047101678,
,,,,153,0,153,0,,,,,,,,,,,,,,,,,,,,,,1680.5402738000266,None,,,,,,,,,,,,,,,,,science,70,154,aloud,old,red,1677.7410890000174,None,1677.7410890000174,None,4,1.7031645000679418,1677.7410890000174,None,1.7031645000679418,1679.4722661999986,None,1679.9903623000719,None,1679.9903623000719,None,f,0.5179012999869883,1679.9903623000719,None,0.5179012999869883,,,56Aloud,001,2022_Sep_26_1113,ProdSingRedoBetween,2021.2.3,60.35961047101678,
,,,,154,0,154,0,,,,,,,,,,,,,,,,,,,,,,1683.2574313000077,None,,,,,,,,,,,,,,,,,oxygen,7,155,aloud,old,yellow,1681.0651726000942,None,1681.0651726000942,None,1,1.1789405000163242,1681.0651726000942,None,1.1789405000163242,1682.2739187000552,None,1682.7737496000482,None,1682.7737496000482,None,n,0.46238619997166097,1682.7737496000482,None,0.46238619997166097,,,56Aloud,001,2022_Sep_26_1113,ProdSingRedoBetween,2021.2.3,60.35961047101678,
,,,,155,0,155,0,,,,,,,,,,,,,,,,,,,,,,1685.5345963999862,None,,,,,,,,,,,,,,,,,institute,137,156,aloud,new,null,1683.7580896000145,None,1683.7580896000145,None,1,1.2060473000165075,1683.7580896000145,None,1.2060473000165075,1684.9937502000248,None,1685.4992841000203,None,1685.4992841000203,None,n,0.008971799979917705,1685.4992841000203,None,0.008971799979917705,,,56Aloud,001,2022_Sep_26_1113,ProdSingRedoBetween,2021.2.3,60.35961047101678,
,,,,156,0,156,0,,,,,,,,,,,,,,,,,,,,,,1689.0131787999999,None,,,,,,,,,,,,,,,,,youth,20,157,aloud,old,yellow,1686.0542000000132,None,1686.0542000000132,None,6,1.3260034000268206,1686.0542000000132,None,1.3260034000268206,1687.4157153000124,None,1687.934997000033,None,1687.934997000033,None,r,1.0532949999906123,1687.934997000033,None,1.0532949999906123,,,56Aloud,001,2022_Sep_26_1113,ProdSingRedoBetween,2021.2.3,60.35961047101678,
,,,,157,0,157,0,,,,,,,,,,,,,,,,,,,,,,1693.7870174000273,None,,,,,,,,,,,,,,,,,working,26,158,aloud,old,yellow,1689.522766500013,None,1689.522766500013,None,4,2.6013481999980286,1689.522766500013,None,2.6013481999980286,1692.1516596000874,None,1692.670158400084,None,1692.670158400084,None,f,1.0860248999670148,1692.670158400084,None,1.0860248999670148,,,56Aloud,001,2022_Sep_26_1113,ProdSingRedoBetween,2021.2.3,60.35961047101678,
,,,,158,0,158,0,,,,,,,,,,,,,,,,,,,,,,1697.171291799983,None,,,,,,,,,,,,,,,,,nature,169,159,aloud,new,null,1694.3022117000073,None,1694.3022117000073,None,3,1.8059692999813706,1694.3022117000073,None,1.8059692999813706,1696.1396214000415,None,1696.6550583000062,None,1696.6550583000062,None,n,0.4849195999559015,1696.6550583000062,None,0.4849195999559015,,,56Aloud,001,2022_Sep_26_1113,ProdSingRedoBetween,2021.2.3,60.35961047101678,
,,,,159,0,159,0,,,,,,,,,,,,,,,,,,,,,,1700.0780162999872,None,,,,,,,,,,,,,,,,,silence,153,160,aloud,new,null,1697.6778300000587,None,1697.6778300000587,None,1,1.694309400045313,1697.6778300000587,None,1.694309400045313,1699.3979698000476,None,1699.9115009000525,None,1699.9115009000525,None,n,0.1408369999844581,1699.9115009000525,None,0.1408369999844581,,,56Aloud,001,2022_Sep_26_1113,ProdSingRedoBetween,2021.2.3,60.35961047101678,
,,,,160,0,160,0,,,,,,,,,,,,,,,,,,,,,,1702.676808200078,None,,,,,,,,,,,,,,,,,guard,89,161,aloud,old,red,1700.5915278000757,None,1700.5915278000757,None,5,1.4125651000067592,1700.5915278000757,None,1.4125651000067592,1702.0287430000026,None,1702.543539000093,None,1702.543539000093,None,f,0.10860290005803108,1702.543539000093,None,0.10860290005803108,,,56Aloud,001,2022_Sep_26_1113,ProdSingRedoBetween,2021.2.3,60.35961047101678,
,,,,161,0,161,0,,,,,,,,,,,,,,,,,,,,,,1705.929999700049,None,,,,,,,,,,,,,,,,,course,8,162,aloud,old,yellow,1703.1887288000435,None,1703.1887288000435,None,2,1.9993654999416322,1703.1887288000435,None,1.9993654999416322,1705.2168534999946,None,1705.7300389000447,None,1705.7300389000447,None,n,0.17002710001543164,1705.7300389000447,None,0.17002710001543164,,,56Aloud,001,2022_Sep_26_1113,ProdSingRedoBetween,2021.2.3,60.35961047101678,
,,,,162,0,162,0,,,,,,,,,,,,,,,,,,,,,,1709.199883399997,None,,,,,,,,,,,,,,,,,meeting,68,163,aloud,old,red,1706.4394828000804,None,1706.4394828000804,None,2,1.8366035999497399,1706.4394828000804,None,1.8366035999497399,1708.3017786000855,None,1708.81993290002,None,1708.81993290002,None,n,0.36021750001236796,1708.81993290002,None,0.36021750001236796,,,56Aloud,001,2022_Sep_26_1113,ProdSingRedoBetween,2021.2.3,60.35961047101678,
,,,,163,0,163,0,,,,,,,,,,,,,,,,,,,,,,1712.0271321000764,None,,,,,,,,,,,,,,,,,clean,18,164,aloud,old,yellow,1709.7032381000463,None,1709.7032381000463,None,2,1.1730327000841498,1709.7032381000463,None,1.1730327000841498,1710.9041273000184,None,1711.4279006000143,None,1711.4279006000143,None,n,0.5762683999491856,1711.4279006000143,None,0.5762683999491856,,,56Aloud,001,2022_Sep_26_1113,ProdSingRedoBetween,2021.2.3,60.35961047101678,
,,,,164,0,164,0,,,,,,,,,,,,,,,,,,,,,,1714.7221029000357,None,,,,,,,,,,,,,,,,,candidate,127,165,aloud,new,null,1712.5400658000726,None,1712.5400658000726,None,1,1.1199348999653012,1712.5400658000726,None,1.1199348999653012,1713.6887071999954,None,1714.1974000000628,None,1714.1974000000628,None,n,0.49477770004887134,1714.1974000000628,None,0.49477770004887134,,,56Aloud,001,2022_Sep_26_1113,ProdSingRedoBetween,2021.2.3,60.35961047101678,
,,,,165,0,165,0,,,,,,,,,,,,,,,,,,,,,,1717.2413748999825,None,,,,,,,,,,,,,,,,,smell,13,166,aloud,old,yellow,1715.236104200012,None,1715.236104200012,None,1,1.4080031999619678,1715.236104200012,None,1.4080031999619678,1716.6789327000733,None,1717.1979988000821,None,1717.1979988000821,None,n,0.014182699960656464,1717.1979988000821,None,0.014182699960656464,,,56Aloud,001,2022_Sep_26_1113,ProdSingRedoBetween,2021.2.3,60.35961047101678,
,,,,166,0,166,0,,,,,,,,,,,,,,,,,,,,,,1721.7958167000907,None,,,,,,,,,,,,,,,,,strain,86,167,aloud,old,red,1717.7505862000398,None,1717.7505862000398,None,6,2.781533900066279,1717.7505862000398,None,2.781533900066279,1720.5626988000004,None,1721.0617707000347,None,1721.0617707000347,None,r,0.7022010000655428,1721.0617707000347,None,0.7022010000655428,,,56Aloud,001,2022_Sep_26_1113,ProdSingRedoBetween,2021.2.3,60.35961047101678,
,,,,167,0,167,0,,,,,,,,,,,,,,,,,,,,,,1726.9175655000145,None,,,,,,,,,,,,,,,,,short,167,168,aloud,new,null,1722.3063218999887,None,1722.3063218999887,None,3,2.865649800049141,1722.3063218999887,None,2.865649800049141,1725.198995099985,None,1725.704716200009,None,1725.704716200009,None,n,1.1953367000678554,1725.704716200009,None,1.1953367000678554,,,56Aloud,001,2022_Sep_26_1113,ProdSingRedoBetween,2021.2.3,60.35961047101678,
,,,,168,0,168,0,,,,,,,,,,,,,,,,,,,,,,1729.7922460000264,None,,,,,,,,,,,,,,,,,brilliant,124,169,aloud,new,null,1727.4301608999958,None,1727.4301608999958,None,1,1.405884400010109,1727.4301608999958,None,1.405884400010109,1728.8570940000936,None,1729.3702221000567,None,1729.3702221000567,None,n,0.3940816998947412,1729.3702221000567,None,0.3940816998947412,,,56Aloud,001,2022_Sep_26_1113,ProdSingRedoBetween,2021.2.3,60.35961047101678,
,,,,169,0,169,0,,,,,,,,,,,,,,,,,,,,,,1733.7577812999953,None,,,,,,,,,,,,,,,,,harmony,36,170,aloud,old,blue,1730.3105940000387,None,1730.3105940000387,None,6,1.8535851000342518,1730.3105940000387,None,1.8535851000342518,1732.195948000066,None,1732.7072929000715,None,1732.7072929000715,None,f,1.0247372000012547,1732.7072929000715,None,1.0247372000012547,,,56Aloud,001,2022_Sep_26_1113,ProdSingRedoBetween,2021.2.3,60.35961047101678,
,,,,170,0,170,0,,,,,,,,,,,,,,,,,,,,,,1737.9118899999885,None,,,,,,,,,,,,,,,,,scale,27,171,aloud,old,yellow,1734.2678629000438,None,1734.2678629000438,None,4,2.7601823000004515,1734.2678629000438,None,2.7601823000004515,1737.047396400012,None,1737.5617248000344,None,1737.5617248000344,None,f,0.32224170002155006,1737.5617248000344,None,0.32224170002155006,,,56Aloud,001,2022_Sep_26_1113,ProdSingRedoBetween,2021.2.3,60.35961047101678,
,,,,171,0,171,0,,,,,,,,,,,,,,,,,,,,,,1740.3704890999943,None,,,,,,,,,,,,,,,,,rural,171,172,aloud,new,null,1738.4198167000432,None,1738.4198167000432,None,1,1.208298800047487,1738.4198167000432,None,1.208298800047487,1739.6489185000537,None,1740.1642651000293,None,1740.1642651000293,None,n,0.1838261999655515,1740.1642651000293,None,0.1838261999655515,,,56Aloud,001,2022_Sep_26_1113,ProdSingRedoBetween,2021.2.3,60.35961047101678,
,,,,172,0,172,0,,,,,,,,,,,,,,,,,,,,,,1743.6015708000632,None,,,,,,,,,,,,,,,,,raise,134,173,aloud,new,null,1740.8863971000537,None,1740.8863971000537,None,1,2.0536546000512317,1740.8863971000537,None,2.0536546000512317,1742.9730305999983,None,1743.4842478000792,None,1743.4842478000792,None,n,0.08786199998576194,1743.4842478000792,None,0.08786199998576194,,,56Aloud,001,2022_Sep_26_1113,ProdSingRedoBetween,2021.2.3,60.35961047101678,
,,,,173,0,173,0,,,,,,,,,,,,,,,,,,,,,,1746.7588529000059,None,,,,,,,,,,,,,,,,,testimony,177,174,aloud,new,null,1744.1045309000183,None,1744.1045309000183,None,1,1.5474065999733284,1744.1045309000183,None,1.5474065999733284,1745.6743499999866,None,1746.1905298000202,None,1746.1905298000202,None,n,0.5416114000836387,1746.1905298000202,None,0.5416114000836387,,,56Aloud,001,2022_Sep_26_1113,ProdSingRedoBetween,2021.2.3,60.35961047101678,
,,,,174,0,174,0,,,,,,,,,,,,,,,,,,,,,,1749.5068113000598,None,,,,,,,,,,,,,,,,,report,76,175,aloud,old,red,1747.2734381000046,None,1747.2734381000046,None,4,1.4345732999499887,1747.2734381000046,None,1.4345732999499887,1748.7272027999861,None,1749.2430481000338,None,1749.2430481000338,None,f,0.24102449999190867,1749.2430481000338,None,0.24102449999190867,,,56Aloud,001,2022_Sep_26_1113,ProdSingRedoBetween,2021.2.3,60.35961047101678,
,,,,175,0,175,0,,,,,,,,,,,,,,,,,,,,,,1752.1260703000007,None,,,,,,,,,,,,,,,,,audience,178,176,aloud,new,null,1750.01482520008,None,1750.01482520008,None,1,1.2530615999130532,1750.01482520008,None,1.2530615999130532,1751.2916409000754,None,1751.7923570000567,None,1751.7923570000567,None,n,0.307653299998492,1751.7923570000567,None,0.307653299998492,,,56Aloud,001,2022_Sep_26_1113,ProdSingRedoBetween,2021.2.3,60.35961047101678,
