StudyLoop.thisRepN,StudyLoop.thisTrialN,StudyLoop.thisN,StudyLoop.thisIndex,TestLoop.thisRepN,TestLoop.thisTrialN,TestLoop.thisN,TestLoop.thisIndex,textCondition.started,textCondition.stopped,keyCondition.keys,keyCondition.rt,keyCondition.started,keyCondition.stopped,Condition,textWelcome.started,textWelcome.stopped,keyWelcome.keys,keyWelcome.rt,keyWelcome.started,keyWelcome.stopped,textAloud.started,textAloud.stopped,textSilent.started,textSilent.stopped,textSing.started,textSing.stopped,conditional_text.started,conditional_text.stopped,textBlank500.started,textBlank500.stopped,study_word,study_num,study_order,study_type,word_color,textStudy.started,textStudy.stopped,keyStudy.keys,keyStudy.started,keyStudy.stopped,textTestInstructions.started,textTestInstructions.stopped,key_resp_3.keys,key_resp_3.rt,key_resp_3.started,key_resp_3.stopped,test_word,test_num,test_order,test_condition,old_new_test,test_word_original_color,textConf.started,textConf.stopped,textConfScale.started,textConfScale.stopped,keyConf.keys,keyConf.rt,keyConf.started,keyConf.stopped,confidence response time,textTestBlank.started,textTestBlank.stopped,textRKN.started,textRKN.stopped,textRKNScale.started,textRKNScale.stopped,keyRKN.keys,keyRKN.rt,keyRKN.started,keyRKN.stopped,rkn response time,textEnd.started,textEnd.stopped,participant,session,date,expName,psychopyVersion,frameRate,
,,,,,,,,28.25396520004142,None,c,2.831468200078234,28.25396520004142,None,,,,,,,,,,,,,,,,,,,,,,,,,,,,,,,,,,,,,,,,,,,,,,,,,,,,,,,,,,,,,,57 Sing,001,2022_Sep_29_0915,ProdSingRedoBetween,2021.2.3,60.02804513454332,
,,,,,,,,,,,,,,SingTest,31.14022559998557,None,space,1030.022690600017,31.14022559998557,None,,,,,,,,,,,,,,,,,,,,,,,,,,,,,,,,,,,,,,,,,,,,,,,,,,,,,,,57 Sing,001,2022_Sep_29_0915,ProdSingRedoBetween,2021.2.3,60.02804513454332,
0,0,0,0,,,,,,,,,,,,,,,,,,31.14022559998557,None,31.14022559998557,None,31.14022559998557,None,31.14022559998557,None,1063.7000901999418,None,threat,37,1,sing,blue,1061.6880632999819,None,None,1061.6880632999819,None,,,,,,,,,,,,,,,,,,,,,,,,,,,,,,,,,,,57 Sing,001,2022_Sep_29_0915,ProdSingRedoBetween,2021.2.3,60.02804513454332,
1,0,1,0,,,,,,,,,,,,,,,,,,,,,,,,,,1066.2027150000213,None,management,72,2,sing,red,1064.2006470999913,None,None,1064.2006470999913,None,,,,,,,,,,,,,,,,,,,,,,,,,,,,,,,,,,,57 Sing,001,2022_Sep_29_0915,ProdSingRedoBetween,2021.2.3,60.02804513454332,
2,0,2,0,,,,,,,,,,,,,,,,,,,,,,,,,,1068.7217961000279,None,weather,75,3,sing,red,1066.709166500019,None,None,1066.709166500019,None,,,,,,,,,,,,,,,,,,,,,,,,,,,,,,,,,,,57 Sing,001,2022_Sep_29_0915,ProdSingRedoBetween,2021.2.3,60.02804513454332,
3,0,3,0,,,,,,,,,,,,,,,,,,,,,,,,,,1071.2244718000293,None,whole,16,4,sing,yellow,1069.2247865999816,None,None,1069.2247865999816,None,,,,,,,,,,,,,,,,,,,,,,,,,,,,,,,,,,,57 Sing,001,2022_Sep_29_0915,ProdSingRedoBetween,2021.2.3,60.02804513454332,
4,0,4,0,,,,,,,,,,,,,,,,,,,,,,,,,,1073.7268430000404,None,thing,56,5,sing,blue,1071.7258542999625,None,None,1071.7258542999625,None,,,,,,,,,,,,,,,,,,,,,,,,,,,,,,,,,,,57 Sing,001,2022_Sep_29_0915,ProdSingRedoBetween,2021.2.3,60.02804513454332,
5,0,5,0,,,,,,,,,,,,,,,,,,,,,,,,,,1076.2292044999776,None,nation,28,6,sing,yellow,1074.2271864999784,None,None,1074.2271864999784,None,,,,,,,,,,,,,,,,,,,,,,,,,,,,,,,,,,,57 Sing,001,2022_Sep_29_0915,ProdSingRedoBetween,2021.2.3,60.02804513454332,
6,0,6,0,,,,,,,,,,,,,,,,,,,,,,,,,,1078.7484546999913,None,weight,74,7,sing,red,1076.7345331000397,None,None,1076.7345331000397,None,,,,,,,,,,,,,,,,,,,,,,,,,,,,,,,,,,,57 Sing,001,2022_Sep_29_0915,ProdSingRedoBetween,2021.2.3,60.02804513454332,
7,0,7,0,,,,,,,,,,,,,,,,,,,,,,,,,,1081.2506975999568,None,front,44,8,sing,blue,1079.2506295000203,None,None,1079.2506295000203,None,,,,,,,,,,,,,,,,,,,,,,,,,,,,,,,,,,,57 Sing,001,2022_Sep_29_0915,ProdSingRedoBetween,2021.2.3,60.02804513454332,
8,0,8,0,,,,,,,,,,,,,,,,,,,,,,,,,,1083.7534131000284,None,literature,33,9,sing,blue,1081.7513746999903,None,None,1081.7513746999903,None,,,,,,,,,,,,,,,,,,,,,,,,,,,,,,,,,,,57 Sing,001,2022_Sep_29_0915,ProdSingRedoBetween,2021.2.3,60.02804513454332,
9,0,9,0,,,,,,,,,,,,,,,,,,,,,,,,,,1086.2554840999655,None,piece,1,10,sing,yellow,1084.2537195000332,None,None,1084.2537195000332,None,,,,,,,,,,,,,,,,,,,,,,,,,,,,,,,,,,,57 Sing,001,2022_Sep_29_0915,ProdSingRedoBetween,2021.2.3,60.02804513454332,
10,0,10,0,,,,,,,,,,,,,,,,,,,,,,,,,,1088.7583632000023,None,sleep,40,11,sing,blue,1086.7562727000332,None,None,1086.7562727000332,None,,,,,,,,,,,,,,,,,,,,,,,,,,,,,,,,,,,57 Sing,001,2022_Sep_29_0915,ProdSingRedoBetween,2021.2.3,60.02804513454332,
11,0,11,0,,,,,,,,,,,,,,,,,,,,,,,,,,1091.2776033999398,None,leader,11,12,sing,yellow,1089.2680080999853,None,None,1089.2680080999853,None,,,,,,,,,,,,,,,,,,,,,,,,,,,,,,,,,,,57 Sing,001,2022_Sep_29_0915,ProdSingRedoBetween,2021.2.3,60.02804513454332,
12,0,12,0,,,,,,,,,,,,,,,,,,,,,,,,,,1093.7802173000528,None,express,63,13,sing,red,1091.7780163999414,None,None,1091.7780163999414,None,,,,,,,,,,,,,,,,,,,,,,,,,,,,,,,,,,,57 Sing,001,2022_Sep_29_0915,ProdSingRedoBetween,2021.2.3,60.02804513454332,
13,0,13,0,,,,,,,,,,,,,,,,,,,,,,,,,,1096.2826467000414,None,generation,3,14,sing,yellow,1094.283579000039,None,None,1094.283579000039,None,,,,,,,,,,,,,,,,,,,,,,,,,,,,,,,,,,,57 Sing,001,2022_Sep_29_0915,ProdSingRedoBetween,2021.2.3,60.02804513454332,
14,0,14,0,,,,,,,,,,,,,,,,,,,,,,,,,,1098.801789500052,None,subject,49,15,sing,blue,1096.7946326000383,None,None,1096.7946326000383,None,,,,,,,,,,,,,,,,,,,,,,,,,,,,,,,,,,,57 Sing,001,2022_Sep_29_0915,ProdSingRedoBetween,2021.2.3,60.02804513454332,
15,0,15,0,,,,,,,,,,,,,,,,,,,,,,,,,,1101.3040461000055,None,institute,82,16,sing,red,1099.304609999992,None,None,1099.304609999992,None,,,,,,,,,,,,,,,,,,,,,,,,,,,,,,,,,,,57 Sing,001,2022_Sep_29_0915,ProdSingRedoBetween,2021.2.3,60.02804513454332,
16,0,16,0,,,,,,,,,,,,,,,,,,,,,,,,,,1103.8067560000345,None,science,6,17,sing,yellow,1101.8056567000458,None,None,1101.8056567000458,None,,,,,,,,,,,,,,,,,,,,,,,,,,,,,,,,,,,57 Sing,001,2022_Sep_29_0915,ProdSingRedoBetween,2021.2.3,60.02804513454332,
17,0,17,0,,,,,,,,,,,,,,,,,,,,,,,,,,1106.3260318000102,None,private,54,18,sing,blue,1104.3106205000076,None,None,1104.3106205000076,None,,,,,,,,,,,,,,,,,,,,,,,,,,,,,,,,,,,57 Sing,001,2022_Sep_29_0915,ProdSingRedoBetween,2021.2.3,60.02804513454332,
18,0,18,0,,,,,,,,,,,,,,,,,,,,,,,,,,1108.8285383000039,None,cross,77,19,sing,red,1106.8264289000072,None,None,1106.8264289000072,None,,,,,,,,,,,,,,,,,,,,,,,,,,,,,,,,,,,57 Sing,001,2022_Sep_29_0915,ProdSingRedoBetween,2021.2.3,60.02804513454332,
19,0,19,0,,,,,,,,,,,,,,,,,,,,,,,,,,1111.3309982999926,None,murder,18,20,sing,yellow,1109.3288715999806,None,None,1109.3288715999806,None,,,,,,,,,,,,,,,,,,,,,,,,,,,,,,,,,,,57 Sing,001,2022_Sep_29_0915,ProdSingRedoBetween,2021.2.3,60.02804513454332,
20,0,20,0,,,,,,,,,,,,,,,,,,,,,,,,,,1113.850204700022,None,ground,42,21,sing,blue,1111.8350359000033,None,None,1111.8350359000033,None,,,,,,,,,,,,,,,,,,,,,,,,,,,,,,,,,,,57 Sing,001,2022_Sep_29_0915,ProdSingRedoBetween,2021.2.3,60.02804513454332,
21,0,21,0,,,,,,,,,,,,,,,,,,,,,,,,,,1116.3526100999443,None,society,17,22,sing,yellow,1114.3523649999406,None,None,1114.3523649999406,None,,,,,,,,,,,,,,,,,,,,,,,,,,,,,,,,,,,57 Sing,001,2022_Sep_29_0915,ProdSingRedoBetween,2021.2.3,60.02804513454332,
22,0,22,0,,,,,,,,,,,,,,,,,,,,,,,,,,1118.8551226999843,None,concern,43,23,sing,blue,1116.8529259000206,None,None,1116.8529259000206,None,,,,,,,,,,,,,,,,,,,,,,,,,,,,,,,,,,,57 Sing,001,2022_Sep_29_0915,ProdSingRedoBetween,2021.2.3,60.02804513454332,
23,0,23,0,,,,,,,,,,,,,,,,,,,,,,,,,,1121.3743951000506,None,instrument,31,24,sing,blue,1119.3660962999566,None,None,1119.3660962999566,None,,,,,,,,,,,,,,,,,,,,,,,,,,,,,,,,,,,57 Sing,001,2022_Sep_29_0915,ProdSingRedoBetween,2021.2.3,60.02804513454332,
24,0,24,0,,,,,,,,,,,,,,,,,,,,,,,,,,1123.8935383999487,None,resistance,7,25,sing,yellow,1121.8806200999534,None,None,1121.8806200999534,None,,,,,,,,,,,,,,,,,,,,,,,,,,,,,,,,,,,57 Sing,001,2022_Sep_29_0915,ProdSingRedoBetween,2021.2.3,60.02804513454332,
25,0,25,0,,,,,,,,,,,,,,,,,,,,,,,,,,1126.3959389999509,None,plane,2,26,sing,yellow,1124.3939522999572,None,None,1124.3939522999572,None,,,,,,,,,,,,,,,,,,,,,,,,,,,,,,,,,,,57 Sing,001,2022_Sep_29_0915,ProdSingRedoBetween,2021.2.3,60.02804513454332,
26,0,26,0,,,,,,,,,,,,,,,,,,,,,,,,,,1128.8984862000216,None,store,89,27,sing,red,1126.8964708000422,None,None,1126.8964708000422,None,,,,,,,,,,,,,,,,,,,,,,,,,,,,,,,,,,,57 Sing,001,2022_Sep_29_0915,ProdSingRedoBetween,2021.2.3,60.02804513454332,
27,0,27,0,,,,,,,,,,,,,,,,,,,,,,,,,,1131.4009541999549,None,solution,64,28,sing,red,1129.401042600046,None,None,1129.401042600046,None,,,,,,,,,,,,,,,,,,,,,,,,,,,,,,,,,,,57 Sing,001,2022_Sep_29_0915,ProdSingRedoBetween,2021.2.3,60.02804513454332,
28,0,28,0,,,,,,,,,,,,,,,,,,,,,,,,,,1133.9200780000538,None,drink,60,29,sing,red,1131.9092367000412,None,None,1131.9092367000412,None,,,,,,,,,,,,,,,,,,,,,,,,,,,,,,,,,,,57 Sing,001,2022_Sep_29_0915,ProdSingRedoBetween,2021.2.3,60.02804513454332,
29,0,29,0,,,,,,,,,,,,,,,,,,,,,,,,,,1136.4226998999948,None,sound,30,30,sing,blue,1134.4231389999622,None,None,1134.4231389999622,None,,,,,,,,,,,,,,,,,,,,,,,,,,,,,,,,,,,57 Sing,001,2022_Sep_29_0915,ProdSingRedoBetween,2021.2.3,60.02804513454332,
30,0,30,0,,,,,,,,,,,,,,,,,,,,,,,,,,1138.9250716000097,None,nature,15,31,sing,yellow,1136.924023999949,None,None,1136.924023999949,None,,,,,,,,,,,,,,,,,,,,,,,,,,,,,,,,,,,57 Sing,001,2022_Sep_29_0915,ProdSingRedoBetween,2021.2.3,60.02804513454332,
31,0,31,0,,,,,,,,,,,,,,,,,,,,,,,,,,1141.4443559000501,None,track,50,32,sing,blue,1139.432137500029,None,None,1139.432137500029,None,,,,,,,,,,,,,,,,,,,,,,,,,,,,,,,,,,,57 Sing,001,2022_Sep_29_0915,ProdSingRedoBetween,2021.2.3,60.02804513454332,
32,0,32,0,,,,,,,,,,,,,,,,,,,,,,,,,,1143.9469200000167,None,owner,23,33,sing,yellow,1141.9448893000372,None,None,1141.9448893000372,None,,,,,,,,,,,,,,,,,,,,,,,,,,,,,,,,,,,57 Sing,001,2022_Sep_29_0915,ProdSingRedoBetween,2021.2.3,60.02804513454332,
33,0,33,0,,,,,,,,,,,,,,,,,,,,,,,,,,1146.4659872000339,None,gesture,41,34,sing,blue,1144.45250819996,None,None,1144.45250819996,None,,,,,,,,,,,,,,,,,,,,,,,,,,,,,,,,,,,57 Sing,001,2022_Sep_29_0915,ProdSingRedoBetween,2021.2.3,60.02804513454332,
34,0,34,0,,,,,,,,,,,,,,,,,,,,,,,,,,1148.9850377000403,None,income,13,35,sing,yellow,1146.9722978000063,None,None,1146.9722978000063,None,,,,,,,,,,,,,,,,,,,,,,,,,,,,,,,,,,,57 Sing,001,2022_Sep_29_0915,ProdSingRedoBetween,2021.2.3,60.02804513454332,
35,0,35,0,,,,,,,,,,,,,,,,,,,,,,,,,,1151.487745200051,None,message,58,36,sing,blue,1149.4855306999525,None,None,1149.4855306999525,None,,,,,,,,,,,,,,,,,,,,,,,,,,,,,,,,,,,57 Sing,001,2022_Sep_29_0915,ProdSingRedoBetween,2021.2.3,60.02804513454332,
36,0,36,0,,,,,,,,,,,,,,,,,,,,,,,,,,1154.006891899975,None,oxygen,65,37,sing,red,1151.9930320000276,None,None,1151.9930320000276,None,,,,,,,,,,,,,,,,,,,,,,,,,,,,,,,,,,,57 Sing,001,2022_Sep_29_0915,ProdSingRedoBetween,2021.2.3,60.02804513454332,
37,0,37,0,,,,,,,,,,,,,,,,,,,,,,,,,,1156.5091605000198,None,welcome,19,38,sing,yellow,1154.507360000047,None,None,1154.507360000047,None,,,,,,,,,,,,,,,,,,,,,,,,,,,,,,,,,,,57 Sing,001,2022_Sep_29_0915,ProdSingRedoBetween,2021.2.3,60.02804513454332,
38,0,38,0,,,,,,,,,,,,,,,,,,,,,,,,,,1159.0118186000036,None,produce,71,39,sing,red,1157.0095595000312,None,None,1157.0095595000312,None,,,,,,,,,,,,,,,,,,,,,,,,,,,,,,,,,,,57 Sing,001,2022_Sep_29_0915,ProdSingRedoBetween,2021.2.3,60.02804513454332,
39,0,39,0,,,,,,,,,,,,,,,,,,,,,,,,,,1161.5309791000327,None,death,10,40,sing,yellow,1159.515471599996,None,None,1159.515471599996,None,,,,,,,,,,,,,,,,,,,,,,,,,,,,,,,,,,,57 Sing,001,2022_Sep_29_0915,ProdSingRedoBetween,2021.2.3,60.02804513454332,
40,0,40,0,,,,,,,,,,,,,,,,,,,,,,,,,,1164.0334825000027,None,payment,55,41,sing,blue,1162.0315446000313,None,None,1162.0315446000313,None,,,,,,,,,,,,,,,,,,,,,,,,,,,,,,,,,,,57 Sing,001,2022_Sep_29_0915,ProdSingRedoBetween,2021.2.3,60.02804513454332,
41,0,41,0,,,,,,,,,,,,,,,,,,,,,,,,,,1166.5361255999887,None,colonel,27,42,sing,yellow,1164.5341575000202,None,None,1164.5341575000202,None,,,,,,,,,,,,,,,,,,,,,,,,,,,,,,,,,,,57 Sing,001,2022_Sep_29_0915,ProdSingRedoBetween,2021.2.3,60.02804513454332,
42,0,42,0,,,,,,,,,,,,,,,,,,,,,,,,,,1169.0386080000317,None,country,29,43,sing,blue,1167.0394230999518,None,None,1167.0394230999518,None,,,,,,,,,,,,,,,,,,,,,,,,,,,,,,,,,,,57 Sing,001,2022_Sep_29_0915,ProdSingRedoBetween,2021.2.3,60.02804513454332,
43,0,43,0,,,,,,,,,,,,,,,,,,,,,,,,,,1171.540951599949,None,style,32,44,sing,blue,1169.5410884999437,None,None,1169.5410884999437,None,,,,,,,,,,,,,,,,,,,,,,,,,,,,,,,,,,,57 Sing,001,2022_Sep_29_0915,ProdSingRedoBetween,2021.2.3,60.02804513454332,
44,0,44,0,,,,,,,,,,,,,,,,,,,,,,,,,,1174.0434592999518,None,figure,46,45,sing,blue,1172.0415559000103,None,None,1172.0415559000103,None,,,,,,,,,,,,,,,,,,,,,,,,,,,,,,,,,,,57 Sing,001,2022_Sep_29_0915,ProdSingRedoBetween,2021.2.3,60.02804513454332,
45,0,45,0,,,,,,,,,,,,,,,,,,,,,,,,,,1176.5624994999962,None,medicine,24,46,sing,yellow,1174.5501742999768,None,None,1174.5501742999768,None,,,,,,,,,,,,,,,,,,,,,,,,,,,,,,,,,,,57 Sing,001,2022_Sep_29_0915,ProdSingRedoBetween,2021.2.3,60.02804513454332,
46,0,46,0,,,,,,,,,,,,,,,,,,,,,,,,,,1179.0652222000062,None,character,48,47,sing,blue,1177.0628905999474,None,None,1177.0628905999474,None,,,,,,,,,,,,,,,,,,,,,,,,,,,,,,,,,,,57 Sing,001,2022_Sep_29_0915,ProdSingRedoBetween,2021.2.3,60.02804513454332,
47,0,47,0,,,,,,,,,,,,,,,,,,,,,,,,,,1181.584373199963,None,service,79,48,sing,red,1179.5745005999925,None,None,1179.5745005999925,None,,,,,,,,,,,,,,,,,,,,,,,,,,,,,,,,,,,57 Sing,001,2022_Sep_29_0915,ProdSingRedoBetween,2021.2.3,60.02804513454332,
48,0,48,0,,,,,,,,,,,,,,,,,,,,,,,,,,1184.0866921000415,None,clean,36,49,sing,blue,1182.0848786999704,None,None,1182.0848786999704,None,,,,,,,,,,,,,,,,,,,,,,,,,,,,,,,,,,,57 Sing,001,2022_Sep_29_0915,ProdSingRedoBetween,2021.2.3,60.02804513454332,
49,0,49,0,,,,,,,,,,,,,,,,,,,,,,,,,,1186.5894309999421,None,entrance,57,50,sing,blue,1184.5891453999793,None,None,1184.5891453999793,None,,,,,,,,,,,,,,,,,,,,,,,,,,,,,,,,,,,57 Sing,001,2022_Sep_29_0915,ProdSingRedoBetween,2021.2.3,60.02804513454332,
50,0,50,0,,,,,,,,,,,,,,,,,,,,,,,,,,1189.1084842999699,None,length,34,51,sing,blue,1187.09431700001,None,None,1187.09431700001,None,,,,,,,,,,,,,,,,,,,,,,,,,,,,,,,,,,,57 Sing,001,2022_Sep_29_0915,ProdSingRedoBetween,2021.2.3,60.02804513454332,
51,0,51,0,,,,,,,,,,,,,,,,,,,,,,,,,,1191.6112553999992,None,opening,39,52,sing,blue,1189.6090759000508,None,None,1189.6090759000508,None,,,,,,,,,,,,,,,,,,,,,,,,,,,,,,,,,,,57 Sing,001,2022_Sep_29_0915,ProdSingRedoBetween,2021.2.3,60.02804513454332,
52,0,52,0,,,,,,,,,,,,,,,,,,,,,,,,,,1194.1135459999787,None,region,66,53,sing,red,1192.112410999951,None,None,1192.112410999951,None,,,,,,,,,,,,,,,,,,,,,,,,,,,,,,,,,,,57 Sing,001,2022_Sep_29_0915,ProdSingRedoBetween,2021.2.3,60.02804513454332,
53,0,53,0,,,,,,,,,,,,,,,,,,,,,,,,,,1196.6325587000465,None,distance,59,54,sing,yellow,1194.6171939000487,None,None,1194.6171939000487,None,,,,,,,,,,,,,,,,,,,,,,,,,,,,,,,,,,,57 Sing,001,2022_Sep_29_0915,ProdSingRedoBetween,2021.2.3,60.02804513454332,
54,0,54,0,,,,,,,,,,,,,,,,,,,,,,,,,,1199.1519204999786,None,power,25,55,sing,yellow,1197.140837599989,None,None,1197.140837599989,None,,,,,,,,,,,,,,,,,,,,,,,,,,,,,,,,,,,57 Sing,001,2022_Sep_29_0915,ProdSingRedoBetween,2021.2.3,60.02804513454332,
55,0,55,0,,,,,,,,,,,,,,,,,,,,,,,,,,1201.6544070000527,None,build,61,56,sing,red,1199.6539241999853,None,None,1199.6539241999853,None,,,,,,,,,,,,,,,,,,,,,,,,,,,,,,,,,,,57 Sing,001,2022_Sep_29_0915,ProdSingRedoBetween,2021.2.3,60.02804513454332,
56,0,56,0,,,,,,,,,,,,,,,,,,,,,,,,,,1204.1568397999508,None,citizen,62,57,sing,red,1202.15545630001,None,None,1202.15545630001,None,,,,,,,,,,,,,,,,,,,,,,,,,,,,,,,,,,,57 Sing,001,2022_Sep_29_0915,ProdSingRedoBetween,2021.2.3,60.02804513454332,
57,0,57,0,,,,,,,,,,,,,,,,,,,,,,,,,,1206.6594129999867,None,benefit,68,58,sing,red,1204.6583806000417,None,None,1204.6583806000417,None,,,,,,,,,,,,,,,,,,,,,,,,,,,,,,,,,,,57 Sing,001,2022_Sep_29_0915,ProdSingRedoBetween,2021.2.3,60.02804513454332,
58,0,58,0,,,,,,,,,,,,,,,,,,,,,,,,,,1209.1618592999876,None,education,26,59,sing,yellow,1207.1598233999684,None,None,1207.1598233999684,None,,,,,,,,,,,,,,,,,,,,,,,,,,,,,,,,,,,57 Sing,001,2022_Sep_29_0915,ProdSingRedoBetween,2021.2.3,60.02804513454332,
59,0,59,0,,,,,,,,,,,,,,,,,,,,,,,,,,1211.68072449998,None,direction,35,60,sing,blue,1209.6681986999465,None,None,1209.6681986999465,None,,,,,,,,,,,,,,,,,,,,,,,,,,,,,,,,,,,57 Sing,001,2022_Sep_29_0915,ProdSingRedoBetween,2021.2.3,60.02804513454332,
60,0,60,0,,,,,,,,,,,,,,,,,,,,,,,,,,1214.1836966000265,None,throw,78,61,sing,red,1212.1815256000264,None,None,1212.1815256000264,None,,,,,,,,,,,,,,,,,,,,,,,,,,,,,,,,,,,57 Sing,001,2022_Sep_29_0915,ProdSingRedoBetween,2021.2.3,60.02804513454332,
61,0,61,0,,,,,,,,,,,,,,,,,,,,,,,,,,1216.6860478000017,None,relation,85,62,sing,red,1214.685268000001,None,None,1214.685268000001,None,,,,,,,,,,,,,,,,,,,,,,,,,,,,,,,,,,,57 Sing,001,2022_Sep_29_0915,ProdSingRedoBetween,2021.2.3,60.02804513454332,
62,0,62,0,,,,,,,,,,,,,,,,,,,,,,,,,,1219.1885094000027,None,harmony,69,63,sing,red,1217.1874396000057,None,None,1217.1874396000057,None,,,,,,,,,,,,,,,,,,,,,,,,,,,,,,,,,,,57 Sing,001,2022_Sep_29_0915,ProdSingRedoBetween,2021.2.3,60.02804513454332,
63,0,63,0,,,,,,,,,,,,,,,,,,,,,,,,,,1221.6909467000514,None,chief,45,64,sing,blue,1219.6888139999937,None,None,1219.6888139999937,None,,,,,,,,,,,,,,,,,,,,,,,,,,,,,,,,,,,57 Sing,001,2022_Sep_29_0915,ProdSingRedoBetween,2021.2.3,60.02804513454332,
64,0,64,0,,,,,,,,,,,,,,,,,,,,,,,,,,1224.2101676999591,None,reading,87,65,sing,red,1222.1990141000133,None,None,1222.1990141000133,None,,,,,,,,,,,,,,,,,,,,,,,,,,,,,,,,,,,57 Sing,001,2022_Sep_29_0915,ProdSingRedoBetween,2021.2.3,60.02804513454332,
65,0,65,0,,,,,,,,,,,,,,,,,,,,,,,,,,1226.7293610000052,None,department,47,66,sing,blue,1224.7195592999924,None,None,1224.7195592999924,None,,,,,,,,,,,,,,,,,,,,,,,,,,,,,,,,,,,57 Sing,001,2022_Sep_29_0915,ProdSingRedoBetween,2021.2.3,60.02804513454332,
66,0,66,0,,,,,,,,,,,,,,,,,,,,,,,,,,1229.2487179000163,None,space,52,67,sing,blue,1227.2370399000356,None,None,1227.2370399000356,None,,,,,,,,,,,,,,,,,,,,,,,,,,,,,,,,,,,57 Sing,001,2022_Sep_29_0915,ProdSingRedoBetween,2021.2.3,60.02804513454332,
67,0,67,0,,,,,,,,,,,,,,,,,,,,,,,,,,1231.7510486999527,None,course,8,68,sing,yellow,1229.7488355999812,None,None,1229.7488355999812,None,,,,,,,,,,,,,,,,,,,,,,,,,,,,,,,,,,,57 Sing,001,2022_Sep_29_0915,ProdSingRedoBetween,2021.2.3,60.02804513454332,
68,0,68,0,,,,,,,,,,,,,,,,,,,,,,,,,,1234.2535670000361,None,collection,14,69,sing,yellow,1232.253219999955,None,None,1232.253219999955,None,,,,,,,,,,,,,,,,,,,,,,,,,,,,,,,,,,,57 Sing,001,2022_Sep_29_0915,ProdSingRedoBetween,2021.2.3,60.02804513454332,
69,0,69,0,,,,,,,,,,,,,,,,,,,,,,,,,,1236.7726062999573,None,problem,53,70,sing,blue,1234.7601285999408,None,None,1234.7601285999408,None,,,,,,,,,,,,,,,,,,,,,,,,,,,,,,,,,,,57 Sing,001,2022_Sep_29_0915,ProdSingRedoBetween,2021.2.3,60.02804513454332,
70,0,70,0,,,,,,,,,,,,,,,,,,,,,,,,,,1239.2752499999478,None,silence,5,71,sing,yellow,1237.272921100026,None,None,1237.272921100026,None,,,,,,,,,,,,,,,,,,,,,,,,,,,,,,,,,,,57 Sing,001,2022_Sep_29_0915,ProdSingRedoBetween,2021.2.3,60.02804513454332,
71,0,71,0,,,,,,,,,,,,,,,,,,,,,,,,,,1241.7944461000152,None,mayor,38,72,sing,blue,1239.7790954000084,None,None,1239.7790954000084,None,,,,,,,,,,,,,,,,,,,,,,,,,,,,,,,,,,,57 Sing,001,2022_Sep_29_0915,ProdSingRedoBetween,2021.2.3,60.02804513454332,
72,0,72,0,,,,,,,,,,,,,,,,,,,,,,,,,,1244.296996399993,None,force,20,73,sing,yellow,1242.2970828999532,None,None,1242.2970828999532,None,,,,,,,,,,,,,,,,,,,,,,,,,,,,,,,,,,,57 Sing,001,2022_Sep_29_0915,ProdSingRedoBetween,2021.2.3,60.02804513454332,
73,0,73,0,,,,,,,,,,,,,,,,,,,,,,,,,,1246.8160825000377,None,spoke,51,74,sing,blue,1244.8034457999747,None,None,1244.8034457999747,None,,,,,,,,,,,,,,,,,,,,,,,,,,,,,,,,,,,57 Sing,001,2022_Sep_29_0915,ProdSingRedoBetween,2021.2.3,60.02804513454332,
74,0,74,0,,,,,,,,,,,,,,,,,,,,,,,,,,1249.3186370000476,None,phrase,22,75,sing,yellow,1247.317119000014,None,None,1247.317119000014,None,,,,,,,,,,,,,,,,,,,,,,,,,,,,,,,,,,,57 Sing,001,2022_Sep_29_0915,ProdSingRedoBetween,2021.2.3,60.02804513454332,
75,0,75,0,,,,,,,,,,,,,,,,,,,,,,,,,,1251.8379878000123,None,dream,73,76,sing,red,1249.8227630000329,None,None,1249.8227630000329,None,,,,,,,,,,,,,,,,,,,,,,,,,,,,,,,,,,,57 Sing,001,2022_Sep_29_0915,ProdSingRedoBetween,2021.2.3,60.02804513454332,
76,0,76,0,,,,,,,,,,,,,,,,,,,,,,,,,,1254.3403183999471,None,pressure,81,77,sing,red,1252.3382952000247,None,None,1252.3382952000247,None,,,,,,,,,,,,,,,,,,,,,,,,,,,,,,,,,,,57 Sing,001,2022_Sep_29_0915,ProdSingRedoBetween,2021.2.3,60.02804513454332,
77,0,77,0,,,,,,,,,,,,,,,,,,,,,,,,,,1256.8594490999822,None,damage,76,78,sing,red,1254.847061599954,None,None,1254.847061599954,None,,,,,,,,,,,,,,,,,,,,,,,,,,,,,,,,,,,57 Sing,001,2022_Sep_29_0915,ProdSingRedoBetween,2021.2.3,60.02804513454332,
78,0,78,0,,,,,,,,,,,,,,,,,,,,,,,,,,1259.362030099961,None,empty,80,79,sing,red,1257.360376299941,None,None,1257.360376299941,None,,,,,,,,,,,,,,,,,,,,,,,,,,,,,,,,,,,57 Sing,001,2022_Sep_29_0915,ProdSingRedoBetween,2021.2.3,60.02804513454332,
79,0,79,0,,,,,,,,,,,,,,,,,,,,,,,,,,1261.881021499983,None,mankind,9,80,sing,yellow,1259.8671863999916,None,None,1259.8671863999916,None,,,,,,,,,,,,,,,,,,,,,,,,,,,,,,,,,,,57 Sing,001,2022_Sep_29_0915,ProdSingRedoBetween,2021.2.3,60.02804513454332,
80,0,80,0,,,,,,,,,,,,,,,,,,,,,,,,,,1264.3837475000182,None,graduate,12,81,sing,yellow,1262.3816041999962,None,None,1262.3816041999962,None,,,,,,,,,,,,,,,,,,,,,,,,,,,,,,,,,,,57 Sing,001,2022_Sep_29_0915,ProdSingRedoBetween,2021.2.3,60.02804513454332,
81,0,81,0,,,,,,,,,,,,,,,,,,,,,,,,,,1266.9028453000356,None,south,0,82,sing,yellow,1264.8883891999722,None,None,1264.8883891999722,None,,,,,,,,,,,,,,,,,,,,,,,,,,,,,,,,,,,57 Sing,001,2022_Sep_29_0915,ProdSingRedoBetween,2021.2.3,60.02804513454332,
82,0,82,0,,,,,,,,,,,,,,,,,,,,,,,,,,1269.4052570000058,None,angle,84,83,sing,red,1267.4031157999998,None,None,1267.4031157999998,None,,,,,,,,,,,,,,,,,,,,,,,,,,,,,,,,,,,57 Sing,001,2022_Sep_29_0915,ProdSingRedoBetween,2021.2.3,60.02804513454332,
83,0,83,0,,,,,,,,,,,,,,,,,,,,,,,,,,1271.924494100036,None,production,86,84,sing,red,1269.9286977000302,None,None,1269.9286977000302,None,,,,,,,,,,,,,,,,,,,,,,,,,,,,,,,,,,,57 Sing,001,2022_Sep_29_0915,ProdSingRedoBetween,2021.2.3,60.02804513454332,
84,0,84,0,,,,,,,,,,,,,,,,,,,,,,,,,,1274.426979699987,None,minute,4,85,sing,yellow,1272.424703800003,None,None,1272.424703800003,None,,,,,,,,,,,,,,,,,,,,,,,,,,,,,,,,,,,57 Sing,001,2022_Sep_29_0915,ProdSingRedoBetween,2021.2.3,60.02804513454332,
85,0,85,0,,,,,,,,,,,,,,,,,,,,,,,,,,1276.9295111000538,None,candidate,88,86,sing,red,1274.927415000042,None,None,1274.927415000042,None,,,,,,,,,,,,,,,,,,,,,,,,,,,,,,,,,,,57 Sing,001,2022_Sep_29_0915,ProdSingRedoBetween,2021.2.3,60.02804513454332,
86,0,86,0,,,,,,,,,,,,,,,,,,,,,,,,,,1279.4319941999856,None,judge,21,87,sing,yellow,1277.4300501999678,None,None,1277.4300501999678,None,,,,,,,,,,,,,,,,,,,,,,,,,,,,,,,,,,,57 Sing,001,2022_Sep_29_0915,ProdSingRedoBetween,2021.2.3,60.02804513454332,
87,0,87,0,,,,,,,,,,,,,,,,,,,,,,,,,,1281.9344921000302,None,material,67,88,sing,red,1279.9344268999994,None,None,1279.9344268999994,None,,,,,,,,,,,,,,,,,,,,,,,,,,,,,,,,,,,57 Sing,001,2022_Sep_29_0915,ProdSingRedoBetween,2021.2.3,60.02804513454332,
88,0,88,0,,,,,,,,,,,,,,,,,,,,,,,,,,1284.4534609999973,None,afternoon,70,89,sing,red,1282.4408364000265,None,None,1282.4408364000265,None,,,,,,,,,,,,,,,,,,,,,,,,,,,,,,,,,,,57 Sing,001,2022_Sep_29_0915,ProdSingRedoBetween,2021.2.3,60.02804513454332,
89,0,89,0,,,,,,,,,,,,,,,,,,,,,,,,,,1286.9560508000432,None,scene,83,90,sing,red,1284.954200200038,None,None,1284.954200200038,None,,,,,,,,,,,,,,,,,,,,,,,,,,,,,,,,,,,57 Sing,001,2022_Sep_29_0915,ProdSingRedoBetween,2021.2.3,60.02804513454332,
,,,,,,,,,,,,,,,,,,,,,,,,,,,,,,,,,,,,,,,,,1287.4569539000513,None,k,36.75376380002126,1287.4569539000513,None,,,,,,,,,,,,,,,,,,,,,,,,,,,,,57 Sing,001,2022_Sep_29_0915,ProdSingRedoBetween,2021.2.3,60.02804513454332,
,,,,0,0,0,0,,,,,,,,,,,,,,,,,,,,,,1356.9648655999918,None,,,,,,,,,,,,,,,,,south,0,1,sing,old,yellow,1324.7384356999537,None,1324.7384356999537,None,1,23.872025799937546,1324.7384356999537,None,23.872025799937546,1348.6364153999602,None,1349.1515013000462,None,1349.1515013000462,None,n,7.786933100083843,1349.1515013000462,None,7.786933100083843,,,57 Sing,001,2022_Sep_29_0915,ProdSingRedoBetween,2021.2.3,60.02804513454332,
,,,,1,0,1,0,,,,,,,,,,,,,,,,,,,,,,1380.3157971999608,None,,,,,,,,,,,,,,,,,judge,21,2,sing,old,yellow,1357.4780013000127,None,1357.4780013000127,None,6,4.292636099969968,1357.4780013000127,None,4.292636099969968,1361.7981443000026,None,1362.3007342000492,None,1362.3007342000492,None,r,17.997674999991432,1362.3007342000492,None,17.997674999991432,,,57 Sing,001,2022_Sep_29_0915,ProdSingRedoBetween,2021.2.3,60.02804513454332,
,,,,2,0,2,0,,,,,,,,,,,,,,,,,,,,,,1387.5231851999415,None,,,,,,,,,,,,,,,,,defeat,143,3,sing,new,null,1380.8246791999554,None,1380.8246791999554,None,5,4.353931999998167,1380.8246791999554,None,4.353931999998167,1385.2045328000095,None,1385.705577500048,None,1385.705577500048,None,r,1.8007457999046892,1385.705577500048,None,1.8007457999046892,,,57 Sing,001,2022_Sep_29_0915,ProdSingRedoBetween,2021.2.3,60.02804513454332,
,,,,3,0,3,0,,,,,,,,,,,,,,,,,,,,,,1393.8293104999466,None,,,,,,,,,,,,,,,,,oxygen,65,4,sing,old,red,1388.0382669999963,None,1388.0382669999963,None,1,3.0841949000023305,1388.0382669999963,None,3.0841949000023305,1391.1538926999783,None,1391.6753460000036,None,1391.6753460000036,None,r,2.135032400023192,1391.6753460000036,None,2.135032400023192,,,57 Sing,001,2022_Sep_29_0915,ProdSingRedoBetween,2021.2.3,60.02804513454332,
,,,,4,0,4,0,,,,,,,,,,,,,,,,,,,,,,1399.8575790999457,None,,,,,,,,,,,,,,,,,hunger,138,5,sing,new,null,1394.3400885999436,None,1394.3400885999436,None,6,3.222217700094916,1394.3400885999436,None,3.222217700094916,1397.5919045000337,None,1398.100615800009,None,1398.100615800009,None,f,1.7337363000260666,1398.100615800009,None,1.7337363000260666,,,57 Sing,001,2022_Sep_29_0915,ProdSingRedoBetween,2021.2.3,60.02804513454332,
,,,,5,0,5,0,,,,,,,,,,,,,,,,,,,,,,1406.4085342000471,None,,,,,,,,,,,,,,,,,problem,53,6,sing,old,blue,1400.3877935999772,None,1400.3877935999772,None,6,3.7025247999699786,1400.3877935999772,None,3.7025247999699786,1404.1112619000487,None,1404.636679999996,None,1404.636679999996,None,r,1.7416507999878377,1404.636679999996,None,1.7416507999878377,,,57 Sing,001,2022_Sep_29_0915,ProdSingRedoBetween,2021.2.3,60.02804513454332,
,,,,6,0,6,0,,,,,,,,,,,,,,,,,,,,,,1412.1976768999593,None,,,,,,,,,,,,,,,,,service,79,7,sing,old,red,1406.9115776000544,None,1406.9115776000544,None,5,2.8986990000121295,1406.9115776000544,None,2.8986990000121295,1409.8313976000063,None,1410.3651848000009,None,1410.3651848000009,None,r,1.8131543999770656,1410.3651848000009,None,1.8131543999770656,,,57 Sing,001,2022_Sep_29_0915,ProdSingRedoBetween,2021.2.3,60.02804513454332,
,,,,7,0,7,0,,,,,,,,,,,,,,,,,,,,,,1418.2870972000528,None,,,,,,,,,,,,,,,,,dance,103,8,sing,new,null,1412.7059158999473,None,1412.7059158999473,None,1,3.256411000038497,1412.7059158999473,None,3.256411000038497,1415.9845367999515,None,1416.4884995999746,None,1416.4884995999746,None,r,1.7780307000502944,1416.4884995999746,None,1.7780307000502944,,,57 Sing,001,2022_Sep_29_0915,ProdSingRedoBetween,2021.2.3,60.02804513454332,
,,,,8,0,8,0,,,,,,,,,,,,,,,,,,,,,,1424.30983319995,None,,,,,,,,,,,,,,,,,goose,112,9,sing,new,null,1418.7989402000094,None,1418.7989402000094,None,1,3.4353819000534713,1418.7989402000094,None,3.4353819000534713,1422.2594780999934,None,1422.775007899967,None,1422.775007899967,None,r,1.5153172999853268,1422.775007899967,None,1.5153172999853268,,,57 Sing,001,2022_Sep_29_0915,ProdSingRedoBetween,2021.2.3,60.02804513454332,
,,,,9,0,9,0,,,,,,,,,,,,,,,,,,,,,,1429.8319810000248,None,,,,,,,,,,,,,,,,,production,86,10,sing,old,red,1424.8186185000231,None,1424.8186185000231,None,6,3.1517061999766156,1424.8186185000231,None,3.1517061999766156,1427.9997492999537,None,1428.519041899941,None,1428.519041899941,None,r,1.2832979999948293,1428.519041899941,None,1.2832979999948293,,,57 Sing,001,2022_Sep_29_0915,ProdSingRedoBetween,2021.2.3,60.02804513454332,
,,,,10,0,10,0,,,,,,,,,,,,,,,,,,,,,,1436.655316999997,None,,,,,,,,,,,,,,,,,collection,14,11,sing,old,yellow,1430.332452600007,None,1430.332452600007,None,5,2.6218206000048667,1430.332452600007,None,2.6218206000048667,1432.9859282999532,None,1433.4876650000224,None,1433.4876650000224,None,r,3.138719700044021,1433.4876650000224,None,3.138719700044021,,,57 Sing,001,2022_Sep_29_0915,ProdSingRedoBetween,2021.2.3,60.02804513454332,
,,,,11,0,11,0,,,,,,,,,,,,,,,,,,,,,,1441.310081099975,None,,,,,,,,,,,,,,,,,scene,83,12,sing,old,red,1437.163059500046,None,1437.163059500046,None,6,2.423269899911247,1437.163059500046,None,2.423269899911247,1439.608784400043,None,1440.1088830999797,None,1440.1088830999797,None,r,1.1816063999431208,1440.1088830999797,None,1.1816063999431208,,,57 Sing,001,2022_Sep_29_0915,ProdSingRedoBetween,2021.2.3,60.02804513454332,
,,,,12,0,12,0,,,,,,,,,,,,,,,,,,,,,,1448.483817899949,None,,,,,,,,,,,,,,,,,citizen,62,13,sing,old,red,1441.810448299977,None,1441.810448299977,None,3,3.503891999949701,1441.810448299977,None,3.503891999949701,1445.3359164999565,None,1445.8477562000044,None,1445.8477562000044,None,r,2.618488200008869,1445.8477562000044,None,2.618488200008869,,,57 Sing,001,2022_Sep_29_0915,ProdSingRedoBetween,2021.2.3,60.02804513454332,
,,,,13,0,13,0,,,,,,,,,,,,,,,,,,,,,,1452.654634400038,None,,,,,,,,,,,,,,,,,trash,157,14,sing,new,null,1448.9985359000275,None,1448.9985359000275,None,1,1.9958517999621108,1448.9985359000275,None,1.9958517999621108,1451.0242712999461,None,1451.5427955000196,None,1451.5427955000196,None,r,1.0914664999581873,1451.5427955000196,None,1.0914664999581873,,,57 Sing,001,2022_Sep_29_0915,ProdSingRedoBetween,2021.2.3,60.02804513454332,
,,,,14,0,14,0,,,,,,,,,,,,,,,,,,,,,,1456.174871299998,None,,,,,,,,,,,,,,,,,length,34,15,sing,old,blue,1453.1667339999694,None,1453.1667339999694,None,6,1.555470100021921,1453.1667339999694,None,1.555470100021921,1454.7400983000407,None,1455.2424125999678,None,1455.2424125999678,None,r,0.9118847999488935,1455.2424125999678,None,0.9118847999488935,,,57 Sing,001,2022_Sep_29_0915,ProdSingRedoBetween,2021.2.3,60.02804513454332,
,,,,15,0,15,0,,,,,,,,,,,,,,,,,,,,,,1459.211229700013,None,,,,,,,,,,,,,,,,,plane,2,16,sing,old,yellow,1456.678416299983,None,1456.678416299983,None,6,1.4678447999758646,1456.678416299983,None,1.4678447999758646,1458.176979299984,None,1458.6809070999734,None,1458.6809070999734,None,r,0.5053450000705197,1458.6809070999734,None,0.5053450000705197,,,57 Sing,001,2022_Sep_29_0915,ProdSingRedoBetween,2021.2.3,60.02804513454332,
,,,,16,0,16,0,,,,,,,,,,,,,,,,,,,,,,1464.6181346999947,None,,,,,,,,,,,,,,,,,public,90,17,sing,new,null,1459.7237795999972,None,1459.7237795999972,None,1,2.62239330005832,1459.7237795999972,None,2.62239330005832,1462.3708195999498,None,1462.8816292999545,None,1462.8816292999545,None,r,1.7046669999836013,1462.8816292999545,None,1.7046669999836013,,,57 Sing,001,2022_Sep_29_0915,ProdSingRedoBetween,2021.2.3,60.02804513454332,
,,,,17,0,17,0,,,,,,,,,,,,,,,,,,,,,,1467.6362128000474,None,,,,,,,,,,,,,,,,,management,72,18,sing,old,red,1465.136277499958,None,1465.136277499958,None,6,1.9379877999890596,1465.136277499958,None,1.9379877999890596,1467.1031404000241,None,1467.6030863999622,None,1467.6030863999622,None,r,0.015151700004935265,1467.6030863999622,None,0.015151700004935265,,,57 Sing,001,2022_Sep_29_0915,ProdSingRedoBetween,2021.2.3,60.02804513454332,
,,,,18,0,18,0,,,,,,,,,,,,,,,,,,,,,,1473.1427290999563,None,,,,,,,,,,,,,,,,,touch,119,19,sing,new,null,1468.1459406999638,None,1468.1459406999638,None,2,2.6321745000313967,1468.1459406999638,None,2.6321745000313967,1470.809406699962,None,1471.3233788999496,None,1471.3233788999496,None,r,1.7909598000114784,1471.3233788999496,None,1.7909598000114784,,,57 Sing,001,2022_Sep_29_0915,ProdSingRedoBetween,2021.2.3,60.02804513454332,
,,,,19,0,19,0,,,,,,,,,,,,,,,,,,,,,,1480.3322060999926,None,,,,,,,,,,,,,,,,,commercial,127,20,sing,new,null,1473.6537085999735,None,1473.6537085999735,None,4,4.764524600002915,1473.6537085999735,None,4.764524600002915,1478.4470611000434,None,1478.9476341999834,None,1478.9476341999834,None,r,1.3585190000012517,1478.9476341999834,None,1.3585190000012517,,,57 Sing,001,2022_Sep_29_0915,ProdSingRedoBetween,2021.2.3,60.02804513454332,
,,,,20,0,20,0,,,,,,,,,,,,,,,,,,,,,,1484.2361654000124,None,,,,,,,,,,,,,,,,,budget,106,21,sing,new,null,1480.8328399000457,None,1480.8328399000457,None,1,2.20940180006437,1480.8328399000457,None,2.20940180006437,1483.0693955000024,None,1483.5690460000187,None,1483.5690460000187,None,r,0.6413094999734312,1483.5690460000187,None,0.6413094999734312,,,57 Sing,001,2022_Sep_29_0915,ProdSingRedoBetween,2021.2.3,60.02804513454332,
,,,,21,0,21,0,,,,,,,,,,,,,,,,,,,,,,1489.4426411000313,None,,,,,,,,,,,,,,,,,state,91,22,sing,new,null,1484.739469400025,None,1484.739469400025,None,6,2.8947623000713065,1484.739469400025,None,2.8947623000713065,1487.665669000009,None,1488.1795662000077,None,1488.1795662000077,None,r,1.238678599940613,1488.1795662000077,None,1.238678599940613,,,57 Sing,001,2022_Sep_29_0915,ProdSingRedoBetween,2021.2.3,60.02804513454332,
,,,,22,0,22,0,,,,,,,,,,,,,,,,,,,,,,1492.4609949999722,None,,,,,,,,,,,,,,,,,right,105,23,sing,new,null,1489.9447659000289,None,1489.9447659000289,None,1,1.553450199891813,1489.9447659000289,None,1.553450199891813,1491.5274943000404,None,1492.031562200049,None,1492.031562200049,None,r,0.4026116000022739,1492.031562200049,None,0.4026116000022739,,,57 Sing,001,2022_Sep_29_0915,ProdSingRedoBetween,2021.2.3,60.02804513454332,
,,,,23,0,23,0,,,,,,,,,,,,,,,,,,,,,,1495.231396200019,None,,,,,,,,,,,,,,,,,afternoon,70,24,sing,old,red,1492.9659367999993,None,1492.9659367999993,None,6,1.41220619995147,1492.9659367999993,None,1.41220619995147,1494.3977696000366,None,1494.9016391000478,None,1494.9016391000478,None,r,0.30857970006763935,1494.9016391000478,None,0.30857970006763935,,,57 Sing,001,2022_Sep_29_0915,ProdSingRedoBetween,2021.2.3,60.02804513454332,
,,,,24,0,24,0,,,,,,,,,,,,,,,,,,,,,,1499.5043270000024,None,,,,,,,,,,,,,,,,,group,97,25,sing,new,null,1495.742069000029,None,1495.742069000029,None,6,3.044225500081666,1495.742069000029,None,3.044225500081666,1498.8185982999858,None,1499.3231487999437,None,1499.3231487999437,None,r,0.1591861000051722,1499.3231487999437,None,0.1591861000051722,,,57 Sing,001,2022_Sep_29_0915,ProdSingRedoBetween,2021.2.3,60.02804513454332,
,,,,25,0,25,0,,,,,,,,,,,,,,,,,,,,,,1502.5043218999635,None,,,,,,,,,,,,,,,,,provision,122,26,sing,new,null,1500.0237969999434,None,1500.0237969999434,None,1,1.7782667999854311,1500.0237969999434,None,1.7782667999854311,1501.8214632000308,None,1502.320848400006,None,1502.320848400006,None,r,0.15320689999498427,1502.320848400006,None,0.15320689999498427,,,57 Sing,001,2022_Sep_29_0915,ProdSingRedoBetween,2021.2.3,60.02804513454332,
,,,,26,0,26,0,,,,,,,,,,,,,,,,,,,,,,1505.42389179999,None,,,,,,,,,,,,,,,,,leader,11,27,sing,old,yellow,1503.0049697000068,None,1503.0049697000068,None,6,1.6850821999832988,1503.0049697000068,None,1.6850821999832988,1504.7065249000443,None,1505.213192999945,None,1505.213192999945,None,r,0.18907469999976456,1505.213192999945,None,0.18907469999976456,,,57 Sing,001,2022_Sep_29_0915,ProdSingRedoBetween,2021.2.3,60.02804513454332,
,,,,27,0,27,0,,,,,,,,,,,,,,,,,,,,,,1510.5635745000327,None,,,,,,,,,,,,,,,,,still,156,28,sing,new,null,1505.9318379999604,None,1505.9318379999604,None,1,2.6862289999844506,1505.9318379999604,None,2.6862289999844506,1508.65093350003,None,1509.161223000032,None,1509.161223000032,None,r,1.3772734000813216,1509.161223000032,None,1.3772734000813216,,,57 Sing,001,2022_Sep_29_0915,ProdSingRedoBetween,2021.2.3,60.02804513454332,
,,,,28,0,28,0,,,,,,,,,,,,,,,,,,,,,,1515.2170564000262,None,,,,,,,,,,,,,,,,,piece,1,29,sing,old,yellow,1511.062792200013,None,1511.062792200013,None,2,3.0913953999988735,1511.062792200013,None,3.0913953999988735,1514.1830289999489,None,1514.6843761999626,None,1514.6843761999626,None,r,0.509799399995245,1514.6843761999626,None,0.509799399995245,,,57 Sing,001,2022_Sep_29_0915,ProdSingRedoBetween,2021.2.3,60.02804513454332,
,,,,29,0,29,0,,,,,,,,,,,,,,,,,,,,,,1519.5380108000245,None,,,,,,,,,,,,,,,,,drink,60,30,sing,old,red,1515.72289980005,None,1515.72289980005,None,5,2.9353510999353603,1515.72289980005,None,2.9353510999353603,1518.6884495000122,None,1519.1879390999675,None,1519.1879390999675,None,r,0.3262326999101788,1519.1879390999675,None,0.3262326999101788,,,57 Sing,001,2022_Sep_29_0915,ProdSingRedoBetween,2021.2.3,60.02804513454332,
,,,,30,0,30,0,,,,,,,,,,,,,,,,,,,,,,1523.8255427000113,None,,,,,,,,,,,,,,,,,account,137,31,sing,new,null,1520.043139699963,None,1520.043139699963,None,4,3.0469715000363067,1520.043139699963,None,3.0469715000363067,1523.1100852000527,None,1523.6252808000427,None,1523.6252808000427,None,r,0.18471579998731613,1523.6252808000427,None,0.18471579998731613,,,57 Sing,001,2022_Sep_29_0915,ProdSingRedoBetween,2021.2.3,60.02804513454332,
,,,,31,0,31,0,,,,,,,,,,,,,,,,,,,,,,1526.7785878999857,None,,,,,,,,,,,,,,,,,murder,18,32,sing,old,yellow,1524.3261914999457,None,1524.3261914999457,None,6,1.3559697000309825,1524.3261914999457,None,1.3559697000309825,1525.712314400007,None,1526.2115415999433,None,1526.2115415999433,None,r,0.5425839000381529,1526.2115415999433,None,0.5425839000381529,,,57 Sing,001,2022_Sep_29_0915,ProdSingRedoBetween,2021.2.3,60.02804513454332,
,,,,32,0,32,0,,,,,,,,,,,,,,,,,,,,,,1531.7168231999967,None,,,,,,,,,,,,,,,,,suspect,159,33,sing,new,null,1527.2791455000406,None,1527.2791455000406,None,1,2.235070800059475,1527.2791455000406,None,2.235070800059475,1529.5436971000163,None,1530.048674199963,None,1530.048674199963,None,r,1.6416468999814242,1530.048674199963,None,1.6416468999814242,,,57 Sing,001,2022_Sep_29_0915,ProdSingRedoBetween,2021.2.3,60.02804513454332,
,,,,33,0,33,0,,,,,,,,,,,,,,,,,,,,,,1537.2734054999892,None,,,,,,,,,,,,,,,,,impact,93,34,sing,new,null,1532.21743650001,None,1532.21743650001,None,4,2.3846570999594405,1532.21743650001,None,2.3846570999594405,1534.6232026000507,None,1535.138180800015,None,1535.138180800015,None,r,2.1038059999700636,1535.138180800015,None,2.1038059999700636,,,57 Sing,001,2022_Sep_29_0915,ProdSingRedoBetween,2021.2.3,60.02804513454332,
,,,,34,0,34,0,,,,,,,,,,,,,,,,,,,,,,1541.4931775999721,None,,,,,,,,,,,,,,,,,broad,166,35,sing,new,null,1537.7729223000351,None,1537.7729223000351,None,1,1.789287600084208,1537.7729223000351,None,1.789287600084208,1539.5936088999733,None,1540.111243500025,None,1540.111243500025,None,f,1.3549934999318793,1540.111243500025,None,1.3549934999318793,,,57 Sing,001,2022_Sep_29_0915,ProdSingRedoBetween,2021.2.3,60.02804513454332,
,,,,35,0,35,0,,,,,,,,,,,,,,,,,,,,,,1547.382442299975,None,,,,,,,,,,,,,,,,,produce,71,36,sing,old,red,1541.9944017999806,None,1541.9944017999806,None,5,2.2957087999675423,1541.9944017999806,None,2.2957087999675423,1544.3128142999485,None,1544.8131055999547,None,1544.8131055999547,None,r,2.5490049000363797,1544.8131055999547,None,2.5490049000363797,,,57 Sing,001,2022_Sep_29_0915,ProdSingRedoBetween,2021.2.3,60.02804513454332,
,,,,36,0,36,0,,,,,,,,,,,,,,,,,,,,,,1551.8729275000514,None,,,,,,,,,,,,,,,,,concern,43,37,sing,old,blue,1547.888984899968,None,1547.888984899968,None,4,2.8811160000041127,1547.888984899968,None,2.8811160000041127,1550.7888934999937,None,1551.3036294999765,None,1551.3036294999765,None,r,0.5385689999675378,1551.3036294999765,None,0.5385689999675378,,,57 Sing,001,2022_Sep_29_0915,ProdSingRedoBetween,2021.2.3,60.02804513454332,
,,,,37,0,37,0,,,,,,,,,,,,,,,,,,,,,,1554.3728144000052,None,,,,,,,,,,,,,,,,,mayor,38,38,sing,old,blue,1552.3927638999885,None,1552.3927638999885,None,6,1.2893345000920817,1552.3927638999885,None,1.2893345000920817,1553.7079726000084,None,1554.2229917000514,None,1554.2229917000514,None,r,0.13108439999632537,1554.2229917000514,None,0.13108439999632537,,,57 Sing,001,2022_Sep_29_0915,ProdSingRedoBetween,2021.2.3,60.02804513454332,
,,,,38,0,38,0,,,,,,,,,,,,,,,,,,,,,,1557.6259539000457,None,,,,,,,,,,,,,,,,,junior,162,39,sing,new,null,1554.8775496999733,None,1554.8775496999733,None,2,1.8285691000055522,1554.8775496999733,None,1.8285691000055522,1556.726345299976,None,1557.2321002000244,None,1557.2321002000244,None,r,0.36188459990080446,1557.2321002000244,None,0.36188459990080446,,,57 Sing,001,2022_Sep_29_0915,ProdSingRedoBetween,2021.2.3,60.02804513454332,
,,,,39,0,39,0,,,,,,,,,,,,,,,,,,,,,,1560.7791908000363,None,,,,,,,,,,,,,,,,,thing,56,40,sing,old,blue,1558.126647899975,None,1558.126647899975,None,1,1.9954346000449732,1558.126647899975,None,1.9954346000449732,1560.146248199977,None,1560.645794400014,None,1560.645794400014,None,r,0.10830389999318868,1560.645794400014,None,0.10830389999318868,,,57 Sing,001,2022_Sep_29_0915,ProdSingRedoBetween,2021.2.3,60.02804513454332,
,,,,40,0,40,0,,,,,,,,,,,,,,,,,,,,,,1564.2326370000374,None,,,,,,,,,,,,,,,,,space,52,41,sing,old,blue,1561.279564699973,None,1561.279564699973,None,6,1.3148711000103503,1561.279564699973,None,1.3148711000103503,1562.6235202000244,None,1563.1316267000511,None,1563.1316267000511,None,r,1.0783885999117047,1563.1316267000511,None,1.0783885999117047,,,57 Sing,001,2022_Sep_29_0915,ProdSingRedoBetween,2021.2.3,60.02804513454332,
,,,,41,0,41,0,,,,,,,,,,,,,,,,,,,,,,1567.5857099000132,None,,,,,,,,,,,,,,,,,figure,46,42,sing,old,blue,1564.7333364000078,None,1564.7333364000078,None,5,2.2290042999666184,1564.7333364000078,None,2.2290042999666184,1566.9994254000485,None,1567.5023313999409,None,1567.5023313999409,None,r,0.051630300004035234,1567.5023313999409,None,0.051630300004035234,,,57 Sing,001,2022_Sep_29_0915,ProdSingRedoBetween,2021.2.3,60.02804513454332,
,,,,42,0,42,0,,,,,,,,,,,,,,,,,,,,,,1569.9882777000312,None,,,,,,,,,,,,,,,,,society,17,43,sing,old,yellow,1568.094759700005,None,1568.094759700005,None,6,1.25925870006904,1568.094759700005,None,1.25925870006904,1569.3724805000238,None,1569.8716482999735,None,1569.8716482999735,None,r,0.09033030003774911,1569.8716482999735,None,0.09033030003774911,,,57 Sing,001,2022_Sep_29_0915,ProdSingRedoBetween,2021.2.3,60.02804513454332,
,,,,43,0,43,0,,,,,,,,,,,,,,,,,,,,,,1573.3634637000505,None,,,,,,,,,,,,,,,,,order,101,44,sing,new,null,1570.4969170000404,None,1570.4969170000404,None,6,1.2491143000079319,1570.4969170000404,None,1.2491143000079319,1571.7734391000122,None,1572.2762155999662,None,1572.2762155999662,None,r,1.061944599961862,1572.2762155999662,None,1.061944599961862,,,57 Sing,001,2022_Sep_29_0915,ProdSingRedoBetween,2021.2.3,60.02804513454332,
,,,,44,0,44,0,,,,,,,,,,,,,,,,,,,,,,1576.1109189999988,None,,,,,,,,,,,,,,,,,character,48,45,sing,old,blue,1573.8878386999713,None,1573.8878386999713,None,6,1.2660938000772148,1573.8878386999713,None,1.2660938000772148,1575.177304300014,None,1575.6774378999835,None,1575.6774378999835,None,r,0.41265940002631396,1575.6774378999835,None,0.41265940002631396,,,57 Sing,001,2022_Sep_29_0915,ProdSingRedoBetween,2021.2.3,60.02804513454332,
,,,,45,0,45,0,,,,,,,,,,,,,,,,,,,,,,1580.8159401000012,None,,,,,,,,,,,,,,,,,trail,142,46,sing,new,null,1576.6133803999983,None,1576.6133803999983,None,1,1.3248024000786245,1576.6133803999983,None,1.3248024000786245,1577.9638491000514,None,1578.4639652000042,None,1578.4639652000042,None,r,2.330007000011392,1578.4639652000042,None,2.330007000011392,,,57 Sing,001,2022_Sep_29_0915,ProdSingRedoBetween,2021.2.3,60.02804513454332,
,,,,46,0,46,0,,,,,,,,,,,,,,,,,,,,,,1584.753055899986,None,,,,,,,,,,,,,,,,,death,10,47,sing,old,yellow,1581.3287672000006,None,1581.3287672000006,None,6,1.3371743999887258,1581.3287672000006,None,1.3371743999887258,1582.6863498999737,None,1583.2036697999574,None,1583.2036697999574,None,r,1.518381799920462,1583.2036697999574,None,1.518381799920462,,,57 Sing,001,2022_Sep_29_0915,ProdSingRedoBetween,2021.2.3,60.02804513454332,
,,,,47,0,47,0,,,,,,,,,,,,,,,,,,,,,,1587.8077173000202,None,,,,,,,,,,,,,,,,,machinery,124,48,sing,new,null,1585.2535826000385,None,1585.2535826000385,None,1,1.444438699982129,1585.2535826000385,None,1.444438699982129,1586.7276775999926,None,1587.2391715999693,None,1587.2391715999693,None,r,0.5388082000426948,1587.2391715999693,None,0.5388082000426948,,,57 Sing,001,2022_Sep_29_0915,ProdSingRedoBetween,2021.2.3,60.02804513454332,
,,,,48,0,48,0,,,,,,,,,,,,,,,,,,,,,,1592.629639999941,None,,,,,,,,,,,,,,,,,shear,116,49,sing,new,null,1588.3299356000498,None,1588.3299356000498,None,1,2.536230399971828,1588.3299356000498,None,2.536230399971828,1590.8929691000376,None,1591.39286849997,None,1591.39286849997,None,f,1.209320000023581,1591.39286849997,None,1.209320000023581,,,57 Sing,001,2022_Sep_29_0915,ProdSingRedoBetween,2021.2.3,60.02804513454332,
,,,,49,0,49,0,,,,,,,,,,,,,,,,,,,,,,1596.6816160000162,None,,,,,,,,,,,,,,,,,guard,134,50,sing,new,null,1593.151214899961,None,1593.151214899961,None,2,2.138815200072713,1593.151214899961,None,2.138815200072713,1595.3137770999456,None,1595.814043899998,None,1595.814043899998,None,r,0.8439539999235421,1595.814043899998,None,0.8439539999235421,,,57 Sing,001,2022_Sep_29_0915,ProdSingRedoBetween,2021.2.3,60.02804513454332,
,,,,50,0,50,0,,,,,,,,,,,,,,,,,,,,,,1601.019235500018,None,,,,,,,,,,,,,,,,,nation,28,51,sing,old,yellow,1597.186807799968,None,1597.186807799968,None,6,2.287166199996136,1597.186807799968,None,2.287166199996136,1599.5020826000255,None,1600.0069099999964,None,1600.0069099999964,None,r,0.9950826999265701,1600.0069099999964,None,0.9950826999265701,,,57 Sing,001,2022_Sep_29_0915,ProdSingRedoBetween,2021.2.3,60.02804513454332,
,,,,51,0,51,0,,,,,,,,,,,,,,,,,,,,,,1604.8729617999634,None,,,,,,,,,,,,,,,,,growth,130,52,sing,new,null,1601.5268702999456,None,1601.5268702999456,None,2,1.4033849999541417,1601.5268702999456,None,1.4033849999541417,1602.9706545999506,None,1603.4718542000046,None,1603.4718542000046,None,r,1.3701279999222606,1603.4718542000046,None,1.3701279999222606,,,57 Sing,001,2022_Sep_29_0915,ProdSingRedoBetween,2021.2.3,60.02804513454332,
,,,,52,0,52,0,,,,,,,,,,,,,,,,,,,,,,1608.2429614999564,None,,,,,,,,,,,,,,,,,literature,33,53,sing,old,blue,1605.374741800013,None,1605.374741800013,None,6,1.8512922000372782,1605.374741800013,None,1.8512922000372782,1607.2433431999525,None,1607.7425950999605,None,1607.7425950999605,None,r,0.47530900000128895,1607.7425950999605,None,0.47530900000128895,,,57 Sing,001,2022_Sep_29_0915,ProdSingRedoBetween,2021.2.3,60.02804513454332,
,,,,53,0,53,0,,,,,,,,,,,,,,,,,,,,,,1613.3980236999923,None,,,,,,,,,,,,,,,,,narrow,104,54,sing,new,null,1608.7435542000458,None,1608.7435542000458,None,1,3.0184211999876425,1608.7435542000458,None,3.0184211999876425,1611.783372899983,None,1612.2971115000546,None,1612.2971115000546,None,r,1.0728479999816045,1612.2971115000546,None,1.0728479999816045,,,57 Sing,001,2022_Sep_29_0915,ProdSingRedoBetween,2021.2.3,60.02804513454332,
,,,,54,0,54,0,,,,,,,,,,,,,,,,,,,,,,1616.56978479994,None,,,,,,,,,,,,,,,,,store,89,55,sing,old,red,1613.8988591999514,None,1613.8988591999514,None,1,1.783056000014767,1613.8988591999514,None,1.783056000014767,1615.7014467000263,None,1616.2099936000304,None,1616.2099936000304,None,r,0.33583759993780404,1616.2099936000304,None,0.33583759993780404,,,57 Sing,001,2022_Sep_29_0915,ProdSingRedoBetween,2021.2.3,60.02804513454332,
,,,,55,0,55,0,,,,,,,,,,,,,,,,,,,,,,1620.0461465000408,None,,,,,,,,,,,,,,,,,attack,161,56,sing,new,null,1617.0877526999684,None,1617.0877526999684,None,3,2.3302752999588847,1617.0877526999684,None,2.3302752999588847,1619.447449499974,None,1619.9599334000377,None,1619.9599334000377,None,r,0.05828170001041144,1619.9599334000377,None,0.05828170001041144,,,57 Sing,001,2022_Sep_29_0915,ProdSingRedoBetween,2021.2.3,60.02804513454332,
,,,,56,0,56,0,,,,,,,,,,,,,,,,,,,,,,1624.5427059000358,None,,,,,,,,,,,,,,,,,column,152,57,sing,new,null,1620.5609792999458,None,1620.5609792999458,None,4,3.040930600021966,1620.5609792999458,None,3.040930600021966,1623.6252022000263,None,1624.125402900041,None,1624.125402900041,None,r,0.3966104999417439,1624.125402900041,None,0.3966104999417439,,,57 Sing,001,2022_Sep_29_0915,ProdSingRedoBetween,2021.2.3,60.02804513454332,
,,,,57,0,57,0,,,,,,,,,,,,,,,,,,,,,,1628.963639399968,None,,,,,,,,,,,,,,,,,prime,168,58,sing,new,null,1625.043294699979,None,1625.043294699979,None,1,3.166698700049892,1625.043294699979,None,3.166698700049892,1628.2315233999398,None,1628.746867800015,None,1628.746867800015,None,f,0.1910890000872314,1628.746867800015,None,0.1910890000872314,,,57 Sing,001,2022_Sep_29_0915,ProdSingRedoBetween,2021.2.3,60.02804513454332,
,,,,58,0,58,0,,,,,,,,,,,,,,,,,,,,,,1633.2863577000098,None,,,,,,,,,,,,,,,,,entrance,57,59,sing,old,blue,1629.4687770999735,None,1629.4687770999735,None,5,1.9891754999989644,1629.4687770999735,None,1.9891754999989644,1631.483787199948,None,1631.9918659999967,None,1631.9918659999967,None,r,1.2742824999149889,1631.9918659999967,None,1.2742824999149889,,,57 Sing,001,2022_Sep_29_0915,ProdSingRedoBetween,2021.2.3,60.02804513454332,
,,,,59,0,59,0,,,,,,,,,,,,,,,,,,,,,,1642.0935431000544,None,,,,,,,,,,,,,,,,,phrase,22,60,sing,old,yellow,1633.7920648000436,None,1633.7920648000436,None,3,5.194051899947226,1633.7920648000436,None,5.194051899947226,1639.0084908000426,None,1639.515482399962,None,1639.515482399962,None,f,2.558384499978274,1639.515482399962,None,2.558384499978274,,,57 Sing,001,2022_Sep_29_0915,ProdSingRedoBetween,2021.2.3,60.02804513454332,
,,,,60,0,60,0,,,,,,,,,,,,,,,,,,,,,,1646.4312537000515,None,,,,,,,,,,,,,,,,,weight,74,61,sing,old,red,1642.5991788000101,None,1642.5991788000101,None,2,1.7227072999812663,1642.5991788000101,None,1.7227072999812663,1644.3471310000168,None,1644.848450899939,None,1644.848450899939,None,r,1.5535546999890357,1644.848450899939,None,1.5535546999890357,,,57 Sing,001,2022_Sep_29_0915,ProdSingRedoBetween,2021.2.3,60.02804513454332,
,,,,61,0,61,0,,,,,,,,,,,,,,,,,,,,,,1651.8366832999745,None,,,,,,,,,,,,,,,,,marriage,128,62,sing,new,null,1646.9332817000104,None,1646.9332817000104,None,1,4.204709899961017,1646.9332817000104,None,4.204709899961017,1651.1691690000007,None,1651.6740425999742,None,1651.6740425999742,None,r,0.14387819997500628,1651.6740425999742,None,0.14387819997500628,,,57 Sing,001,2022_Sep_29_0915,ProdSingRedoBetween,2021.2.3,60.02804513454332,
,,,,62,0,62,0,,,,,,,,,,,,,,,,,,,,,,1654.8900824999437,None,,,,,,,,,,,,,,,,,patient,94,63,sing,new,null,1652.3407584000379,None,1652.3407584000379,None,1,1.4291926000732929,1652.3407584000379,None,1.4291926000732929,1653.7943896000506,None,1654.3058872000547,None,1654.3058872000547,None,r,0.5681077999761328,1654.3058872000547,None,0.5681077999761328,,,57 Sing,001,2022_Sep_29_0915,ProdSingRedoBetween,2021.2.3,60.02804513454332,
,,,,63,0,63,0,,,,,,,,,,,,,,,,,,,,,,1659.0772080000024,None,,,,,,,,,,,,,,,,,institute,82,64,sing,old,red,1655.4035557999741,None,1655.4035557999741,None,4,2.3343265999574214,1655.4035557999741,None,2.3343265999574214,1657.7592436999548,None,1658.2598504000343,None,1658.2598504000343,None,r,0.7981017000274733,1658.2598504000343,None,0.7981017000274733,,,57 Sing,001,2022_Sep_29_0915,ProdSingRedoBetween,2021.2.3,60.02804513454332,
,,,,64,0,64,0,,,,,,,,,,,,,,,,,,,,,,1663.131169399945,None,,,,,,,,,,,,,,,,,partner,98,65,sing,new,null,1659.5921594999963,None,1659.5921594999963,None,6,2.1057035999838263,1659.5921594999963,None,2.1057035999838263,1661.7147761000087,None,1662.2327269000234,None,1662.2327269000234,None,r,0.8811579999746755,1662.2327269000234,None,0.8811579999746755,,,57 Sing,001,2022_Sep_29_0915,ProdSingRedoBetween,2021.2.3,60.02804513454332,
,,,,65,0,65,0,,,,,,,,,,,,,,,,,,,,,,1667.285487200017,None,,,,,,,,,,,,,,,,,straight,177,66,sing,new,null,1663.63641060004,None,1663.63641060004,None,1,2.5415432000299916,1663.63641060004,None,2.5415432000299916,1666.207424400025,None,1666.7182798000285,None,1666.7182798000285,None,r,0.5477256999583915,1666.7182798000285,None,0.5477256999583915,,,57 Sing,001,2022_Sep_29_0915,ProdSingRedoBetween,2021.2.3,60.02804513454332,
,,,,66,0,66,0,,,,,,,,,,,,,,,,,,,,,,1669.7545630000532,None,,,,,,,,,,,,,,,,,message,58,67,sing,old,blue,1667.7906944999704,None,1667.7906944999704,None,6,1.3951686000218615,1667.7906944999704,None,1.3951686000218615,1669.2061520999996,None,1669.7212646999396,None,1669.7212646999396,None,r,0.01666810002643615,1669.7212646999396,None,0.01666810002643615,,,57 Sing,001,2022_Sep_29_0915,ProdSingRedoBetween,2021.2.3,60.02804513454332,
,,,,67,0,67,0,,,,,,,,,,,,,,,,,,,,,,1673.5089583999943,None,,,,,,,,,,,,,,,,,route,121,68,sing,new,null,1670.2549255000195,None,1670.2549255000195,None,2,1.7470001000910997,1670.2549255000195,None,1.7470001000910997,1672.0253913999768,None,1672.5465291000437,None,1672.5465291000437,None,r,0.943401199998334,1672.5465291000437,None,0.943401199998334,,,57 Sing,001,2022_Sep_29_0915,ProdSingRedoBetween,2021.2.3,60.02804513454332,
,,,,68,0,68,0,,,,,,,,,,,,,,,,,,,,,,1676.761314000003,None,,,,,,,,,,,,,,,,,nature,15,69,sing,old,yellow,1674.0139108999865,None,1674.0139108999865,None,6,1.4119398000184447,1674.0139108999865,None,1.4119398000184447,1675.443274499965,None,1675.9500806999858,None,1675.9500806999858,None,r,0.7957818999420851,1675.9500806999858,None,0.7957818999420851,,,57 Sing,001,2022_Sep_29_0915,ProdSingRedoBetween,2021.2.3,60.02804513454332,
,,,,69,0,69,0,,,,,,,,,,,,,,,,,,,,,,1680.0842260000063,None,,,,,,,,,,,,,,,,,beauty,113,70,sing,new,null,1677.2661751999985,None,1677.2661751999985,None,1,2.2315682999324054,1677.2661751999985,None,2.2315682999324054,1679.5140540000284,None,1680.0148425999796,None,1680.0148425999796,None,r,0.043041500030085444,1680.0148425999796,None,0.043041500030085444,,,57 Sing,001,2022_Sep_29_0915,ProdSingRedoBetween,2021.2.3,60.02804513454332,
,,,,70,0,70,0,,,,,,,,,,,,,,,,,,,,,,1684.9534474000102,None,,,,,,,,,,,,,,,,,court,144,71,sing,new,null,1680.6034241999732,None,1680.6034241999732,None,2,3.42247650003992,1680.6034241999732,None,3.42247650003992,1684.0562283999752,None,1684.5694308000384,None,1684.5694308000384,None,f,0.3683240000391379,1684.5694308000384,None,0.3683240000391379,,,57 Sing,001,2022_Sep_29_0915,ProdSingRedoBetween,2021.2.3,60.02804513454332,
,,,,71,0,71,0,,,,,,,,,,,,,,,,,,,,,,1690.9923782999394,None,,,,,,,,,,,,,,,,,majority,165,72,sing,new,null,1685.4616534999805,None,1685.4616534999805,None,5,3.4682001000037417,1685.4616534999805,None,3.4682001000037417,1688.958596099983,None,1689.4675427000038,None,1689.4675427000038,None,r,1.502348699956201,1689.4675427000038,None,1.502348699956201,,,57 Sing,001,2022_Sep_29_0915,ProdSingRedoBetween,2021.2.3,60.02804513454332,
,,,,72,0,72,0,,,,,,,,,,,,,,,,,,,,,,1694.8626943000127,None,,,,,,,,,,,,,,,,,crime,150,73,sing,new,null,1691.4944381000241,None,1691.4944381000241,None,6,2.8194085999857634,1691.4944381000241,None,2.8194085999857634,1694.3300303999567,None,1694.8294843999902,None,1694.8294843999902,None,r,0.01242640009149909,1694.8294843999902,None,0.01242640009149909,,,57 Sing,001,2022_Sep_29_0915,ProdSingRedoBetween,2021.2.3,60.02804513454332,
,,,,73,0,73,0,,,,,,,,,,,,,,,,,,,,,,1699.5508208000101,None,,,,,,,,,,,,,,,,,interview,109,74,sing,new,null,1695.3765621000202,None,1695.3765621000202,None,2,3.01734449993819,1695.3765621000202,None,3.01734449993819,1698.4225420999574,None,1698.9337811999721,None,1698.9337811999721,None,r,0.5960964999394491,1698.9337811999721,None,0.5960964999394491,,,57 Sing,001,2022_Sep_29_0915,ProdSingRedoBetween,2021.2.3,60.02804513454332,
,,,,74,0,74,0,,,,,,,,,,,,,,,,,,,,,,1703.488095800043,None,,,,,,,,,,,,,,,,,science,6,75,sing,old,yellow,1700.059865499963,None,1700.059865499963,None,6,1.7740288999630138,1700.059865499963,None,1.7740288999630138,1701.8545806000475,None,1702.3572667000117,None,1702.3572667000117,None,r,1.1086693000979722,1702.3572667000117,None,1.1086693000979722,,,57 Sing,001,2022_Sep_29_0915,ProdSingRedoBetween,2021.2.3,60.02804513454332,
,,,,75,0,75,0,,,,,,,,,,,,,,,,,,,,,,1708.2095218000468,None,,,,,,,,,,,,,,,,,benefit,68,76,sing,old,red,1703.99962649995,None,1703.99962649995,None,2,2.682182200020179,1703.99962649995,None,2.682182200020179,1706.712432899978,None,1707.2314529999858,None,1707.2314529999858,None,r,0.962380800046958,1707.2314529999858,None,0.962380800046958,,,57 Sing,001,2022_Sep_29_0915,ProdSingRedoBetween,2021.2.3,60.02804513454332,
,,,,76,0,76,0,,,,,,,,,,,,,,,,,,,,,,1711.1978143999586,None,,,,,,,,,,,,,,,,,husband,115,77,sing,new,null,1708.7104861999396,None,1708.7104861999396,None,1,1.1875577000901103,1708.7104861999396,None,1.1875577000901103,1709.9348911000416,None,1710.4473038000287,None,1710.4473038000287,None,r,0.722483400022611,1710.4473038000287,None,0.722483400022611,,,57 Sing,001,2022_Sep_29_0915,ProdSingRedoBetween,2021.2.3,60.02804513454332,
,,,,77,0,77,0,,,,,,,,,,,,,,,,,,,,,,1717.5019484000513,None,,,,,,,,,,,,,,,,,graduate,12,78,sing,old,yellow,1711.7161031999858,None,1711.7161031999858,None,3,3.533637800021097,1711.7161031999858,None,3.533637800021097,1715.2664235000266,None,1715.7732265000232,None,1715.7732265000232,None,r,1.700509799993597,1715.7732265000232,None,1.700509799993597,,,57 Sing,001,2022_Sep_29_0915,ProdSingRedoBetween,2021.2.3,60.02804513454332,
,,,,78,0,78,0,,,,,,,,,,,,,,,,,,,,,,1720.905317800003,None,,,,,,,,,,,,,,,,,equipment,100,79,sing,new,null,1718.0129753999645,None,1718.0129753999645,None,6,2.2850620000390336,1718.0129753999645,None,2.2850620000390336,1720.3348248000257,None,1720.8389549000422,None,1720.8389549000422,None,r,0.042894399957731366,1720.8389549000422,None,0.042894399957731366,,,57 Sing,001,2022_Sep_29_0915,ProdSingRedoBetween,2021.2.3,60.02804513454332,
,,,,79,0,79,0,,,,,,,,,,,,,,,,,,,,,,1726.0105824000202,None,,,,,,,,,,,,,,,,,committee,139,80,sing,new,null,1721.406399599975,None,1721.406399599975,None,2,2.731482299976051,1721.406399599975,None,2.731482299976051,1724.1625301999738,None,1724.6792962000472,None,1724.6792962000472,None,r,1.3064062000485137,1724.6792962000472,None,1.3064062000485137,,,57 Sing,001,2022_Sep_29_0915,ProdSingRedoBetween,2021.2.3,60.02804513454332,
,,,,80,0,80,0,,,,,,,,,,,,,,,,,,,,,,1730.548504199949,None,,,,,,,,,,,,,,,,,sound,30,81,sing,old,blue,1726.5194003999932,None,1726.5194003999932,None,1,2.914394599967636,1726.5194003999932,None,2.914394599967636,1729.465490099974,None,1729.9721167000243,None,1729.9721167000243,None,r,0.5495829000137746,1729.9721167000243,None,0.5495829000137746,,,57 Sing,001,2022_Sep_29_0915,ProdSingRedoBetween,2021.2.3,60.02804513454332,
,,,,81,0,81,0,,,,,,,,,,,,,,,,,,,,,,1737.1050250999397,None,,,,,,,,,,,,,,,,,reading,87,82,sing,old,red,1731.0522729000077,None,1731.0522729000077,None,1,5.005499899969436,1731.0522729000077,None,5.005499899969436,1736.087561000022,None,1736.5879203999648,None,1736.5879203999648,None,r,0.5018835999071598,1736.5879203999648,None,0.5018835999071598,,,57 Sing,001,2022_Sep_29_0915,ProdSingRedoBetween,2021.2.3,60.02804513454332,
,,,,82,0,82,0,,,,,,,,,,,,,,,,,,,,,,1740.3582001000177,None,,,,,,,,,,,,,,,,,beginning,154,83,sing,new,null,1737.6091894999845,None,1737.6091894999845,None,1,1.648521399940364,1737.6091894999845,None,1.648521399940364,1739.2749091000296,None,1739.7751149999676,None,1739.7751149999676,None,r,0.5546592999016866,1739.7751149999676,None,0.5546592999016866,,,57 Sing,001,2022_Sep_29_0915,ProdSingRedoBetween,2021.2.3,60.02804513454332,
,,,,83,0,83,0,,,,,,,,,,,,,,,,,,,,,,1745.6005300000543,None,,,,,,,,,,,,,,,,,platform,147,84,sing,new,null,1740.863136400003,None,1740.863136400003,None,1,4.106673500034958,1740.863136400003,None,4.106673500034958,1745.0010871000122,None,1745.5183889999753,None,1745.5183889999753,None,r,0.059602700057439506,1745.5183889999753,None,0.059602700057439506,,,57 Sing,001,2022_Sep_29_0915,ProdSingRedoBetween,2021.2.3,60.02804513454332,
,,,,84,0,84,0,,,,,,,,,,,,,,,,,,,,,,1750.6684746999526,None,,,,,,,,,,,,,,,,,welcome,19,85,sing,old,yellow,1746.122318699956,None,1746.122318699956,None,5,2.607445500092581,1746.122318699956,None,2.607445500092581,1748.75179140002,None,1749.276573500014,None,1749.276573500014,None,r,1.365125700016506,1749.276573500014,None,1.365125700016506,,,57 Sing,001,2022_Sep_29_0915,ProdSingRedoBetween,2021.2.3,60.02804513454332,
,,,,85,0,85,0,,,,,,,,,,,,,,,,,,,,,,1756.0405297999969,None,,,,,,,,,,,,,,,,,track,50,86,sing,old,blue,1751.1724388999864,None,1751.1724388999864,None,1,2.3093227999052033,1751.1724388999864,None,2.3093227999052033,1753.5060215999838,None,1754.0052669999423,None,1754.0052669999423,None,r,2.0043991999700665,1754.0052669999423,None,2.0043991999700665,,,57 Sing,001,2022_Sep_29_0915,ProdSingRedoBetween,2021.2.3,60.02804513454332,
,,,,86,0,86,0,,,,,,,,,,,,,,,,,,,,,,1759.3285641999682,None,,,,,,,,,,,,,,,,,candidate,88,87,sing,old,red,1756.550258900039,None,1756.550258900039,None,6,1.3475504000671208,1756.550258900039,None,1.3475504000671208,1757.930208100006,None,1758.44729000004,None,1758.44729000004,None,r,0.8505413999082521,1758.44729000004,None,0.8505413999082521,,,57 Sing,001,2022_Sep_29_0915,ProdSingRedoBetween,2021.2.3,60.02804513454332,
,,,,87,0,87,0,,,,,,,,,,,,,,,,,,,,,,1766.4176007000497,None,,,,,,,,,,,,,,,,,clean,36,88,sing,old,blue,1759.8293942000018,None,1759.8293942000018,None,3,5.276305100065656,1759.8293942000018,None,5.276305100065656,1765.1332838999806,None,1765.6380213999655,None,1765.6380213999655,None,r,0.7557343000080436,1765.6380213999655,None,0.7557343000080436,,,57 Sing,001,2022_Sep_29_0915,ProdSingRedoBetween,2021.2.3,60.02804513454332,
,,,,88,0,88,0,,,,,,,,,,,,,,,,,,,,,,1771.2896788000362,None,,,,,,,,,,,,,,,,,course,8,89,sing,old,yellow,1766.9293957999907,None,1766.9293957999907,None,6,3.0482862000353634,1766.9293957999907,None,3.0482862000353634,1770.0054890000029,None,1770.5130865999963,None,1770.5130865999963,None,r,0.7447205999633297,1770.5130865999963,None,0.7447205999633297,,,57 Sing,001,2022_Sep_29_0915,ProdSingRedoBetween,2021.2.3,60.02804513454332,
,,,,89,0,89,0,,,,,,,,,,,,,,,,,,,,,,1776.6277783999685,None,,,,,,,,,,,,,,,,,whole,16,90,sing,old,yellow,1771.793086300022,None,1771.793086300022,None,6,1.3365274000680074,1771.793086300022,None,1.3365274000680074,1773.170615799958,None,1773.6755777000217,None,1773.6755777000217,None,r,2.93405169993639,1773.6755777000217,None,2.93405169993639,,,57 Sing,001,2022_Sep_29_0915,ProdSingRedoBetween,2021.2.3,60.02804513454332,
,,,,90,0,90,0,,,,,,,,,,,,,,,,,,,,,,1779.0301507000113,None,,,,,,,,,,,,,,,,,ground,42,91,sing,old,blue,1777.1317408999894,None,1777.1317408999894,None,6,1.2861610000254586,1777.1317408999894,None,1.2861610000254586,1778.4564107999904,None,1778.9634998999536,None,1778.9634998999536,None,r,0.0382376000052318,1778.9634998999536,None,0.0382376000052318,,,57 Sing,001,2022_Sep_29_0915,ProdSingRedoBetween,2021.2.3,60.02804513454332,
,,,,91,0,91,0,,,,,,,,,,,,,,,,,,,,,,1782.5670125000179,None,,,,,,,,,,,,,,,,,division,145,92,sing,new,null,1779.5403153999941,None,1779.5403153999941,None,1,1.709337200038135,1779.5403153999941,None,1.709337200038135,1781.2676769000245,None,1781.7912515000207,None,1781.7912515000207,None,r,0.7463500000303611,1781.7912515000207,None,0.7463500000303611,,,57 Sing,001,2022_Sep_29_0915,ProdSingRedoBetween,2021.2.3,60.02804513454332,
,,,,92,0,92,0,,,,,,,,,,,,,,,,,,,,,,1786.5709781999467,None,,,,,,,,,,,,,,,,,industry,171,93,sing,new,null,1783.0862670999486,None,1783.0862670999486,None,6,1.9313687999965623,1783.0862670999486,None,1.9313687999965623,1785.0419963999884,None,1785.5534398000455,None,1785.5534398000455,None,r,1.0002613000106066,1785.5534398000455,None,1.0002613000106066,,,57 Sing,001,2022_Sep_29_0915,ProdSingRedoBetween,2021.2.3,60.02804513454332,
,,,,93,0,93,0,,,,,,,,,,,,,,,,,,,,,,1789.0066907999571,None,,,,,,,,,,,,,,,,,community,175,94,sing,new,null,1787.074855600018,None,1787.074855600018,None,6,1.294829500024207,1787.074855600018,None,1.294829500024207,1788.3908011999447,None,1788.896294999984,None,1788.896294999984,None,r,0.08937479997985065,1788.896294999984,None,0.08937479997985065,,,57 Sing,001,2022_Sep_29_0915,ProdSingRedoBetween,2021.2.3,60.02804513454332,
,,,,94,0,94,0,,,,,,,,,,,,,,,,,,,,,,1791.6795398000395,None,,,,,,,,,,,,,,,,,mankind,9,95,sing,old,yellow,1789.5175397000276,None,1789.5175397000276,None,1,1.1961177999619395,1789.5175397000276,None,1.1961177999619395,1790.7436371999793,None,1791.2627423000522,None,1791.2627423000522,None,r,0.3870782000012696,1791.2627423000522,None,0.3870782000012696,,,57 Sing,001,2022_Sep_29_0915,ProdSingRedoBetween,2021.2.3,60.02804513454332,
,,,,95,0,95,0,,,,,,,,,,,,,,,,,,,,,,1794.962656000047,None,,,,,,,,,,,,,,,,,quarter,167,96,sing,new,null,1792.2073350000428,None,1792.2073350000428,None,1,1.6183411000529304,1792.2073350000428,None,1.6183411000529304,1793.848423199961,None,1794.3622067000251,None,1794.3622067000251,None,r,0.5754816000116989,1794.3622067000251,None,0.5754816000116989,,,57 Sing,001,2022_Sep_29_0915,ProdSingRedoBetween,2021.2.3,60.02804513454332,
,,,,96,0,96,0,,,,,,,,,,,,,,,,,,,,,,1800.1844251999864,None,,,,,,,,,,,,,,,,,front,44,97,sing,old,blue,1795.475056999945,None,1795.475056999945,None,5,4.158549100044183,1795.475056999945,None,4.158549100044183,1799.6510817999952,None,1800.1521423000377,None,1800.1521423000377,None,r,0.009741900023072958,1800.1521423000377,None,0.009741900023072958,,,57 Sing,001,2022_Sep_29_0915,ProdSingRedoBetween,2021.2.3,60.02804513454332,
,,,,97,0,97,0,,,,,,,,,,,,,,,,,,,,,,1804.6222881999565,None,,,,,,,,,,,,,,,,,smell,160,98,sing,new,null,1800.6921361000277,None,1800.6921361000277,None,1,2.1815514999907464,1800.6921361000277,None,2.1815514999907464,1802.9052921000402,None,1803.404548099963,None,1803.404548099963,None,r,1.1891375000122935,1803.404548099963,None,1.1891375000122935,,,57 Sing,001,2022_Sep_29_0915,ProdSingRedoBetween,2021.2.3,60.02804513454332,
,,,,98,0,98,0,,,,,,,,,,,,,,,,,,,,,,1818.2533346000127,None,,,,,,,,,,,,,,,,,charter,174,99,sing,new,null,1805.1257747999625,None,1805.1257747999625,None,1,11.139923100010492,1805.1257747999625,None,11.139923100010492,1816.2873421999393,None,1816.802447599941,None,1816.802447599941,None,f,1.4232236000243574,1816.802447599941,None,1.4232236000243574,,,57 Sing,001,2022_Sep_29_0915,ProdSingRedoBetween,2021.2.3,60.02804513454332,
,,,,99,0,99,0,,,,,,,,,,,,,,,,,,,,,,1826.0268631000072,None,,,,,,,,,,,,,,,,,direction,35,100,sing,old,blue,1818.762912999955,None,1818.762912999955,None,6,5.038705200073309,1818.762912999955,None,5.038705200073309,1823.8258524000412,None,1824.3300906999502,None,1824.3300906999502,None,r,1.679576100083068,1824.3300906999502,None,1.679576100083068,,,57 Sing,001,2022_Sep_29_0915,ProdSingRedoBetween,2021.2.3,60.02804513454332,
,,,,100,0,100,0,,,,,,,,,,,,,,,,,,,,,,1831.966188600054,None,,,,,,,,,,,,,,,,,opening,39,101,sing,old,blue,1826.5318471000064,None,1826.5318471000064,None,2,3.7100550000322983,1826.5318471000064,None,3.7100550000322983,1830.2750079999678,None,1830.7818612999981,None,1830.7818612999981,None,r,1.1638103000586852,1830.7818612999981,None,1.1638103000586852,,,57 Sing,001,2022_Sep_29_0915,ProdSingRedoBetween,2021.2.3,60.02804513454332,
,,,,101,0,101,0,,,,,,,,,,,,,,,,,,,,,,1834.4187050999608,None,,,,,,,,,,,,,,,,,spoke,51,102,sing,old,blue,1832.4836130000185,None,1832.4836130000185,None,1,0.9659111000364646,1832.4836130000185,None,0.9659111000364646,1833.4724648999982,None,1833.9900005999953,None,1833.9900005999953,None,r,0.4116191000211984,1833.9900005999953,None,0.4116191000211984,,,57 Sing,001,2022_Sep_29_0915,ProdSingRedoBetween,2021.2.3,60.02804513454332,
,,,,102,0,102,0,,,,,,,,,,,,,,,,,,,,,,1837.672380700009,None,,,,,,,,,,,,,,,,,position,131,103,sing,new,null,1834.9195651999908,None,1834.9195651999908,None,6,1.6419318999396637,1834.9195651999908,None,1.6419318999396637,1836.5882024000166,None,1837.093955700053,None,1837.093955700053,None,r,0.5555623000254855,1837.093955700053,None,0.5555623000254855,,,57 Sing,001,2022_Sep_29_0915,ProdSingRedoBetween,2021.2.3,60.02804513454332,
,,,,103,0,103,0,,,,,,,,,,,,,,,,,,,,,,1842.1263795000268,None,,,,,,,,,,,,,,,,,throw,78,104,sing,old,red,1838.1724478000542,None,1838.1724478000542,None,3,2.2212020000442863,1838.1724478000542,None,2.2212020000442863,1840.4261264000088,None,1840.9316494000377,None,1840.9316494000377,None,r,1.1659698999719694,1840.9316494000377,None,1.1659698999719694,,,57 Sing,001,2022_Sep_29_0915,ProdSingRedoBetween,2021.2.3,60.02804513454332,
,,,,104,0,104,0,,,,,,,,,,,,,,,,,,,,,,1845.2813839999726,None,,,,,,,,,,,,,,,,,stranger,111,105,sing,new,null,1842.6324690999463,None,1842.6324690999463,None,6,1.6332342000678182,1842.6324690999463,None,1.6332342000678182,1844.302914400003,None,1844.8125402999576,None,1844.8125402999576,None,r,0.44511560001410544,1844.8125402999576,None,0.44511560001410544,,,57 Sing,001,2022_Sep_29_0915,ProdSingRedoBetween,2021.2.3,60.02804513454332,
,,,,105,0,105,0,,,,,,,,,,,,,,,,,,,,,,1848.5662483000197,None,,,,,,,,,,,,,,,,,private,54,106,sing,old,blue,1845.800624000025,None,1845.800624000025,None,6,1.5369586000451818,1845.800624000025,None,1.5369586000451818,1847.3702231999487,None,1847.8822631000075,None,1847.8822631000075,None,r,0.6554104000097141,1847.8822631000075,None,0.6554104000097141,,,57 Sing,001,2022_Sep_29_0915,ProdSingRedoBetween,2021.2.3,60.02804513454332,
,,,,106,0,106,0,,,,,,,,,,,,,,,,,,,,,,1852.1695678000106,None,,,,,,,,,,,,,,,,,bitter,172,107,sing,new,null,1849.0786911000032,None,1849.0786911000032,None,1,1.5228541000979021,1849.0786911000032,None,1.5228541000979021,1850.6181975000072,None,1851.1238892000401,None,1851.1238892000401,None,r,1.021677999990061,1851.1238892000401,None,1.021677999990061,,,57 Sing,001,2022_Sep_29_0915,ProdSingRedoBetween,2021.2.3,60.02804513454332,
,,,,107,0,107,0,,,,,,,,,,,,,,,,,,,,,,1857.4750205000164,None,,,,,,,,,,,,,,,,,population,117,108,sing,new,null,1852.6783365999581,None,1852.6783365999581,None,1,3.0193223000969738,1852.6783365999581,None,3.0193223000969738,1855.7297278000042,None,1856.2463682000525,None,1856.2463682000525,None,r,1.211201399913989,1856.2463682000525,None,1.211201399913989,,,57 Sing,001,2022_Sep_29_0915,ProdSingRedoBetween,2021.2.3,60.02804513454332,
,,,,108,0,108,0,,,,,,,,,,,,,,,,,,,,,,1861.8293891999638,None,,,,,,,,,,,,,,,,,principal,140,109,sing,new,null,1857.9878519000486,None,1857.9878519000486,None,1,3.221692100050859,1857.9878519000486,None,3.221692100050859,1861.230308099999,None,1861.7460388999898,None,1861.7460388999898,None,r,0.055464699980802834,1861.7460388999898,None,0.055464699980802834,,,57 Sing,001,2022_Sep_29_0915,ProdSingRedoBetween,2021.2.3,60.02804513454332,
,,,,109,0,109,0,,,,,,,,,,,,,,,,,,,,,,1867.0542528999504,None,,,,,,,,,,,,,,,,,primary,153,110,sing,new,null,1862.338206000044,None,1862.338206000044,None,6,3.2474842000519857,1862.338206000044,None,3.2474842000519857,1865.6260007000528,None,1866.133794000023,None,1866.133794000023,None,r,0.8997101000277326,1866.133794000023,None,0.8997101000277326,,,57 Sing,001,2022_Sep_29_0915,ProdSingRedoBetween,2021.2.3,60.02804513454332,
,,,,110,0,110,0,,,,,,,,,,,,,,,,,,,,,,1870.855928999954,None,,,,,,,,,,,,,,,,,solution,64,111,sing,old,red,1867.5705794000532,None,1867.5705794000532,None,6,1.7510024999501184,1867.5705794000532,None,1.7510024999501184,1869.3444388000062,None,1869.8597511999542,None,1869.8597511999542,None,r,0.9659078000113368,1869.8597511999542,None,0.9659078000113368,,,57 Sing,001,2022_Sep_29_0915,ProdSingRedoBetween,2021.2.3,60.02804513454332,
,,,,111,0,111,0,,,,,,,,,,,,,,,,,,,,,,1876.4273735999595,None,,,,,,,,,,,,,,,,,cross,77,112,sing,old,red,1871.3589939000085,None,1871.3589939000085,None,5,3.77051639999263,1871.3589939000085,None,3.77051639999263,1875.1607356000459,None,1875.6616395999445,None,1875.6616395999445,None,r,0.7478863000869751,1875.6616395999445,None,0.7478863000869751,,,57 Sing,001,2022_Sep_29_0915,ProdSingRedoBetween,2021.2.3,60.02804513454332,
,,,,112,0,112,0,,,,,,,,,,,,,,,,,,,,,,1883.3842612999724,None,,,,,,,,,,,,,,,,,threat,37,113,sing,old,blue,1876.9380249000387,None,1876.9380249000387,None,6,4.3594750999473035,1876.9380249000387,None,4.3594750999473035,1881.319493100047,None,1881.8325153000187,None,1881.8325153000187,None,r,1.529006400029175,1881.8325153000187,None,1.529006400029175,,,57 Sing,001,2022_Sep_29_0915,ProdSingRedoBetween,2021.2.3,60.02804513454332,
,,,,113,0,113,0,,,,,,,,,,,,,,,,,,,,,,1888.2891470999457,None,,,,,,,,,,,,,,,,,century,146,114,sing,new,null,1883.9020720999688,None,1883.9020720999688,None,1,3.49139739992097,1883.9020720999688,None,3.49139739992097,1887.422641000012,None,1887.9268723999849,None,1887.9268723999849,None,r,0.34660879999864846,1887.9268723999849,None,0.34660879999864846,,,57 Sing,001,2022_Sep_29_0915,ProdSingRedoBetween,2021.2.3,60.02804513454332,
,,,,114,0,114,0,,,,,,,,,,,,,,,,,,,,,,1894.3968721999554,None,,,,,,,,,,,,,,,,,measure,176,115,sing,new,null,1888.8026359999785,None,1888.8026359999785,None,2,4.542886100010946,1888.8026359999785,None,4.542886100010946,1893.3639724999666,None,1893.8781423999462,None,1893.8781423999462,None,r,0.49142169998958707,1893.8781423999462,None,0.49142169998958707,,,57 Sing,001,2022_Sep_29_0915,ProdSingRedoBetween,2021.2.3,60.02804513454332,
,,,,115,0,115,0,,,,,,,,,,,,,,,,,,,,,,1897.7004181999946,None,,,,,,,,,,,,,,,,,gesture,41,116,sing,old,blue,1894.9162127999589,None,1894.9162127999589,None,6,1.4932862999849021,1894.9162127999589,None,1.4932862999849021,1896.4320243999828,None,1896.9345739999553,None,1896.9345739999553,None,r,0.7468441999517381,1896.9345739999553,None,0.7468441999517381,,,57 Sing,001,2022_Sep_29_0915,ProdSingRedoBetween,2021.2.3,60.02804513454332,
,,,,116,0,116,0,,,,,,,,,,,,,,,,,,,,,,1900.7348277999554,None,,,,,,,,,,,,,,,,,relation,85,117,sing,old,red,1898.2165899999673,None,1898.2165899999673,None,6,1.8089724999153987,1898.2165899999673,None,1.8089724999153987,1900.05983319995,None,1900.5680403000442,None,1900.5680403000442,None,r,0.13749100000131875,1900.5680403000442,None,0.13749100000131875,,,57 Sing,001,2022_Sep_29_0915,ProdSingRedoBetween,2021.2.3,60.02804513454332,
,,,,117,0,117,0,,,,,,,,,,,,,,,,,,,,,,1906.8242138000205,None,,,,,,,,,,,,,,,,,material,67,118,sing,old,red,1901.2508801999502,None,1901.2508801999502,None,1,4.278633399982937,1901.2508801999502,None,4.278633399982937,1905.5591699000215,None,1906.0736324000172,None,1906.0736324000172,None,r,0.7278419999638572,1906.0736324000172,None,0.7278419999638572,,,57 Sing,001,2022_Sep_29_0915,ProdSingRedoBetween,2021.2.3,60.02804513454332,
,,,,118,0,118,0,,,,,,,,,,,,,,,,,,,,,,1910.4278650999768,None,,,,,,,,,,,,,,,,,chief,45,119,sing,old,blue,1907.33130109997,None,1907.33130109997,None,1,1.2780410000123084,1907.33130109997,None,1.2780410000123084,1908.6261075000511,None,1909.1267816999462,None,1909.1267816999462,None,r,1.2826529999729246,1909.1267816999462,None,1.2826529999729246,,,57 Sing,001,2022_Sep_29_0915,ProdSingRedoBetween,2021.2.3,60.02804513454332,
,,,,119,0,119,0,,,,,,,,,,,,,,,,,,,,,,1915.0825893,None,,,,,,,,,,,,,,,,,article,114,120,sing,new,null,1910.9325126999756,None,1910.9325126999756,None,3,3.5089511999394745,1910.9325126999756,None,3.5089511999394745,1914.4652167999884,None,1914.9721380999545,None,1914.9721380999545,None,r,0.09343150001950562,1914.9721380999545,None,0.09343150001950562,,,57 Sing,001,2022_Sep_29_0915,ProdSingRedoBetween,2021.2.3,60.02804513454332,
,,,,120,0,120,0,,,,,,,,,,,,,,,,,,,,,,1917.9687597999582,None,,,,,,,,,,,,,,,,,story,96,121,sing,new,null,1915.5865847000387,None,1915.5865847000387,None,1,1.3188563999719918,1915.5865847000387,None,1.3188563999719918,1916.9351085999515,None,1917.4411362999817,None,1917.4411362999817,None,r,0.4964889999246225,1917.4411362999817,None,0.4964889999246225,,,57 Sing,001,2022_Sep_29_0915,ProdSingRedoBetween,2021.2.3,60.02804513454332,
,,,,121,0,121,0,,,,,,,,,,,,,,,,,,,,,,1922.70678769995,None,,,,,,,,,,,,,,,,,error,136,122,sing,new,null,1918.475667999941,None,1918.475667999941,None,5,3.533785799983889,1918.475667999941,None,3.533785799983889,1922.040051799966,None,1922.5457522999495,None,1922.5457522999495,None,r,0.14364550006575882,1922.5457522999495,None,0.14364550006575882,,,57 Sing,001,2022_Sep_29_0915,ProdSingRedoBetween,2021.2.3,60.02804513454332,
,,,,122,0,122,0,,,,,,,,,,,,,,,,,,,,,,1927.6806817000033,None,,,,,,,,,,,,,,,,,government,92,123,sing,new,null,1923.2117794000078,None,1923.2117794000078,None,1,2.9416490000439808,1923.2117794000078,None,2.9416490000439808,1926.17896629998,None,1926.7036891999887,None,1926.7036891999887,None,r,0.9456407999387011,1926.7036891999887,None,0.9456407999387011,,,57 Sing,001,2022_Sep_29_0915,ProdSingRedoBetween,2021.2.3,60.02804513454332,
,,,,123,0,123,0,,,,,,,,,,,,,,,,,,,,,,1931.9991724999854,None,,,,,,,,,,,,,,,,,pattern,178,124,sing,new,null,1928.2004241000395,None,1928.2004241000395,None,5,2.433382000075653,1928.2004241000395,None,2.433382000075653,1930.6711079999804,None,1931.1859838999808,None,1931.1859838999808,None,r,0.7834600999485701,1931.1859838999808,None,0.7834600999485701,,,57 Sing,001,2022_Sep_29_0915,ProdSingRedoBetween,2021.2.3,60.02804513454332,
,,,,124,0,124,0,,,,,,,,,,,,,,,,,,,,,,1936.2202613999834,None,,,,,,,,,,,,,,,,,power,25,125,sing,old,yellow,1932.510532699991,None,1932.510532699991,None,3,3.0828348000068218,1932.510532699991,None,3.0828348000068218,1935.6197794999462,None,1936.1253060000017,None,1936.1253060000017,None,r,0.06811589992139488,1936.1253060000017,None,0.06811589992139488,,,57 Sing,001,2022_Sep_29_0915,ProdSingRedoBetween,2021.2.3,60.02804513454332,
,,,,125,0,125,0,,,,,,,,,,,,,,,,,,,,,,1940.8752084999578,None,,,,,,,,,,,,,,,,,silence,5,126,sing,old,yellow,1936.7252927999943,None,1936.7252927999943,None,6,2.6201087000081316,1936.7252927999943,None,2.6201087000081316,1939.3746201000176,None,1939.8823097000131,None,1939.8823097000131,None,r,0.9669805000303313,1939.8823097000131,None,0.9669805000303313,,,57 Sing,001,2022_Sep_29_0915,ProdSingRedoBetween,2021.2.3,60.02804513454332,
,,,,126,0,126,0,,,,,,,,,,,,,,,,,,,,,,1947.4148073999677,None,,,,,,,,,,,,,,,,,command,163,127,sing,new,null,1941.3781075000297,None,1941.3781075000297,None,2,4.367301800055429,1941.3781075000297,None,4.367301800055429,1945.7637220999459,None,1946.2637367999414,None,1946.2637367999414,None,r,1.129672999959439,1946.2637367999414,None,1.129672999959439,,,57 Sing,001,2022_Sep_29_0915,ProdSingRedoBetween,2021.2.3,60.02804513454332,
,,,,127,0,127,0,,,,,,,,,,,,,,,,,,,,,,1950.5178662999533,None,,,,,,,,,,,,,,,,,quantity,155,128,sing,new,null,1947.9284699000418,None,1947.9284699000418,None,1,1.0730034000007436,1947.9284699000418,None,1.0730034000007436,1949.0233191000298,None,1949.5343109000241,None,1949.5343109000241,None,r,0.9630848999368027,1949.5343109000241,None,0.9630848999368027,,,57 Sing,001,2022_Sep_29_0915,ProdSingRedoBetween,2021.2.3,60.02804513454332,
,,,,128,0,128,0,,,,,,,,,,,,,,,,,,,,,,1954.6886024000123,None,,,,,,,,,,,,,,,,,split,118,129,sing,new,null,1951.0203999000369,None,1951.0203999000369,None,1,2.421007000026293,1951.0203999000369,None,2.421007000026293,1953.4869147000136,None,1953.9884664999554,None,1953.9884664999554,None,r,0.6849394000601023,1953.9884664999554,None,0.6849394000601023,,,57 Sing,001,2022_Sep_29_0915,ProdSingRedoBetween,2021.2.3,60.02804513454332,
,,,,129,0,129,0,,,,,,,,,,,,,,,,,,,,,,1959.8271258999594,None,,,,,,,,,,,,,,,,,express,63,130,sing,old,red,1955.1962176000234,None,1955.1962176000234,None,4,3.1091956000309438,1955.1962176000234,None,3.1091956000309438,1958.328973799944,None,1958.8429052999709,None,1958.8429052999709,None,r,0.9586287999991328,1958.8429052999709,None,0.9586287999991328,,,57 Sing,001,2022_Sep_29_0915,ProdSingRedoBetween,2021.2.3,60.02804513454332,
,,,,130,0,130,0,,,,,,,,,,,,,,,,,,,,,,1963.7643577000126,None,,,,,,,,,,,,,,,,,school,102,131,sing,new,null,1960.3310951000312,None,1960.3310951000312,None,1,2.814258600003086,1960.3310951000312,None,2.814258600003086,1963.167610900011,None,1963.6811190999579,None,1963.6811190999579,None,r,0.05624279996845871,1963.6811190999579,None,0.05624279996845871,,,57 Sing,001,2022_Sep_29_0915,ProdSingRedoBetween,2021.2.3,60.02804513454332,
,,,,131,0,131,0,,,,,,,,,,,,,,,,,,,,,,1970.4207858999725,None,,,,,,,,,,,,,,,,,country,29,132,sing,old,blue,1964.2775775999762,None,1964.2775775999762,None,5,4.963821799959987,1964.2775775999762,None,4.963821799959987,1969.2729392000474,None,1969.7907737999922,None,1969.7907737999922,None,r,0.6028438999783248,1969.7907737999922,None,0.6028438999783248,,,57 Sing,001,2022_Sep_29_0915,ProdSingRedoBetween,2021.2.3,60.02804513454332,
,,,,132,0,132,0,,,,,,,,,,,,,,,,,,,,,,1973.3571014000336,None,,,,,,,,,,,,,,,,,angle,84,133,sing,old,red,1970.9237821999704,None,1970.9237821999704,None,6,1.7095715999603271,1970.9237821999704,None,1.7095715999603271,1972.6563571000006,None,1973.1616543999407,None,1973.1616543999407,None,r,0.17580620001535863,1973.1616543999407,None,0.17580620001535863,,,57 Sing,001,2022_Sep_29_0915,ProdSingRedoBetween,2021.2.3,60.02804513454332,
,,,,133,0,133,0,,,,,,,,,,,,,,,,,,,,,,1978.445471700048,None,,,,,,,,,,,,,,,,,minor,173,134,sing,new,null,1973.8765201000497,None,1973.8765201000497,None,1,3.084876299952157,1973.8765201000497,None,3.084876299952157,1976.9787423999514,None,1977.4782371999463,None,1977.4782371999463,None,r,0.9471745999762788,1977.4782371999463,None,0.9471745999762788,,,57 Sing,001,2022_Sep_29_0915,ProdSingRedoBetween,2021.2.3,60.02804513454332,
,,,,134,0,134,0,,,,,,,,,,,,,,,,,,,,,,1983.5704376000213,None,,,,,,,,,,,,,,,,,safety,95,135,sing,new,null,1978.9492326000473,None,1978.9492326000473,None,4,3.580266600009054,1978.9492326000473,None,3.580266600009054,1982.5511602000333,None,1983.0581943000434,None,1983.0581943000434,None,r,0.47939520003274083,1983.0581943000434,None,0.47939520003274083,,,57 Sing,001,2022_Sep_29_0915,ProdSingRedoBetween,2021.2.3,60.02804513454332,
,,,,135,0,135,0,,,,,,,,,,,,,,,,,,,,,,1989.172992000007,None,,,,,,,,,,,,,,,,,pressure,81,136,sing,old,red,1984.087766099954,None,1984.087766099954,None,3,3.6574615000281483,1984.087766099954,None,3.6574615000281483,1987.7714476999827,None,1988.280527099967,None,1988.280527099967,None,r,0.8647607000311837,1988.280527099967,None,0.8647607000311837,,,57 Sing,001,2022_Sep_29_0915,ProdSingRedoBetween,2021.2.3,60.02804513454332,
,,,,136,0,136,0,,,,,,,,,,,,,,,,,,,,,,1993.2604608000256,None,,,,,,,,,,,,,,,,,couch,141,137,sing,new,null,1989.6844178000465,None,1989.6844178000465,None,1,2.21296999999322,1989.6844178000465,None,2.21296999999322,1991.9285162000451,None,1992.4432043000124,None,1992.4432043000124,None,r,0.7901014999952167,1992.4432043000124,None,0.7901014999952167,,,57 Sing,001,2022_Sep_29_0915,ProdSingRedoBetween,2021.2.3,60.02804513454332,
,,,,137,0,137,0,,,,,,,,,,,,,,,,,,,,,,1999.0161458000075,None,,,,,,,,,,,,,,,,,stand,135,138,sing,new,null,1993.7644727999577,None,1993.7644727999577,None,5,3.956800799933262,1993.7644727999577,None,3.956800799933262,1997.7494058000157,None,1998.2535667000338,None,1998.2535667000338,None,r,0.7317525999387726,1998.2535667000338,None,0.7317525999387726,,,57 Sing,001,2022_Sep_29_0915,ProdSingRedoBetween,2021.2.3,60.02804513454332,
,,,,138,0,138,0,,,,,,,,,,,,,,,,,,,,,,2002.5030502999434,None,,,,,,,,,,,,,,,,,owner,23,139,sing,old,yellow,1999.5283932000166,None,1999.5283932000166,None,6,1.9289122000336647,1999.5283932000166,None,1.9289122000336647,2001.4863620999968,None,2001.9859784999862,None,2001.9859784999862,None,r,0.4955066000111401,2001.9859784999862,None,0.4955066000111401,,,57 Sing,001,2022_Sep_29_0915,ProdSingRedoBetween,2021.2.3,60.02804513454332,
,,,,139,0,139,0,,,,,,,,,,,,,,,,,,,,,,2006.4069432000397,None,,,,,,,,,,,,,,,,,build,61,140,sing,old,red,2003.0040909999516,None,2003.0040909999516,None,1,2.2693336999509484,2003.0040909999516,None,2.2693336999509484,2005.2915358999744,None,2005.8063949999632,None,2005.8063949999632,None,r,0.5710013000061736,2005.8063949999632,None,0.5710013000061736,,,57 Sing,001,2022_Sep_29_0915,ProdSingRedoBetween,2021.2.3,60.02804513454332,
,,,,140,0,140,0,,,,,,,,,,,,,,,,,,,,,,2009.92688309995,None,,,,,,,,,,,,,,,,,damage,76,141,sing,old,red,2006.91309799999,None,2006.91309799999,None,5,1.8881995000410825,2006.91309799999,None,1.8881995000410825,2008.827363600023,None,2009.3333579000318,None,2009.3333579000318,None,r,0.5639769000699744,2009.3333579000318,None,0.5639769000699744,,,57 Sing,001,2022_Sep_29_0915,ProdSingRedoBetween,2021.2.3,60.02804513454332,
,,,,141,0,141,0,,,,,,,,,,,,,,,,,,,,,,2013.2968280999921,None,,,,,,,,,,,,,,,,,skill,110,142,sing,new,null,2010.447918400052,None,2010.447918400052,None,6,2.025514999986626,2010.447918400052,None,2.025514999986626,2012.49825840001,None,2013.0134789999574,None,2013.0134789999574,None,r,0.25973739998880774,2013.0134789999574,None,0.25973739998880774,,,57 Sing,001,2022_Sep_29_0915,ProdSingRedoBetween,2021.2.3,60.02804513454332,
,,,,142,0,142,0,,,,,,,,,,,,,,,,,,,,,,2017.1870866999961,None,,,,,,,,,,,,,,,,,force,20,143,sing,old,yellow,2013.8049553999444,None,2013.8049553999444,None,6,2.28430030005984,2013.8049553999444,None,2.28430030005984,2016.1183530000271,None,2016.637106499984,None,2016.637106499984,None,r,0.5240993000334129,2016.637106499984,None,0.5240993000334129,,,57 Sing,001,2022_Sep_29_0915,ProdSingRedoBetween,2021.2.3,60.02804513454332,
,,,,143,0,143,0,,,,,,,,,,,,,,,,,,,,,,2020.109496399993,None,,,,,,,,,,,,,,,,,harmony,69,144,sing,old,red,2017.703658399987,None,2017.703658399987,None,1,1.8175519000506029,2017.703658399987,None,1.8175519000506029,2019.538722999976,None,2020.0604879000457,None,2020.0604879000457,None,r,0.020990999997593462,2020.0604879000457,None,0.020990999997593462,,,57 Sing,001,2022_Sep_29_0915,ProdSingRedoBetween,2021.2.3,60.02804513454332,
,,,,144,0,144,0,,,,,,,,,,,,,,,,,,,,,,2024.7089886999456,None,,,,,,,,,,,,,,,,,income,13,145,sing,old,yellow,2020.6241949000396,None,2020.6241949000396,None,4,3.0570082999765873,2020.6241949000396,None,3.0570082999765873,2023.707398599945,None,2024.2081716000102,None,2024.2081716000102,None,r,0.4730709999566898,2024.2081716000102,None,0.4730709999566898,,,57 Sing,001,2022_Sep_29_0915,ProdSingRedoBetween,2021.2.3,60.02804513454332,
,,,,145,0,145,0,,,,,,,,,,,,,,,,,,,,,,2027.6113869999535,None,,,,,,,,,,,,,,,,,department,47,146,sing,old,blue,2025.2100953999907,None,2025.2100953999907,None,6,1.3354583999607712,2025.2100953999907,None,1.3354583999607712,2026.570634100004,None,2027.0776485999813,None,2027.0776485999813,None,r,0.5076462998986244,2027.0776485999813,None,0.5076462998986244,,,57 Sing,001,2022_Sep_29_0915,ProdSingRedoBetween,2021.2.3,60.02804513454332,
,,,,146,0,146,0,,,,,,,,,,,,,,,,,,,,,,2030.480887999991,None,,,,,,,,,,,,,,,,,distance,59,147,sing,old,yellow,2028.1156095999759,None,2028.1156095999759,None,6,1.7336077999789268,2028.1156095999759,None,1.7336077999789268,2029.8934914999409,None,2030.3976270999992,None,2030.3976270999992,None,r,0.0675760000012815,2030.3976270999992,None,0.0675760000012815,,,57 Sing,001,2022_Sep_29_0915,ProdSingRedoBetween,2021.2.3,60.02804513454332,
,,,,147,0,147,0,,,,,,,,,,,,,,,,,,,,,,2035.8862443000544,None,,,,,,,,,,,,,,,,,strength,107,148,sing,new,null,2030.98471530003,None,2030.98471530003,None,3,3.496550800045952,2030.98471530003,None,3.496550800045952,2034.5026640000287,None,2035.0123623999534,None,2035.0123623999534,None,r,0.8528596999822184,2035.0123623999534,None,0.8528596999822184,,,57 Sing,001,2022_Sep_29_0915,ProdSingRedoBetween,2021.2.3,60.02804513454332,
,,,,148,0,148,0,,,,,,,,,,,,,,,,,,,,,,2040.008328899974,None,,,,,,,,,,,,,,,,,instrument,31,149,sing,old,blue,2036.397715399973,None,2036.397715399973,None,1,2.963501299964264,2036.397715399973,None,2.963501299964264,2039.390196799999,None,2039.890371800051,None,2039.890371800051,None,r,0.09480530000291765,2039.890371800051,None,0.09480530000291765,,,57 Sing,001,2022_Sep_29_0915,ProdSingRedoBetween,2021.2.3,60.02804513454332,
,,,,149,0,149,0,,,,,,,,,,,,,,,,,,,,,,2043.0268202000298,None,,,,,,,,,,,,,,,,,estate,148,150,sing,new,null,2040.5197218999965,None,2040.5197218999965,None,1,1.9215408000163734,2040.5197218999965,None,1.9215408000163734,2042.461088799988,None,2042.9673687999602,None,2042.9673687999602,None,r,0.04195059998892248,2042.9673687999602,None,0.04195059998892248,,,57 Sing,001,2022_Sep_29_0915,ProdSingRedoBetween,2021.2.3,60.02804513454332,
,,,,150,0,150,0,,,,,,,,,,,,,,,,,,,,,,2045.7461490000132,None,,,,,,,,,,,,,,,,,style,32,151,sing,old,blue,2043.538253000006,None,2043.538253000006,None,6,1.439003299921751,2043.538253000006,None,1.439003299921751,2044.9983442999655,None,2045.5126501000486,None,2045.5126501000486,None,r,0.2086175000295043,2045.5126501000486,None,0.2086175000295043,,,57 Sing,001,2022_Sep_29_0915,ProdSingRedoBetween,2021.2.3,60.02804513454332,
,,,,151,0,151,0,,,,,,,,,,,,,,,,,,,,,,2048.415417299955,None,,,,,,,,,,,,,,,,,tragedy,151,152,sing,new,null,2046.256184299942,None,2046.256184299942,None,1,1.5849390999646857,2046.256184299942,None,1.5849390999646857,2047.8715011000168,None,2048.382182099973,None,2048.382182099973,None,r,0.01108540000859648,2048.382182099973,None,0.01108540000859648,,,57 Sing,001,2022_Sep_29_0915,ProdSingRedoBetween,2021.2.3,60.02804513454332,
,,,,152,0,152,0,,,,,,,,,,,,,,,,,,,,,,2051.818872999982,None,,,,,,,,,,,,,,,,,religion,99,153,sing,new,null,2048.917382900021,None,2048.917382900021,None,1,2.26781780004967,2048.917382900021,None,2.26781780004967,2051.2026834000135,None,2051.7022901000455,None,2051.7022901000455,None,r,0.09893530001863837,2051.7022901000455,None,0.09893530001863837,,,57 Sing,001,2022_Sep_29_0915,ProdSingRedoBetween,2021.2.3,60.02804513454332,
,,,,153,0,153,0,,,,,,,,,,,,,,,,,,,,,,2056.8446201999905,None,,,,,,,,,,,,,,,,,education,26,154,sing,old,yellow,2052.331153200008,None,2052.331153200008,None,4,3.3341293999692425,2052.331153200008,None,3.3341293999692425,2055.6893675000174,None,2056.1961626999546,None,2056.1961626999546,None,r,0.6131361000007018,2056.1961626999546,None,0.6131361000007018,,,57 Sing,001,2022_Sep_29_0915,ProdSingRedoBetween,2021.2.3,60.02804513454332,
,,,,154,0,154,0,,,,,,,,,,,,,,,,,,,,,,2058.9926921000006,None,,,,,,,,,,,,,,,,,music,164,155,sing,new,null,2057.360620500054,None,2057.360620500054,None,1,0.944781000027433,2057.360620500054,None,0.944781000027433,2058.3268432000186,None,2058.8326224000193,None,2058.8326224000193,None,r,0.144780799979344,2058.8326224000193,None,0.144780799979344,,,57 Sing,001,2022_Sep_29_0915,ProdSingRedoBetween,2021.2.3,60.02804513454332,
,,,,155,0,155,0,,,,,,,,,,,,,,,,,,,,,,2061.8622134999605,None,,,,,,,,,,,,,,,,,resistance,7,156,sing,old,yellow,2059.502944799955,None,2059.502944799955,None,6,1.7623022999614477,2059.502944799955,None,1.7623022999614477,2061.2967296999414,None,2061.813025700045,None,2061.813025700045,None,r,0.020342699950560927,2061.813025700045,None,0.020342699950560927,,,57 Sing,001,2022_Sep_29_0915,ProdSingRedoBetween,2021.2.3,60.02804513454332,
,,,,156,0,156,0,,,,,,,,,,,,,,,,,,,,,,2065.699313399964,None,,,,,,,,,,,,,,,,,region,66,157,sing,old,red,2062.3702878999757,None,2062.3702878999757,None,2,2.319051600061357,2062.3702878999757,None,2.319051600061357,2064.716114199953,None,2065.219587699976,None,2065.219587699976,None,r,0.45366340002510697,2065.219587699976,None,0.45366340002510697,,,57 Sing,001,2022_Sep_29_0915,ProdSingRedoBetween,2021.2.3,60.02804513454332,
,,,,157,0,157,0,,,,,,,,,,,,,,,,,,,,,,2070.8545002000174,None,,,,,,,,,,,,,,,,,member,179,158,sing,new,null,2066.200832100003,None,2066.200832100003,None,1,3.7365988000528887,2066.200832100003,None,3.7365988000528887,2069.9581362999743,None,2070.472008200013,None,2070.472008200013,None,r,0.3611972000217065,2070.472008200013,None,0.3611972000217065,,,57 Sing,001,2022_Sep_29_0915,ProdSingRedoBetween,2021.2.3,60.02804513454332,
,,,,158,0,158,0,,,,,,,,,,,,,,,,,,,,,,2073.7741537999827,None,,,,,,,,,,,,,,,,,center,125,159,sing,new,null,2071.3664833999937,None,2071.3664833999937,None,6,1.2827456999802962,2071.3664833999937,None,1.2827456999802962,2072.676401900011,None,2073.1899895999813,None,2073.1899895999813,None,r,0.5631968000670895,2073.1899895999813,None,0.5631968000670895,,,57 Sing,001,2022_Sep_29_0915,ProdSingRedoBetween,2021.2.3,60.02804513454332,
,,,,159,0,159,0,,,,,,,,,,,,,,,,,,,,,,2077.811121799983,None,,,,,,,,,,,,,,,,,weather,75,160,sing,old,red,2074.280853400007,None,2074.280853400007,None,3,2.7282456000102684,2074.280853400007,None,2.7282456000102684,2077.030609300011,None,2077.5444105999777,None,2077.5444105999777,None,r,0.24866979999933392,2077.5444105999777,None,0.24866979999933392,,,57 Sing,001,2022_Sep_29_0915,ProdSingRedoBetween,2021.2.3,60.02804513454332,
,,,,160,0,160,0,,,,,,,,,,,,,,,,,,,,,,2080.180451299995,None,,,,,,,,,,,,,,,,,subject,49,161,sing,old,blue,2078.3208253999474,None,2078.3208253999474,None,6,1.256350199924782,2078.3208253999474,None,1.256350199924782,2079.59932639997,None,2080.113844800042,None,2080.113844800042,None,r,0.04769910010509193,2080.113844800042,None,0.04769910010509193,,,57 Sing,001,2022_Sep_29_0915,ProdSingRedoBetween,2021.2.3,60.02804513454332,
,,,,161,0,161,0,,,,,,,,,,,,,,,,,,,,,,2084.000897799968,None,,,,,,,,,,,,,,,,,brief,133,162,sing,new,null,2080.691260499996,None,2080.691260499996,None,1,1.6459783000173047,2080.691260499996,None,1.6459783000173047,2082.369504299946,None,2082.883533800021,None,2082.883533800021,None,r,1.1016431000316516,2082.883533800021,None,1.1016431000316516,,,57 Sing,001,2022_Sep_29_0915,ProdSingRedoBetween,2021.2.3,60.02804513454332,
,,,,162,0,162,0,,,,,,,,,,,,,,,,,,,,,,2089.392965900013,None,,,,,,,,,,,,,,,,,medicine,24,163,sing,old,yellow,2084.5097546000034,None,2084.5097546000034,None,5,4.187407199991867,2084.5097546000034,None,4.187407199991867,2088.722412599949,None,2089.225888899993,None,2089.225888899993,None,r,0.13544039998669177,2089.225888899993,None,0.13544039998669177,,,57 Sing,001,2022_Sep_29_0915,ProdSingRedoBetween,2021.2.3,60.02804513454332,
,,,,163,0,163,0,,,,,,,,,,,,,,,,,,,,,,2093.02758600004,None,,,,,,,,,,,,,,,,,dream,73,164,sing,old,red,2089.9069560000207,None,2089.9069560000207,None,3,2.062172699952498,2089.9069560000207,None,2.062172699952498,2091.9923116000136,None,2092.5010031999554,None,2092.5010031999554,None,r,0.5002086000749841,2092.5010031999554,None,0.5002086000749841,,,57 Sing,001,2022_Sep_29_0915,ProdSingRedoBetween,2021.2.3,60.02804513454332,
,,,,164,0,164,0,,,,,,,,,,,,,,,,,,,,,,2096.0646571000107,None,,,,,,,,,,,,,,,,,history,129,165,sing,new,null,2093.5340828000335,None,2093.5340828000335,None,5,1.835254600038752,2093.5340828000335,None,1.835254600038752,2095.397263700026,None,2095.917815499939,None,2095.917815499939,None,r,0.12336819991469383,2095.917815499939,None,0.12336819991469383,,,57 Sing,001,2022_Sep_29_0915,ProdSingRedoBetween,2021.2.3,60.02804513454332,
,,,,165,0,165,0,,,,,,,,,,,,,,,,,,,,,,2099.0686123999767,None,,,,,,,,,,,,,,,,,poetry,169,166,sing,new,null,2096.5876929999795,None,2096.5876929999795,None,2,1.389493800001219,2096.5876929999795,None,1.389493800001219,2098.001317600021,None,2098.519017099985,None,2098.519017099985,None,r,0.5302837000926957,2098.519017099985,None,0.5302837000926957,,,57 Sing,001,2022_Sep_29_0915,ProdSingRedoBetween,2021.2.3,60.02804513454332,
,,,,166,0,166,0,,,,,,,,,,,,,,,,,,,,,,2101.818509900011,None,,,,,,,,,,,,,,,,,payment,55,167,sing,old,blue,2099.5888874999946,None,2099.5888874999946,None,6,1.5002924000145867,2099.5888874999946,None,1.5002924000145867,2101.121080999961,None,2101.646203099983,None,2101.646203099983,None,r,0.15484380000270903,2101.646203099983,None,0.15484380000270903,,,57 Sing,001,2022_Sep_29_0915,ProdSingRedoBetween,2021.2.3,60.02804513454332,
,,,,167,0,167,0,,,,,,,,,,,,,,,,,,,,,,2103.987653100048,None,,,,,,,,,,,,,,,,,speech,149,168,sing,new,null,2102.3310930000152,None,2102.3310930000152,None,6,1.0860429999884218,2102.3310930000152,None,1.0860429999884218,2103.4371622999897,None,2103.942145399982,None,2103.942145399982,None,r,0.027015900006517768,2103.942145399982,None,0.027015900006517768,,,57 Sing,001,2022_Sep_29_0915,ProdSingRedoBetween,2021.2.3,60.02804513454332,
,,,,168,0,168,0,,,,,,,,,,,,,,,,,,,,,,2105.9466176000424,None,,,,,,,,,,,,,,,,,colonel,27,169,sing,old,yellow,2104.5042382000247,None,2104.5042382000247,None,6,0.6970111000118777,2104.5042382000247,None,0.6970111000118777,2105.2233648999827,None,2105.735053500044,None,2105.735053500044,None,r,0.1783641999354586,2105.735053500044,None,0.1783641999354586,,,57 Sing,001,2022_Sep_29_0915,ProdSingRedoBetween,2021.2.3,60.02804513454332,
,,,,169,0,169,0,,,,,,,,,,,,,,,,,,,,,,2112.4126477000536,None,,,,,,,,,,,,,,,,,title,120,170,sing,new,null,2106.4721558999736,None,2106.4721558999736,None,6,5.281035199994221,2106.4721558999736,None,5.281035199994221,2111.7851475999923,None,2112.2959316000342,None,2112.2959316000342,None,r,0.08916309999767691,2112.2959316000342,None,0.08916309999767691,,,57 Sing,001,2022_Sep_29_0915,ProdSingRedoBetween,2021.2.3,60.02804513454332,
,,,,170,0,170,0,,,,,,,,,,,,,,,,,,,,,,2115.451334499987,None,,,,,,,,,,,,,,,,,minute,4,171,sing,old,yellow,2112.914712299942,None,2112.914712299942,None,3,1.6785213999683037,2112.914712299942,None,1.6785213999683037,2114.6192893999396,None,2115.132105799974,None,2115.132105799974,None,r,0.2930801999755204,2115.132105799974,None,0.2930801999755204,,,57 Sing,001,2022_Sep_29_0915,ProdSingRedoBetween,2021.2.3,60.02804513454332,
,,,,171,0,171,0,,,,,,,,,,,,,,,,,,,,,,2118.2684029999655,None,,,,,,,,,,,,,,,,,theme,132,172,sing,new,null,2115.9663538000314,None,2115.9663538000314,None,5,1.6587323999265209,2115.9663538000314,None,1.6587323999265209,2117.652608399978,None,2118.154920800007,None,2118.154920800007,None,r,0.09418709995225072,2118.154920800007,None,0.09418709995225072,,,57 Sing,001,2022_Sep_29_0915,ProdSingRedoBetween,2021.2.3,60.02804513454332,
,,,,172,0,172,0,,,,,,,,,,,,,,,,,,,,,,2125.6427187999943,None,,,,,,,,,,,,,,,,,generation,3,173,sing,old,yellow,2118.778524399968,None,2118.778524399968,None,1,5.998771899961866,2118.778524399968,None,5.998771899961866,2124.8091550000245,None,2125.3127959000412,None,2125.3127959000412,None,r,0.30423109990078956,2125.3127959000412,None,0.30423109990078956,,,57 Sing,001,2022_Sep_29_0915,ProdSingRedoBetween,2021.2.3,60.02804513454332,
,,,,173,0,173,0,,,,,,,,,,,,,,,,,,,,,,2128.41782089998,None,,,,,,,,,,,,,,,,,waste,126,174,sing,new,null,2126.1431725999573,None,2126.1431725999573,None,1,1.1299220999935642,2126.1431725999573,None,1.1299220999935642,2127.297110400046,None,2127.8186822000425,None,2127.8186822000425,None,r,0.5745971000287682,2127.8186822000425,None,0.5745971000287682,,,57 Sing,001,2022_Sep_29_0915,ProdSingRedoBetween,2021.2.3,60.02804513454332,
,,,,174,0,174,0,,,,,,,,,,,,,,,,,,,,,,2131.8173446999863,None,,,,,,,,,,,,,,,,,comedy,108,175,sing,new,null,2128.9352998000104,None,2128.9352998000104,None,1,2.305791800026782,2128.9352998000104,None,2.305791800026782,2131.266501300037,None,2131.783710399992,None,2131.783710399992,None,r,0.00950480008032173,2131.783710399992,None,0.00950480008032173,,,57 Sing,001,2022_Sep_29_0915,ProdSingRedoBetween,2021.2.3,60.02804513454332,
,,,,175,0,175,0,,,,,,,,,,,,,,,,,,,,,,2136.1529109999537,None,,,,,,,,,,,,,,,,,empty,80,176,sing,old,red,2132.3389010999817,None,2132.3389010999817,None,1,2.190190599998459,2132.3389010999817,None,2.190190599998459,2134.55255100003,None,2135.0563675999874,None,2135.0563675999874,None,r,1.0806412999518216,2135.0563675999874,None,1.0806412999518216,,,57 Sing,001,2022_Sep_29_0915,ProdSingRedoBetween,2021.2.3,60.02804513454332,
