StudyLoop.thisRepN,StudyLoop.thisTrialN,StudyLoop.thisN,StudyLoop.thisIndex,TestLoop.thisRepN,TestLoop.thisTrialN,TestLoop.thisN,TestLoop.thisIndex,textCondition.started,textCondition.stopped,keyCondition.keys,keyCondition.rt,keyCondition.started,keyCondition.stopped,Condition,textWelcome.started,textWelcome.stopped,keyWelcome.keys,keyWelcome.rt,keyWelcome.started,keyWelcome.stopped,textAloud.started,textAloud.stopped,textSilent.started,textSilent.stopped,textSing.started,textSing.stopped,conditional_text.started,conditional_text.stopped,textBlank500.started,textBlank500.stopped,study_word,study_num,study_order,study_type,word_color,textStudy.started,textStudy.stopped,keyStudy.keys,keyStudy.started,keyStudy.stopped,textTestInstructions.started,textTestInstructions.stopped,key_resp_3.keys,key_resp_3.rt,key_resp_3.started,key_resp_3.stopped,test_word,test_num,test_order,test_condition,old_new_test,test_word_original_color,textConf.started,textConf.stopped,textConfScale.started,textConfScale.stopped,keyConf.keys,keyConf.rt,keyConf.started,keyConf.stopped,confidence response time,textTestBlank.started,textTestBlank.stopped,textRKN.started,textRKN.stopped,textRKNScale.started,textRKNScale.stopped,keyRKN.keys,keyRKN.rt,keyRKN.started,keyRKN.stopped,rkn response time,textEnd.started,textEnd.stopped,participant,session,date,expName,psychopyVersion,frameRate,
,,,,,,,,34.26792399981059,None,b,0.8711656001396477,34.26792399981059,None,,,,,,,,,,,,,,,,,,,,,,,,,,,,,,,,,,,,,,,,,,,,,,,,,,,,,,,,,,,,,,59Aloud,001,2022_Oct_03_1136,ProdSingRedoBetween,2021.2.3,59.90201228137562,
,,,,,,,,,,,,,,AloudTest,35.198660699883476,None,space,274.9557419999037,35.198660699883476,None,,,,,,,,,,,,,,,,,,,,,,,,,,,,,,,,,,,,,,,,,,,,,,,,,,,,,,,59Aloud,001,2022_Oct_03_1136,ProdSingRedoBetween,2021.2.3,59.90201228137562,
0,0,0,0,,,,,,,,,,,,,,,,,,35.198660699883476,None,35.198660699883476,None,35.198660699883476,None,35.198660699883476,None,312.69222589978017,None,direction,13,1,aloud,yellow,310.6857155999169,None,None,310.6857155999169,None,,,,,,,,,,,,,,,,,,,,,,,,,,,,,,,,,,,59Aloud,001,2022_Oct_03_1136,ProdSingRedoBetween,2021.2.3,59.90201228137562,
1,0,1,0,,,,,,,,,,,,,,,,,,,,,,,,,,315.1947225998156,None,graduate,81,2,aloud,red,313.1937548997812,None,None,313.1937548997812,None,,,,,,,,,,,,,,,,,,,,,,,,,,,,,,,,,,,59Aloud,001,2022_Oct_03_1136,ProdSingRedoBetween,2021.2.3,59.90201228137562,
2,0,2,0,,,,,,,,,,,,,,,,,,,,,,,,,,317.6972870999016,None,debate,6,3,aloud,yellow,315.6952259999234,None,None,315.6952259999234,None,,,,,,,,,,,,,,,,,,,,,,,,,,,,,,,,,,,59Aloud,001,2022_Oct_03_1136,ProdSingRedoBetween,2021.2.3,59.90201228137562,
3,0,3,0,,,,,,,,,,,,,,,,,,,,,,,,,,320.2163916998543,None,present,50,4,aloud,blue,318.2014610997867,None,None,318.2014610997867,None,,,,,,,,,,,,,,,,,,,,,,,,,,,,,,,,,,,59Aloud,001,2022_Oct_03_1136,ProdSingRedoBetween,2021.2.3,59.90201228137562,
4,0,4,0,,,,,,,,,,,,,,,,,,,,,,,,,,322.73555379989557,None,capital,76,5,aloud,red,320.72813869989477,None,None,320.72813869989477,None,,,,,,,,,,,,,,,,,,,,,,,,,,,,,,,,,,,59Aloud,001,2022_Oct_03_1136,ProdSingRedoBetween,2021.2.3,59.90201228137562,
5,0,5,0,,,,,,,,,,,,,,,,,,,,,,,,,,325.2381748999469,None,turkey,38,6,aloud,blue,323.2378912998829,None,None,323.2378912998829,None,,,,,,,,,,,,,,,,,,,,,,,,,,,,,,,,,,,59Aloud,001,2022_Oct_03_1136,ProdSingRedoBetween,2021.2.3,59.90201228137562,
6,0,6,0,,,,,,,,,,,,,,,,,,,,,,,,,,327.7573707997799,None,detective,82,7,aloud,red,325.7485456999857,None,None,325.7485456999857,None,,,,,,,,,,,,,,,,,,,,,,,,,,,,,,,,,,,59Aloud,001,2022_Oct_03_1136,ProdSingRedoBetween,2021.2.3,59.90201228137562,
7,0,7,0,,,,,,,,,,,,,,,,,,,,,,,,,,330.2764517997857,None,bucket,72,8,aloud,red,328.2709644997958,None,None,328.2709644997958,None,,,,,,,,,,,,,,,,,,,,,,,,,,,,,,,,,,,59Aloud,001,2022_Oct_03_1136,ProdSingRedoBetween,2021.2.3,59.90201228137562,
8,0,8,0,,,,,,,,,,,,,,,,,,,,,,,,,,332.77890519984066,None,notice,53,9,aloud,blue,330.7769252997823,None,None,330.7769252997823,None,,,,,,,,,,,,,,,,,,,,,,,,,,,,,,,,,,,59Aloud,001,2022_Oct_03_1136,ProdSingRedoBetween,2021.2.3,59.90201228137562,
9,0,9,0,,,,,,,,,,,,,,,,,,,,,,,,,,335.28149359999225,None,raise,39,10,aloud,blue,333.280505299801,None,None,333.280505299801,None,,,,,,,,,,,,,,,,,,,,,,,,,,,,,,,,,,,59Aloud,001,2022_Oct_03_1136,ProdSingRedoBetween,2021.2.3,59.90201228137562,
10,0,10,0,,,,,,,,,,,,,,,,,,,,,,,,,,337.8005708998535,None,prime,49,11,aloud,blue,335.7870689998381,None,None,335.7870689998381,None,,,,,,,,,,,,,,,,,,,,,,,,,,,,,,,,,,,59Aloud,001,2022_Oct_03_1136,ProdSingRedoBetween,2021.2.3,59.90201228137562,
11,0,11,0,,,,,,,,,,,,,,,,,,,,,,,,,,340.31995009980164,None,trend,75,12,aloud,red,338.30656860000454,None,None,338.30656860000454,None,,,,,,,,,,,,,,,,,,,,,,,,,,,,,,,,,,,59Aloud,001,2022_Oct_03_1136,ProdSingRedoBetween,2021.2.3,59.90201228137562,
12,0,12,0,,,,,,,,,,,,,,,,,,,,,,,,,,342.8222083998844,None,goose,15,13,aloud,yellow,340.8217113998253,None,None,340.8217113998253,None,,,,,,,,,,,,,,,,,,,,,,,,,,,,,,,,,,,59Aloud,001,2022_Oct_03_1136,ProdSingRedoBetween,2021.2.3,59.90201228137562,
13,0,13,0,,,,,,,,,,,,,,,,,,,,,,,,,,345.34166989987716,None,travel,77,14,aloud,red,343.3284620998893,None,None,343.3284620998893,None,,,,,,,,,,,,,,,,,,,,,,,,,,,,,,,,,,,59Aloud,001,2022_Oct_03_1136,ProdSingRedoBetween,2021.2.3,59.90201228137562,
14,0,14,0,,,,,,,,,,,,,,,,,,,,,,,,,,347.860663499916,None,place,69,15,aloud,red,345.845264100004,None,None,345.845264100004,None,,,,,,,,,,,,,,,,,,,,,,,,,,,,,,,,,,,59Aloud,001,2022_Oct_03_1136,ProdSingRedoBetween,2021.2.3,59.90201228137562,
15,0,15,0,,,,,,,,,,,,,,,,,,,,,,,,,,350.36315369978547,None,silence,33,16,aloud,blue,348.3617670999374,None,None,348.3617670999374,None,,,,,,,,,,,,,,,,,,,,,,,,,,,,,,,,,,,59Aloud,001,2022_Oct_03_1136,ProdSingRedoBetween,2021.2.3,59.90201228137562,
16,0,16,0,,,,,,,,,,,,,,,,,,,,,,,,,,352.86567149986513,None,degree,78,17,aloud,red,350.86389899998903,None,None,350.86389899998903,None,,,,,,,,,,,,,,,,,,,,,,,,,,,,,,,,,,,59Aloud,001,2022_Oct_03_1136,ProdSingRedoBetween,2021.2.3,59.90201228137562,
17,0,17,0,,,,,,,,,,,,,,,,,,,,,,,,,,355.368166500004,None,figure,80,18,aloud,red,353.36813809978776,None,None,353.36813809978776,None,,,,,,,,,,,,,,,,,,,,,,,,,,,,,,,,,,,59Aloud,001,2022_Oct_03_1136,ProdSingRedoBetween,2021.2.3,59.90201228137562,
18,0,18,0,,,,,,,,,,,,,,,,,,,,,,,,,,357.88735369988717,None,property,73,19,aloud,red,355.88272459991276,None,None,355.88272459991276,None,,,,,,,,,,,,,,,,,,,,,,,,,,,,,,,,,,,59Aloud,001,2022_Oct_03_1136,ProdSingRedoBetween,2021.2.3,59.90201228137562,
19,0,19,0,,,,,,,,,,,,,,,,,,,,,,,,,,360.3899157999549,None,sleep,41,20,aloud,blue,358.3894151998684,None,None,358.3894151998684,None,,,,,,,,,,,,,,,,,,,,,,,,,,,,,,,,,,,59Aloud,001,2022_Oct_03_1136,ProdSingRedoBetween,2021.2.3,59.90201228137562,
20,0,20,0,,,,,,,,,,,,,,,,,,,,,,,,,,362.8924191999249,None,weather,16,21,aloud,yellow,360.89045669999905,None,None,360.89045669999905,None,,,,,,,,,,,,,,,,,,,,,,,,,,,,,,,,,,,59Aloud,001,2022_Oct_03_1136,ProdSingRedoBetween,2021.2.3,59.90201228137562,
21,0,21,0,,,,,,,,,,,,,,,,,,,,,,,,,,365.3947885998059,None,column,60,22,aloud,red,363.3944452998694,None,None,363.3944452998694,None,,,,,,,,,,,,,,,,,,,,,,,,,,,,,,,,,,,59Aloud,001,2022_Oct_03_1136,ProdSingRedoBetween,2021.2.3,59.90201228137562,
22,0,22,0,,,,,,,,,,,,,,,,,,,,,,,,,,367.8973611998372,None,design,65,23,aloud,red,365.8974961999338,None,None,365.8974961999338,None,,,,,,,,,,,,,,,,,,,,,,,,,,,,,,,,,,,59Aloud,001,2022_Oct_03_1136,ProdSingRedoBetween,2021.2.3,59.90201228137562,
23,0,23,0,,,,,,,,,,,,,,,,,,,,,,,,,,370.4165638999548,None,reach,26,24,aloud,yellow,368.4019620998297,None,None,368.4019620998297,None,,,,,,,,,,,,,,,,,,,,,,,,,,,,,,,,,,,59Aloud,001,2022_Oct_03_1136,ProdSingRedoBetween,2021.2.3,59.90201228137562,
24,0,24,0,,,,,,,,,,,,,,,,,,,,,,,,,,372.935651099775,None,brief,56,25,aloud,blue,370.92130129993893,None,None,370.92130129993893,None,,,,,,,,,,,,,,,,,,,,,,,,,,,,,,,,,,,59Aloud,001,2022_Oct_03_1136,ProdSingRedoBetween,2021.2.3,59.90201228137562,
25,0,25,0,,,,,,,,,,,,,,,,,,,,,,,,,,375.4382998999208,None,character,22,26,aloud,yellow,373.4359941999428,None,None,373.4359941999428,None,,,,,,,,,,,,,,,,,,,,,,,,,,,,,,,,,,,59Aloud,001,2022_Oct_03_1136,ProdSingRedoBetween,2021.2.3,59.90201228137562,
26,0,26,0,,,,,,,,,,,,,,,,,,,,,,,,,,377.9573747999966,None,benefit,87,27,aloud,red,375.945370899979,None,None,375.945370899979,None,,,,,,,,,,,,,,,,,,,,,,,,,,,,,,,,,,,59Aloud,001,2022_Oct_03_1136,ProdSingRedoBetween,2021.2.3,59.90201228137562,
27,0,27,0,,,,,,,,,,,,,,,,,,,,,,,,,,380.4765913998708,None,session,54,28,aloud,blue,378.4674730999395,None,None,378.4674730999395,None,,,,,,,,,,,,,,,,,,,,,,,,,,,,,,,,,,,59Aloud,001,2022_Oct_03_1136,ProdSingRedoBetween,2021.2.3,59.90201228137562,
28,0,28,0,,,,,,,,,,,,,,,,,,,,,,,,,,382.9789978999179,None,scale,79,29,aloud,red,380.97803479991853,None,None,380.97803479991853,None,,,,,,,,,,,,,,,,,,,,,,,,,,,,,,,,,,,59Aloud,001,2022_Oct_03_1136,ProdSingRedoBetween,2021.2.3,59.90201228137562,
29,0,29,0,,,,,,,,,,,,,,,,,,,,,,,,,,385.49828389985487,None,mayor,89,30,aloud,red,383.4827930999454,None,None,383.4827930999454,None,,,,,,,,,,,,,,,,,,,,,,,,,,,,,,,,,,,59Aloud,001,2022_Oct_03_1136,ProdSingRedoBetween,2021.2.3,59.90201228137562,
30,0,30,0,,,,,,,,,,,,,,,,,,,,,,,,,,388.01743849995546,None,balance,7,31,aloud,yellow,386.00316069996916,None,None,386.00316069996916,None,,,,,,,,,,,,,,,,,,,,,,,,,,,,,,,,,,,59Aloud,001,2022_Oct_03_1136,ProdSingRedoBetween,2021.2.3,59.90201228137562,
31,0,31,0,,,,,,,,,,,,,,,,,,,,,,,,,,390.5199355999939,None,danger,12,32,aloud,yellow,388.51790389977396,None,None,388.51790389977396,None,,,,,,,,,,,,,,,,,,,,,,,,,,,,,,,,,,,59Aloud,001,2022_Oct_03_1136,ProdSingRedoBetween,2021.2.3,59.90201228137562,
32,0,32,0,,,,,,,,,,,,,,,,,,,,,,,,,,393.0389917998109,None,fight,28,33,aloud,yellow,391.0251429998316,None,None,391.0251429998316,None,,,,,,,,,,,,,,,,,,,,,,,,,,,,,,,,,,,59Aloud,001,2022_Oct_03_1136,ProdSingRedoBetween,2021.2.3,59.90201228137562,
33,0,33,0,,,,,,,,,,,,,,,,,,,,,,,,,,395.5582226999104,None,personnel,36,34,aloud,blue,393.55049779987894,None,None,393.55049779987894,None,,,,,,,,,,,,,,,,,,,,,,,,,,,,,,,,,,,59Aloud,001,2022_Oct_03_1136,ProdSingRedoBetween,2021.2.3,59.90201228137562,
34,0,34,0,,,,,,,,,,,,,,,,,,,,,,,,,,398.0606968998909,None,shape,24,35,aloud,yellow,396.0587372998707,None,None,396.0587372998707,None,,,,,,,,,,,,,,,,,,,,,,,,,,,,,,,,,,,59Aloud,001,2022_Oct_03_1136,ProdSingRedoBetween,2021.2.3,59.90201228137562,
35,0,35,0,,,,,,,,,,,,,,,,,,,,,,,,,,400.5798425998073,None,finance,20,36,aloud,yellow,398.57734299986623,None,None,398.57734299986623,None,,,,,,,,,,,,,,,,,,,,,,,,,,,,,,,,,,,59Aloud,001,2022_Oct_03_1136,ProdSingRedoBetween,2021.2.3,59.90201228137562,
36,0,36,0,,,,,,,,,,,,,,,,,,,,,,,,,,403.0991120999679,None,route,30,37,aloud,blue,401.08918869984336,None,None,401.08918869984336,None,,,,,,,,,,,,,,,,,,,,,,,,,,,,,,,,,,,59Aloud,001,2022_Oct_03_1136,ProdSingRedoBetween,2021.2.3,59.90201228137562,
37,0,37,0,,,,,,,,,,,,,,,,,,,,,,,,,,405.6182233998552,None,appeal,17,38,aloud,yellow,403.6075976998545,None,None,403.6075976998545,None,,,,,,,,,,,,,,,,,,,,,,,,,,,,,,,,,,,59Aloud,001,2022_Oct_03_1136,ProdSingRedoBetween,2021.2.3,59.90201228137562,
38,0,38,0,,,,,,,,,,,,,,,,,,,,,,,,,,408.12076889979653,None,leader,21,39,aloud,yellow,406.11873449990526,None,None,406.11873449990526,None,,,,,,,,,,,,,,,,,,,,,,,,,,,,,,,,,,,59Aloud,001,2022_Oct_03_1136,ProdSingRedoBetween,2021.2.3,59.90201228137562,
39,0,39,0,,,,,,,,,,,,,,,,,,,,,,,,,,410.63990319985896,None,relation,25,40,aloud,yellow,408.62472199997865,None,None,408.62472199997865,None,,,,,,,,,,,,,,,,,,,,,,,,,,,,,,,,,,,59Aloud,001,2022_Oct_03_1136,ProdSingRedoBetween,2021.2.3,59.90201228137562,
40,0,40,0,,,,,,,,,,,,,,,,,,,,,,,,,,413.1422861998435,None,escape,31,41,aloud,blue,411.1407684998121,None,None,411.1407684998121,None,,,,,,,,,,,,,,,,,,,,,,,,,,,,,,,,,,,59Aloud,001,2022_Oct_03_1136,ProdSingRedoBetween,2021.2.3,59.90201228137562,
41,0,41,0,,,,,,,,,,,,,,,,,,,,,,,,,,415.64500559982844,None,frank,46,42,aloud,blue,413.6454493999481,None,None,413.6454493999481,None,,,,,,,,,,,,,,,,,,,,,,,,,,,,,,,,,,,59Aloud,001,2022_Oct_03_1136,ProdSingRedoBetween,2021.2.3,59.90201228137562,
42,0,42,0,,,,,,,,,,,,,,,,,,,,,,,,,,418.1474490999244,None,author,88,43,aloud,red,416.145410399884,None,None,416.145410399884,None,,,,,,,,,,,,,,,,,,,,,,,,,,,,,,,,,,,59Aloud,001,2022_Oct_03_1136,ProdSingRedoBetween,2021.2.3,59.90201228137562,
43,0,43,0,,,,,,,,,,,,,,,,,,,,,,,,,,420.649846999906,None,reading,68,44,aloud,red,418.6479005999863,None,None,418.6479005999863,None,,,,,,,,,,,,,,,,,,,,,,,,,,,,,,,,,,,59Aloud,001,2022_Oct_03_1136,ProdSingRedoBetween,2021.2.3,59.90201228137562,
44,0,44,0,,,,,,,,,,,,,,,,,,,,,,,,,,423.15239449986257,None,broke,19,45,aloud,yellow,421.1510052999947,None,None,421.1510052999947,None,,,,,,,,,,,,,,,,,,,,,,,,,,,,,,,,,,,59Aloud,001,2022_Oct_03_1136,ProdSingRedoBetween,2021.2.3,59.90201228137562,
45,0,45,0,,,,,,,,,,,,,,,,,,,,,,,,,,425.6549265999347,None,budget,5,46,aloud,yellow,423.6529555998277,None,None,423.6529555998277,None,,,,,,,,,,,,,,,,,,,,,,,,,,,,,,,,,,,59Aloud,001,2022_Oct_03_1136,ProdSingRedoBetween,2021.2.3,59.90201228137562,
46,0,46,0,,,,,,,,,,,,,,,,,,,,,,,,,,428.15738669992425,None,curve,52,47,aloud,blue,426.1552980998531,None,None,426.1552980998531,None,,,,,,,,,,,,,,,,,,,,,,,,,,,,,,,,,,,59Aloud,001,2022_Oct_03_1136,ProdSingRedoBetween,2021.2.3,59.90201228137562,
47,0,47,0,,,,,,,,,,,,,,,,,,,,,,,,,,430.6596032998059,None,waste,83,48,aloud,red,428.6577062997967,None,None,428.6577062997967,None,,,,,,,,,,,,,,,,,,,,,,,,,,,,,,,,,,,59Aloud,001,2022_Oct_03_1136,ProdSingRedoBetween,2021.2.3,59.90201228137562,
48,0,48,0,,,,,,,,,,,,,,,,,,,,,,,,,,433.16247149999253,None,measure,86,49,aloud,red,431.1603639998939,None,None,431.1603639998939,None,,,,,,,,,,,,,,,,,,,,,,,,,,,,,,,,,,,59Aloud,001,2022_Oct_03_1136,ProdSingRedoBetween,2021.2.3,59.90201228137562,
49,0,49,0,,,,,,,,,,,,,,,,,,,,,,,,,,435.6648499998264,None,school,40,50,aloud,blue,433.6630461998284,None,None,433.6630461998284,None,,,,,,,,,,,,,,,,,,,,,,,,,,,,,,,,,,,59Aloud,001,2022_Oct_03_1136,ProdSingRedoBetween,2021.2.3,59.90201228137562,
50,0,50,0,,,,,,,,,,,,,,,,,,,,,,,,,,438.18404919980094,None,audience,37,51,aloud,blue,436.1759441997856,None,None,436.1759441997856,None,,,,,,,,,,,,,,,,,,,,,,,,,,,,,,,,,,,59Aloud,001,2022_Oct_03_1136,ProdSingRedoBetween,2021.2.3,59.90201228137562,
51,0,51,0,,,,,,,,,,,,,,,,,,,,,,,,,,440.7034433998633,None,primary,47,52,aloud,blue,438.69590169982985,None,None,438.69590169982985,None,,,,,,,,,,,,,,,,,,,,,,,,,,,,,,,,,,,59Aloud,001,2022_Oct_03_1136,ProdSingRedoBetween,2021.2.3,59.90201228137562,
52,0,52,0,,,,,,,,,,,,,,,,,,,,,,,,,,443.20570479985327,None,stand,45,53,aloud,blue,441.20517369988374,None,None,441.20517369988374,None,,,,,,,,,,,,,,,,,,,,,,,,,,,,,,,,,,,59Aloud,001,2022_Oct_03_1136,ProdSingRedoBetween,2021.2.3,59.90201228137562,
53,0,53,0,,,,,,,,,,,,,,,,,,,,,,,,,,445.7248843999114,None,quick,67,54,aloud,red,443.7124393999111,None,None,443.7124393999111,None,,,,,,,,,,,,,,,,,,,,,,,,,,,,,,,,,,,59Aloud,001,2022_Oct_03_1136,ProdSingRedoBetween,2021.2.3,59.90201228137562,
54,0,54,0,,,,,,,,,,,,,,,,,,,,,,,,,,448.2438280999195,None,display,1,55,aloud,yellow,446.2296092999168,None,None,446.2296092999168,None,,,,,,,,,,,,,,,,,,,,,,,,,,,,,,,,,,,59Aloud,001,2022_Oct_03_1136,ProdSingRedoBetween,2021.2.3,59.90201228137562,
55,0,55,0,,,,,,,,,,,,,,,,,,,,,,,,,,450.7470408999361,None,engineer,29,56,aloud,blue,448.74455760000274,None,None,448.74455760000274,None,,,,,,,,,,,,,,,,,,,,,,,,,,,,,,,,,,,59Aloud,001,2022_Oct_03_1136,ProdSingRedoBetween,2021.2.3,59.90201228137562,
56,0,56,0,,,,,,,,,,,,,,,,,,,,,,,,,,453.26574749988504,None,meeting,10,57,aloud,yellow,451.2518668998964,None,None,451.2518668998964,None,,,,,,,,,,,,,,,,,,,,,,,,,,,,,,,,,,,59Aloud,001,2022_Oct_03_1136,ProdSingRedoBetween,2021.2.3,59.90201228137562,
57,0,57,0,,,,,,,,,,,,,,,,,,,,,,,,,,455.7683857998345,None,error,48,58,aloud,blue,453.7674788997974,None,None,453.7674788997974,None,,,,,,,,,,,,,,,,,,,,,,,,,,,,,,,,,,,59Aloud,001,2022_Oct_03_1136,ProdSingRedoBetween,2021.2.3,59.90201228137562,
58,0,58,0,,,,,,,,,,,,,,,,,,,,,,,,,,458.2707300998736,None,drama,34,59,aloud,blue,456.2690457999706,None,None,456.2690457999706,None,,,,,,,,,,,,,,,,,,,,,,,,,,,,,,,,,,,59Aloud,001,2022_Oct_03_1136,ProdSingRedoBetween,2021.2.3,59.90201228137562,
59,0,59,0,,,,,,,,,,,,,,,,,,,,,,,,,,460.77328909980133,None,religion,71,60,aloud,red,458.77195460000075,None,None,458.77195460000075,None,,,,,,,,,,,,,,,,,,,,,,,,,,,,,,,,,,,59Aloud,001,2022_Oct_03_1136,ProdSingRedoBetween,2021.2.3,59.90201228137562,
60,0,60,0,,,,,,,,,,,,,,,,,,,,,,,,,,463.2757395999506,None,force,35,61,aloud,blue,461.2736016998533,None,None,461.2736016998533,None,,,,,,,,,,,,,,,,,,,,,,,,,,,,,,,,,,,59Aloud,001,2022_Oct_03_1136,ProdSingRedoBetween,2021.2.3,59.90201228137562,
61,0,61,0,,,,,,,,,,,,,,,,,,,,,,,,,,465.7782015998382,None,season,62,62,aloud,red,463.7776002997998,None,None,463.7776002997998,None,,,,,,,,,,,,,,,,,,,,,,,,,,,,,,,,,,,59Aloud,001,2022_Oct_03_1136,ProdSingRedoBetween,2021.2.3,59.90201228137562,
62,0,62,0,,,,,,,,,,,,,,,,,,,,,,,,,,468.28070859983563,None,match,70,63,aloud,red,466.27875729999505,None,None,466.27875729999505,None,,,,,,,,,,,,,,,,,,,,,,,,,,,,,,,,,,,59Aloud,001,2022_Oct_03_1136,ProdSingRedoBetween,2021.2.3,59.90201228137562,
63,0,63,0,,,,,,,,,,,,,,,,,,,,,,,,,,470.800010799896,None,harmony,55,64,aloud,blue,468.78528059995733,None,None,468.78528059995733,None,,,,,,,,,,,,,,,,,,,,,,,,,,,,,,,,,,,59Aloud,001,2022_Oct_03_1136,ProdSingRedoBetween,2021.2.3,59.90201228137562,
64,0,64,0,,,,,,,,,,,,,,,,,,,,,,,,,,473.3189859997947,None,bureau,4,65,aloud,yellow,471.303747799946,None,None,471.303747799946,None,,,,,,,,,,,,,,,,,,,,,,,,,,,,,,,,,,,59Aloud,001,2022_Oct_03_1136,ProdSingRedoBetween,2021.2.3,59.90201228137562,
65,0,65,0,,,,,,,,,,,,,,,,,,,,,,,,,,475.8215170998592,None,enemy,84,66,aloud,red,473.81957809999585,None,None,473.81957809999585,None,,,,,,,,,,,,,,,,,,,,,,,,,,,,,,,,,,,59Aloud,001,2022_Oct_03_1136,ProdSingRedoBetween,2021.2.3,59.90201228137562,
66,0,66,0,,,,,,,,,,,,,,,,,,,,,,,,,,478.3409292998258,None,blind,11,67,aloud,yellow,476.3300506998785,None,None,476.3300506998785,None,,,,,,,,,,,,,,,,,,,,,,,,,,,,,,,,,,,59Aloud,001,2022_Oct_03_1136,ProdSingRedoBetween,2021.2.3,59.90201228137562,
67,0,67,0,,,,,,,,,,,,,,,,,,,,,,,,,,480.86000019987114,None,population,9,68,aloud,yellow,478.8478814999107,None,None,478.8478814999107,None,,,,,,,,,,,,,,,,,,,,,,,,,,,,,,,,,,,59Aloud,001,2022_Oct_03_1136,ProdSingRedoBetween,2021.2.3,59.90201228137562,
68,0,68,0,,,,,,,,,,,,,,,,,,,,,,,,,,483.3625887997914,None,republic,58,69,aloud,blue,481.3602959997952,None,None,481.3602959997952,None,,,,,,,,,,,,,,,,,,,,,,,,,,,,,,,,,,,59Aloud,001,2022_Oct_03_1136,ProdSingRedoBetween,2021.2.3,59.90201228137562,
69,0,69,0,,,,,,,,,,,,,,,,,,,,,,,,,,485.88160639978014,None,state,42,70,aloud,blue,483.86756199994124,None,None,483.86756199994124,None,,,,,,,,,,,,,,,,,,,,,,,,,,,,,,,,,,,59Aloud,001,2022_Oct_03_1136,ProdSingRedoBetween,2021.2.3,59.90201228137562,
70,0,70,0,,,,,,,,,,,,,,,,,,,,,,,,,,488.3840933998581,None,tough,18,71,aloud,yellow,486.382140699774,None,None,486.382140699774,None,,,,,,,,,,,,,,,,,,,,,,,,,,,,,,,,,,,59Aloud,001,2022_Oct_03_1136,ProdSingRedoBetween,2021.2.3,59.90201228137562,
71,0,71,0,,,,,,,,,,,,,,,,,,,,,,,,,,490.8865755998995,None,service,74,72,aloud,red,488.8868847999256,None,None,488.8868847999256,None,,,,,,,,,,,,,,,,,,,,,,,,,,,,,,,,,,,59Aloud,001,2022_Oct_03_1136,ProdSingRedoBetween,2021.2.3,59.90201228137562,
72,0,72,0,,,,,,,,,,,,,,,,,,,,,,,,,,493.3890693997964,None,corner,23,73,aloud,yellow,491.38711829995736,None,None,491.38711829995736,None,,,,,,,,,,,,,,,,,,,,,,,,,,,,,,,,,,,59Aloud,001,2022_Oct_03_1136,ProdSingRedoBetween,2021.2.3,59.90201228137562,
73,0,73,0,,,,,,,,,,,,,,,,,,,,,,,,,,495.8916869999375,None,comfort,0,74,aloud,yellow,493.890258600004,None,None,493.890258600004,None,,,,,,,,,,,,,,,,,,,,,,,,,,,,,,,,,,,59Aloud,001,2022_Oct_03_1136,ProdSingRedoBetween,2021.2.3,59.90201228137562,
74,0,74,0,,,,,,,,,,,,,,,,,,,,,,,,,,498.3942286998499,None,worker,64,75,aloud,red,496.39399529993534,None,None,496.39399529993534,None,,,,,,,,,,,,,,,,,,,,,,,,,,,,,,,,,,,59Aloud,001,2022_Oct_03_1136,ProdSingRedoBetween,2021.2.3,59.90201228137562,
75,0,75,0,,,,,,,,,,,,,,,,,,,,,,,,,,500.9132434998173,None,surprise,85,76,aloud,red,498.8977051998954,None,None,498.8977051998954,None,,,,,,,,,,,,,,,,,,,,,,,,,,,,,,,,,,,59Aloud,001,2022_Oct_03_1136,ProdSingRedoBetween,2021.2.3,59.90201228137562,
76,0,76,0,,,,,,,,,,,,,,,,,,,,,,,,,,503.415818199981,None,listen,51,77,aloud,blue,501.413778899936,None,None,501.413778899936,None,,,,,,,,,,,,,,,,,,,,,,,,,,,,,,,,,,,59Aloud,001,2022_Oct_03_1136,ProdSingRedoBetween,2021.2.3,59.90201228137562,
77,0,77,0,,,,,,,,,,,,,,,,,,,,,,,,,,505.9183418999892,None,union,3,78,aloud,yellow,503.9182092999108,None,None,503.9182092999108,None,,,,,,,,,,,,,,,,,,,,,,,,,,,,,,,,,,,59Aloud,001,2022_Oct_03_1136,ProdSingRedoBetween,2021.2.3,59.90201228137562,
78,0,78,0,,,,,,,,,,,,,,,,,,,,,,,,,,508.4207597998902,None,count,59,79,aloud,yellow,506.41992139979266,None,None,506.41992139979266,None,,,,,,,,,,,,,,,,,,,,,,,,,,,,,,,,,,,59Aloud,001,2022_Oct_03_1136,ProdSingRedoBetween,2021.2.3,59.90201228137562,
79,0,79,0,,,,,,,,,,,,,,,,,,,,,,,,,,510.92305199988186,None,solution,43,80,aloud,blue,508.92276509990916,None,None,508.92276509990916,None,,,,,,,,,,,,,,,,,,,,,,,,,,,,,,,,,,,59Aloud,001,2022_Oct_03_1136,ProdSingRedoBetween,2021.2.3,59.90201228137562,
80,0,80,0,,,,,,,,,,,,,,,,,,,,,,,,,,513.4257890998852,None,exchange,8,81,aloud,yellow,511.4246215999592,None,None,511.4246215999592,None,,,,,,,,,,,,,,,,,,,,,,,,,,,,,,,,,,,59Aloud,001,2022_Oct_03_1136,ProdSingRedoBetween,2021.2.3,59.90201228137562,
81,0,81,0,,,,,,,,,,,,,,,,,,,,,,,,,,515.9282633999828,None,color,61,82,aloud,red,513.9262399999425,None,None,513.9262399999425,None,,,,,,,,,,,,,,,,,,,,,,,,,,,,,,,,,,,59Aloud,001,2022_Oct_03_1136,ProdSingRedoBetween,2021.2.3,59.90201228137562,
82,0,82,0,,,,,,,,,,,,,,,,,,,,,,,,,,518.4307715999894,None,scene,63,83,aloud,red,516.4309172998182,None,None,516.4309172998182,None,,,,,,,,,,,,,,,,,,,,,,,,,,,,,,,,,,,59Aloud,001,2022_Oct_03_1136,ProdSingRedoBetween,2021.2.3,59.90201228137562,
83,0,83,0,,,,,,,,,,,,,,,,,,,,,,,,,,520.9331768997945,None,general,57,84,aloud,blue,518.9312271999661,None,None,518.9312271999661,None,,,,,,,,,,,,,,,,,,,,,,,,,,,,,,,,,,,59Aloud,001,2022_Oct_03_1136,ProdSingRedoBetween,2021.2.3,59.90201228137562,
84,0,84,0,,,,,,,,,,,,,,,,,,,,,,,,,,523.4524452998303,None,marriage,32,85,aloud,blue,521.4428458998445,None,None,521.4428458998445,None,,,,,,,,,,,,,,,,,,,,,,,,,,,,,,,,,,,59Aloud,001,2022_Oct_03_1136,ProdSingRedoBetween,2021.2.3,59.90201228137562,
85,0,85,0,,,,,,,,,,,,,,,,,,,,,,,,,,525.954931399785,None,contract,14,86,aloud,yellow,523.9529016998131,None,None,523.9529016998131,None,,,,,,,,,,,,,,,,,,,,,,,,,,,,,,,,,,,59Aloud,001,2022_Oct_03_1136,ProdSingRedoBetween,2021.2.3,59.90201228137562,
86,0,86,0,,,,,,,,,,,,,,,,,,,,,,,,,,528.4573656998109,None,broad,2,87,aloud,yellow,526.4573628997896,None,None,526.4573628997896,None,,,,,,,,,,,,,,,,,,,,,,,,,,,,,,,,,,,59Aloud,001,2022_Oct_03_1136,ProdSingRedoBetween,2021.2.3,59.90201228137562,
87,0,87,0,,,,,,,,,,,,,,,,,,,,,,,,,,530.9599005999044,None,length,27,88,aloud,yellow,528.9577032998204,None,None,528.9577032998204,None,,,,,,,,,,,,,,,,,,,,,,,,,,,,,,,,,,,59Aloud,001,2022_Oct_03_1136,ProdSingRedoBetween,2021.2.3,59.90201228137562,
88,0,88,0,,,,,,,,,,,,,,,,,,,,,,,,,,533.4624069998972,None,victory,44,89,aloud,blue,531.4623898998834,None,None,531.4623898998834,None,,,,,,,,,,,,,,,,,,,,,,,,,,,,,,,,,,,59Aloud,001,2022_Oct_03_1136,ProdSingRedoBetween,2021.2.3,59.90201228137562,
89,0,89,0,,,,,,,,,,,,,,,,,,,,,,,,,,535.9816156998277,None,threat,66,90,aloud,red,533.9661863998044,None,None,533.9661863998044,None,,,,,,,,,,,,,,,,,,,,,,,,,,,,,,,,,,,59Aloud,001,2022_Oct_03_1136,ProdSingRedoBetween,2021.2.3,59.90201228137562,
,,,,,,,,,,,,,,,,,,,,,,,,,,,,,,,,,,,,,,,,,536.4823918999173,None,k,111.75946029997431,536.4823918999173,None,,,,,,,,,,,,,,,,,,,,,,,,,,,,,59Aloud,001,2022_Oct_03_1136,ProdSingRedoBetween,2021.2.3,59.90201228137562,
,,,,0,0,0,0,,,,,,,,,,,,,,,,,,,,,,690.7526321997866,None,,,,,,,,,,,,,,,,,device,146,1,aloud,new,null,648.7764880999457,None,648.7764880999457,None,2,16.43317599990405,648.7764880999457,None,16.43317599990405,665.2291502999142,None,665.7444041999988,None,665.7444041999988,None,n,24.985451800050214,665.7444041999988,None,24.985451800050214,,,59Aloud,001,2022_Oct_03_1136,ProdSingRedoBetween,2021.2.3,59.90201228137562,
,,,,1,0,1,0,,,,,,,,,,,,,,,,,,,,,,699.7814966998994,None,,,,,,,,,,,,,,,,,dream,121,2,aloud,new,null,691.2636410999112,None,691.2636410999112,None,1,7.0660850999411196,691.2636410999112,None,7.0660850999411196,698.3617281999905,None,698.8642920998391,None,698.8642920998391,None,n,0.8894301000982523,698.8642920998391,None,0.8894301000982523,,,59Aloud,001,2022_Oct_03_1136,ProdSingRedoBetween,2021.2.3,59.90201228137562,
,,,,2,0,2,0,,,,,,,,,,,,,,,,,,,,,,716.7123642999213,None,,,,,,,,,,,,,,,,,debate,6,3,aloud,old,yellow,700.2976609999314,None,700.2976609999314,None,5,7.128008199855685,700.2976609999314,None,7.128008199855685,707.45248109987,None,707.9532325000037,None,707.9532325000037,None,r,8.728425099980086,707.9532325000037,None,8.728425099980086,,,59Aloud,001,2022_Oct_03_1136,ProdSingRedoBetween,2021.2.3,59.90201228137562,
,,,,3,0,3,0,,,,,,,,,,,,,,,,,,,,,,723.8522392997984,None,,,,,,,,,,,,,,,,,marriage,32,4,aloud,old,blue,717.2132276999764,None,717.2132276999764,None,5,4.260431000031531,717.2132276999764,None,4.260431000031531,721.5008836998604,None,722.0027149999514,None,722.0027149999514,None,r,1.8229548998642713,722.0027149999514,None,1.8229548998642713,,,59Aloud,001,2022_Oct_03_1136,ProdSingRedoBetween,2021.2.3,59.90201228137562,
,,,,4,0,4,0,,,,,,,,,,,,,,,,,,,,,,727.622797699878,None,,,,,,,,,,,,,,,,,pancakes,131,5,aloud,new,null,724.3547307997942,None,724.3547307997942,None,1,1.6629953999072313,724.3547307997942,None,1.6629953999072313,726.0412831997965,None,726.5550777998287,None,726.5550777998287,None,n,1.0387589999008924,726.5550777998287,None,1.0387589999008924,,,59Aloud,001,2022_Oct_03_1136,ProdSingRedoBetween,2021.2.3,59.90201228137562,
,,,,5,0,5,0,,,,,,,,,,,,,,,,,,,,,,737.9830803999212,None,,,,,,,,,,,,,,,,,citizen,125,6,aloud,new,null,728.1334814999718,None,728.1334814999718,None,3,7.612325399881229,728.1334814999718,None,7.612325399881229,735.7753304999787,None,736.284259099979,None,736.284259099979,None,f,1.6774125001393259,736.284259099979,None,1.6774125001393259,,,59Aloud,001,2022_Oct_03_1136,ProdSingRedoBetween,2021.2.3,59.90201228137562,
,,,,6,0,6,0,,,,,,,,,,,,,,,,,,,,,,744.5239575000014,None,,,,,,,,,,,,,,,,,judge,97,7,aloud,new,null,738.495404599933,None,738.495404599933,None,2,4.234447799855843,738.495404599933,None,4.234447799855843,742.7543375999667,None,743.257299499819,None,743.257299499819,None,n,1.2404896998777986,743.257299499819,None,1.2404896998777986,,,59Aloud,001,2022_Oct_03_1136,ProdSingRedoBetween,2021.2.3,59.90201228137562,
,,,,7,0,7,0,,,,,,,,,,,,,,,,,,,,,,752.3307477999479,None,,,,,,,,,,,,,,,,,concern,120,8,aloud,new,null,745.036712099798,None,745.036712099798,None,3,5.613102100091055,745.036712099798,None,5.613102100091055,750.6862831998151,None,751.1963358998764,None,751.1963358998764,None,f,1.109340300085023,751.1963358998764,None,1.109340300085023,,,59Aloud,001,2022_Oct_03_1136,ProdSingRedoBetween,2021.2.3,59.90201228137562,
,,,,8,0,8,0,,,,,,,,,,,,,,,,,,,,,,761.1395876999013,None,,,,,,,,,,,,,,,,,audience,37,9,aloud,old,blue,752.8397567998618,None,752.8397567998618,None,6,4.817912500118837,752.8397567998618,None,4.817912500118837,757.686553399777,None,758.1916556998622,None,758.1916556998622,None,r,2.9220700999721885,758.1916556998622,None,2.9220700999721885,,,59Aloud,001,2022_Oct_03_1136,ProdSingRedoBetween,2021.2.3,59.90201228137562,
,,,,9,0,9,0,,,,,,,,,,,,,,,,,,,,,,765.5602237998974,None,,,,,,,,,,,,,,,,,throw,106,10,aloud,new,null,761.6441450999118,None,761.6441450999118,None,2,2.357459799852222,761.6441450999118,None,2.357459799852222,764.0256522998679,None,764.5316194999032,None,764.5316194999032,None,n,0.9980181001592427,764.5316194999032,None,0.9980181001592427,,,59Aloud,001,2022_Oct_03_1136,ProdSingRedoBetween,2021.2.3,59.90201228137562,
,,,,10,0,10,0,,,,,,,,,,,,,,,,,,,,,,768.363274899777,None,,,,,,,,,,,,,,,,,sweet,167,11,aloud,new,null,766.0675922997762,None,766.0675922997762,None,1,1.1580093000084162,766.0675922997762,None,1.1580093000084162,767.2487538999412,None,767.7651116999332,None,767.7651116999332,None,n,0.580454200040549,767.7651116999332,None,0.580454200040549,,,59Aloud,001,2022_Oct_03_1136,ProdSingRedoBetween,2021.2.3,59.90201228137562,
,,,,11,0,11,0,,,,,,,,,,,,,,,,,,,,,,771.6165277999826,None,,,,,,,,,,,,,,,,,ground,117,12,aloud,new,null,768.8732641998213,None,768.8732641998213,None,2,1.6723510001320392,768.8732641998213,None,1.6723510001320392,770.565346899908,None,771.0693151999731,None,771.0693151999731,None,n,0.5323287998326123,771.0693151999731,None,0.5323287998326123,,,59Aloud,001,2022_Oct_03_1136,ProdSingRedoBetween,2021.2.3,59.90201228137562,
,,,,12,0,12,0,,,,,,,,,,,,,,,,,,,,,,777.6759418998845,None,,,,,,,,,,,,,,,,,stand,45,13,aloud,old,blue,772.1169776997995,None,772.1169776997995,None,5,3.092606500023976,772.1169776997995,None,3.092606500023976,775.2378316998947,None,775.7403967999853,None,775.7403967999853,None,f,1.9014715999364853,775.7403967999853,None,1.9014715999364853,,,59Aloud,001,2022_Oct_03_1136,ProdSingRedoBetween,2021.2.3,59.90201228137562,
,,,,13,0,13,0,,,,,,,,,,,,,,,,,,,,,,783.5152945998125,None,,,,,,,,,,,,,,,,,employment,116,14,aloud,new,null,778.189966699807,None,778.189966699807,None,3,2.4916534000076354,778.189966699807,None,2.4916534000076354,780.7132219998166,None,781.2302890999708,None,781.2302890999708,None,f,2.251605700002983,781.2302890999708,None,2.251605700002983,,,59Aloud,001,2022_Oct_03_1136,ProdSingRedoBetween,2021.2.3,59.90201228137562,
,,,,14,0,14,0,,,,,,,,,,,,,,,,,,,,,,786.7148924998473,None,,,,,,,,,,,,,,,,,frank,46,15,aloud,old,blue,784.0342298999894,None,784.0342298999894,None,2,1.7673803998623043,784.0342298999894,None,1.7673803998623043,785.8319866999518,None,786.331115399953,None,786.331115399953,None,n,0.3583955999929458,786.331115399953,None,0.3583955999929458,,,59Aloud,001,2022_Oct_03_1136,ProdSingRedoBetween,2021.2.3,59.90201228137562,
,,,,15,0,15,0,,,,,,,,,,,,,,,,,,,,,,792.2035593998153,None,,,,,,,,,,,,,,,,,master,109,16,aloud,new,null,787.2196779998485,None,787.2196779998485,None,3,3.309931500116363,787.2196779998485,None,3.309931500116363,790.5551518998109,None,791.0717709998135,None,791.0717709998135,None,f,1.1139273000881076,791.0717709998135,None,1.1139273000881076,,,59Aloud,001,2022_Oct_03_1136,ProdSingRedoBetween,2021.2.3,59.90201228137562,
,,,,16,0,16,0,,,,,,,,,,,,,,,,,,,,,,797.1254204998259,None,,,,,,,,,,,,,,,,,enemy,84,17,aloud,old,red,792.7126007999759,None,792.7126007999759,None,2,3.5369816001039,792.7126007999759,None,3.5369816001039,796.2776175998151,None,796.7917495998554,None,796.7917495998554,None,n,0.30575860012322664,796.7917495998554,None,0.30575860012322664,,,59Aloud,001,2022_Oct_03_1136,ProdSingRedoBetween,2021.2.3,59.90201228137562,
,,,,17,0,17,0,,,,,,,,,,,,,,,,,,,,,,801.8967447998002,None,,,,,,,,,,,,,,,,,revolution,171,18,aloud,new,null,797.6339420999866,None,797.6339420999866,None,3,2.247624399838969,797.6339420999866,None,2.247624399838969,799.913152199937,None,800.4287151999306,None,800.4287151999306,None,f,1.4527368999551982,800.4287151999306,None,1.4527368999551982,,,59Aloud,001,2022_Oct_03_1136,ProdSingRedoBetween,2021.2.3,59.90201228137562,
,,,,18,0,18,0,,,,,,,,,,,,,,,,,,,,,,808.570111299865,None,,,,,,,,,,,,,,,,,treatment,128,19,aloud,new,null,802.3991532998625,None,802.3991532998625,None,3,4.802392699988559,802.3991532998625,None,4.802392699988559,807.2220090997871,None,807.7359972998966,None,807.7359972998966,None,f,0.8175477001350373,807.7359972998966,None,0.8175477001350373,,,59Aloud,001,2022_Oct_03_1136,ProdSingRedoBetween,2021.2.3,59.90201228137562,
,,,,19,0,19,0,,,,,,,,,,,,,,,,,,,,,,816.8784278999083,None,,,,,,,,,,,,,,,,,goose,15,20,aloud,old,yellow,809.0789997999091,None,809.0789997999091,None,6,4.922606499865651,809.0789997999091,None,4.922606499865651,814.035108699929,None,814.5469759998377,None,814.5469759998377,None,r,2.3105671999510378,814.5469759998377,None,2.3105671999510378,,,59Aloud,001,2022_Oct_03_1136,ProdSingRedoBetween,2021.2.3,59.90201228137562,
,,,,20,0,20,0,,,,,,,,,,,,,,,,,,,,,,822.884337999858,None,,,,,,,,,,,,,,,,,design,65,21,aloud,old,red,817.3941869998816,None,817.3941869998816,None,6,3.831308900145814,817.3941869998816,None,3.831308900145814,821.2506067999639,None,821.7531196000054,None,821.7531196000054,None,r,1.1043833000585437,821.7531196000054,None,1.1043833000585437,,,59Aloud,001,2022_Oct_03_1136,ProdSingRedoBetween,2021.2.3,59.90201228137562,
,,,,21,0,21,0,,,,,,,,,,,,,,,,,,,,,,828.2898011999205,None,,,,,,,,,,,,,,,,,count,59,22,aloud,old,yellow,823.3850908998866,None,823.3850908998866,None,6,1.4884484999347478,823.3850908998866,None,1.4884484999347478,824.905435099965,None,825.4203214999288,None,825.4203214999288,None,r,2.8532602000050247,825.4203214999288,None,2.8532602000050247,,,59Aloud,001,2022_Oct_03_1136,ProdSingRedoBetween,2021.2.3,59.90201228137562,
,,,,22,0,22,0,,,,,,,,,,,,,,,,,,,,,,834.7960113999434,None,,,,,,,,,,,,,,,,,color,61,23,aloud,old,red,828.7917389997747,None,828.7917389997747,None,3,3.8177470001392066,828.7917389997747,None,3.8177470001392066,832.6297890997957,None,833.144595899852,None,833.144595899852,None,n,1.6249687999952585,833.144595899852,None,1.6249687999952585,,,59Aloud,001,2022_Oct_03_1136,ProdSingRedoBetween,2021.2.3,59.90201228137562,
,,,,23,0,23,0,,,,,,,,,,,,,,,,,,,,,,839.9558362998068,None,,,,,,,,,,,,,,,,,bureau,4,24,aloud,old,yellow,835.2997786998749,None,835.2997786998749,None,6,2.1258109000045806,835.2997786998749,None,2.1258109000045806,837.4558470000047,None,837.9700313999783,None,837.9700313999783,None,r,1.9517465999815613,837.9700313999783,None,1.9517465999815613,,,59Aloud,001,2022_Oct_03_1136,ProdSingRedoBetween,2021.2.3,59.90201228137562,
,,,,24,0,24,0,,,,,,,,,,,,,,,,,,,,,,846.1616981998086,None,,,,,,,,,,,,,,,,,tough,18,25,aloud,old,yellow,840.4777796999551,None,840.4777796999551,None,4,3.7237817998975515,840.4777796999551,None,3.7237817998975515,844.228011299856,None,844.739594399929,None,844.739594399929,None,f,1.3980465999338776,844.739594399929,None,1.3980465999338776,,,59Aloud,001,2022_Oct_03_1136,ProdSingRedoBetween,2021.2.3,59.90201228137562,
,,,,25,0,25,0,,,,,,,,,,,,,,,,,,,,,,850.0946618998423,None,,,,,,,,,,,,,,,,,quick,67,26,aloud,old,red,846.6774351999629,None,846.6774351999629,None,2,2.164134600199759,846.6774351999629,None,2.164134600199759,848.8602694999427,None,849.3654237999581,None,849.3654237999581,None,f,0.707941300002858,849.3654237999581,None,0.707941300002858,,,59Aloud,001,2022_Oct_03_1136,ProdSingRedoBetween,2021.2.3,59.90201228137562,
,,,,26,0,26,0,,,,,,,,,,,,,,,,,,,,,,854.0485594999045,None,,,,,,,,,,,,,,,,,number,159,27,aloud,new,null,850.6104488999117,None,850.6104488999117,None,2,2.1589645999483764,850.6104488999117,None,2.1589645999483764,852.7975012999959,None,853.3023402998224,None,853.3023402998224,None,n,0.7231108001433313,853.3023402998224,None,0.7231108001433313,,,59Aloud,001,2022_Oct_03_1136,ProdSingRedoBetween,2021.2.3,59.90201228137562,
,,,,27,0,27,0,,,,,,,,,,,,,,,,,,,,,,858.0360653998796,None,,,,,,,,,,,,,,,,,error,48,28,aloud,old,blue,854.5580209000036,None,854.5580209000036,None,2,2.259430899983272,854.5580209000036,None,2.259430899983272,856.835563399829,None,857.3354580998421,None,857.3354580998421,None,n,0.6740191001445055,857.3354580998421,None,0.6740191001445055,,,59Aloud,001,2022_Oct_03_1136,ProdSingRedoBetween,2021.2.3,59.90201228137562,
,,,,28,0,28,0,,,,,,,,,,,,,,,,,,,,,,860.8888802998699,None,,,,,,,,,,,,,,,,,instrument,143,29,aloud,new,null,858.5564349999186,None,858.5564349999186,None,2,1.4129761001095176,858.5564349999186,None,1.4129761001095176,859.9892937999684,None,860.4952206998132,None,860.4952206998132,None,n,0.3703036999795586,860.4952206998132,None,0.3703036999795586,,,59Aloud,001,2022_Oct_03_1136,ProdSingRedoBetween,2021.2.3,59.90201228137562,
,,,,29,0,29,0,,,,,,,,,,,,,,,,,,,,,,864.2923190000001,None,,,,,,,,,,,,,,,,,character,22,30,aloud,old,yellow,861.4012341999914,None,861.4012341999914,None,6,1.8961235999595374,861.4012341999914,None,1.8961235999595374,863.3252337998711,None,863.8273087998386,None,863.8273087998386,None,r,0.43811300001107156,863.8273087998386,None,0.43811300001107156,,,59Aloud,001,2022_Oct_03_1136,ProdSingRedoBetween,2021.2.3,59.90201228137562,
,,,,30,0,30,0,,,,,,,,,,,,,,,,,,,,,,871.0156254998874,None,,,,,,,,,,,,,,,,,express,93,31,aloud,new,null,864.8037176998332,None,864.8037176998332,None,2,3.109885700047016,864.8037176998332,None,3.109885700047016,867.9401902998798,None,868.4466327999253,None,868.4466327999253,None,n,2.5390559998340905,868.4466327999253,None,2.5390559998340905,,,59Aloud,001,2022_Oct_03_1136,ProdSingRedoBetween,2021.2.3,59.90201228137562,
,,,,31,0,31,0,,,,,,,,,,,,,,,,,,,,,,873.7017637998797,None,,,,,,,,,,,,,,,,,quarter,153,32,aloud,new,null,871.5190488998778,None,871.5190488998778,None,2,1.3063644000794739,871.5190488998778,None,1.3063644000794739,872.85641199979,None,873.371683999896,None,873.371683999896,None,n,0.30177260003983974,873.371683999896,None,0.30177260003983974,,,59Aloud,001,2022_Oct_03_1136,ProdSingRedoBetween,2021.2.3,59.90201228137562,
,,,,32,0,32,0,,,,,,,,,,,,,,,,,,,,,,877.8397776999045,None,,,,,,,,,,,,,,,,,discussion,136,33,aloud,new,null,874.2133476999588,None,874.2133476999588,None,3,2.604200900066644,874.2133476999588,None,2.604200900066644,876.8477659998462,None,877.3599666999653,None,877.3599666999653,None,f,0.44956639991141856,877.3599666999653,None,0.44956639991141856,,,59Aloud,001,2022_Oct_03_1136,ProdSingRedoBetween,2021.2.3,59.90201228137562,
,,,,33,0,33,0,,,,,,,,,,,,,,,,,,,,,,881.4427030999213,None,,,,,,,,,,,,,,,,,death,100,34,aloud,new,null,878.3414881997742,None,878.3414881997742,None,2,1.4200433001387864,878.3414881997742,None,1.4200433001387864,879.7983782999218,None,880.3108568999451,None,880.3108568999451,None,n,1.1145209001842886,880.3108568999451,None,1.1145209001842886,,,59Aloud,001,2022_Oct_03_1136,ProdSingRedoBetween,2021.2.3,59.90201228137562,
,,,,34,0,34,0,,,,,,,,,,,,,,,,,,,,,,885.6302794998046,None,,,,,,,,,,,,,,,,,threat,66,35,aloud,old,red,881.946013599867,None,881.946013599867,None,6,2.6874928001780063,881.946013599867,None,2.6874928001780063,884.6637164999265,None,885.1688736998476,None,885.1688736998476,None,r,0.44080150010995567,885.1688736998476,None,0.44080150010995567,,,59Aloud,001,2022_Oct_03_1136,ProdSingRedoBetween,2021.2.3,59.90201228137562,
,,,,35,0,35,0,,,,,,,,,,,,,,,,,,,,,,890.3182763999794,None,,,,,,,,,,,,,,,,,present,50,36,aloud,old,blue,886.1327519998886,None,886.1327519998886,None,6,2.5809565000236034,886.1327519998886,None,2.5809565000236034,888.7437169998884,None,889.2514878998045,None,889.2514878998045,None,r,1.04592730011791,889.2514878998045,None,1.04592730011791,,,59Aloud,001,2022_Oct_03_1136,ProdSingRedoBetween,2021.2.3,59.90201228137562,
,,,,36,0,36,0,,,,,,,,,,,,,,,,,,,,,,893.7383442998398,None,,,,,,,,,,,,,,,,,committee,95,37,aloud,new,null,890.8249409999698,None,890.8249409999698,None,2,2.024461599998176,890.8249409999698,None,2.024461599998176,892.8715758000035,None,893.3712668998633,None,893.3712668998633,None,n,0.3501299999188632,893.3712668998633,None,0.3501299999188632,,,59Aloud,001,2022_Oct_03_1136,ProdSingRedoBetween,2021.2.3,59.90201228137562,
,,,,37,0,37,0,,,,,,,,,,,,,,,,,,,,,,901.7796672999393,None,,,,,,,,,,,,,,,,,escape,31,38,aloud,old,blue,894.2478176997975,None,894.2478176997975,None,4,6.289568099891767,894.2478176997975,None,6.289568099891767,900.5646786999423,None,901.0820908998139,None,901.0820908998139,None,f,0.6712432000786066,901.0820908998139,None,0.6712432000786066,,,59Aloud,001,2022_Oct_03_1136,ProdSingRedoBetween,2021.2.3,59.90201228137562,
,,,,38,0,38,0,,,,,,,,,,,,,,,,,,,,,,909.5920404999051,None,,,,,,,,,,,,,,,,,primary,47,39,aloud,old,blue,902.2876677999739,None,902.2876677999739,None,6,6.345776899950579,902.2876677999739,None,6.345776899950579,908.6615494999569,None,909.173792499816,None,909.173792499816,None,r,0.3955861001741141,909.173792499816,None,0.3955861001741141,,,59Aloud,001,2022_Oct_03_1136,ProdSingRedoBetween,2021.2.3,59.90201228137562,
,,,,39,0,39,0,,,,,,,,,,,,,,,,,,,,,,917.2283321998548,None,,,,,,,,,,,,,,,,,safety,160,40,aloud,new,null,910.1103116997983,None,910.1103116997983,None,2,5.795057799899951,910.1103116997983,None,5.795057799899951,915.9291675998829,None,916.4575945998076,None,916.4575945998076,None,n,0.7437058000359684,916.4575945998076,None,0.7437058000359684,,,59Aloud,001,2022_Oct_03_1136,ProdSingRedoBetween,2021.2.3,59.90201228137562,
,,,,40,0,40,0,,,,,,,,,,,,,,,,,,,,,,920.014637599932,None,,,,,,,,,,,,,,,,,science,114,41,aloud,new,null,917.7381926998496,None,917.7381926998496,None,2,1.4551671999506652,917.7381926998496,None,1.4551671999506652,919.2148702999111,None,919.7143428998534,None,919.7143428998534,None,n,0.271047200076282,919.7143428998534,None,0.271047200076282,,,59Aloud,001,2022_Oct_03_1136,ProdSingRedoBetween,2021.2.3,59.90201228137562,
,,,,41,0,41,0,,,,,,,,,,,,,,,,,,,,,,923.9184439999517,None,,,,,,,,,,,,,,,,,election,176,42,aloud,new,null,920.5253843998071,None,920.5253843998071,None,3,2.5479083999525756,920.5253843998071,None,2.5479083999525756,923.1036099998746,None,923.6184113998897,None,923.6184113998897,None,f,0.27109309984371066,923.6184113998897,None,0.27109309984371066,,,59Aloud,001,2022_Oct_03_1136,ProdSingRedoBetween,2021.2.3,59.90201228137562,
,,,,42,0,42,0,,,,,,,,,,,,,,,,,,,,,,927.8557797998656,None,,,,,,,,,,,,,,,,,finance,20,43,aloud,old,yellow,924.4303916997742,None,924.4303916997742,None,5,2.5949549002107233,924.4303916997742,None,2.5949549002107233,927.0556469999719,None,927.555565699935,None,927.555565699935,None,f,0.2698214000556618,927.555565699935,None,0.2698214000556618,,,59Aloud,001,2022_Oct_03_1136,ProdSingRedoBetween,2021.2.3,59.90201228137562,
,,,,43,0,43,0,,,,,,,,,,,,,,,,,,,,,,930.9588601998985,None,,,,,,,,,,,,,,,,,detective,82,44,aloud,old,red,928.3689391999505,None,928.3689391999505,None,6,1.61636109999381,928.3689391999505,None,1.61636109999381,930.0119466998149,None,930.5288777998649,None,930.5288777998649,None,r,0.408555599860847,930.5288777998649,None,0.408555599860847,,,59Aloud,001,2022_Oct_03_1136,ProdSingRedoBetween,2021.2.3,59.90201228137562,
,,,,44,0,44,0,,,,,,,,,,,,,,,,,,,,,,938.7998215998523,None,,,,,,,,,,,,,,,,,degree,78,45,aloud,old,red,931.472585399868,None,931.472585399868,None,6,4.000754699809477,931.472585399868,None,4.000754699809477,935.4965825998224,None,936.0009283998515,None,936.0009283998515,None,f,2.768484100000933,936.0009283998515,None,2.768484100000933,,,59Aloud,001,2022_Oct_03_1136,ProdSingRedoBetween,2021.2.3,59.90201228137562,
,,,,45,0,45,0,,,,,,,,,,,,,,,,,,,,,,943.9931390997954,None,,,,,,,,,,,,,,,,,travel,77,46,aloud,old,red,939.3112063999288,None,939.3112063999288,None,5,3.410007399972528,939.3112063999288,None,3.410007399972528,942.7409148998559,None,943.2576893998776,None,943.2576893998776,None,f,0.7036002001259476,943.2576893998776,None,0.7036002001259476,,,59Aloud,001,2022_Oct_03_1136,ProdSingRedoBetween,2021.2.3,59.90201228137562,
,,,,46,0,46,0,,,,,,,,,,,,,,,,,,,,,,949.8276148999576,None,,,,,,,,,,,,,,,,,listen,51,47,aloud,old,blue,944.5142313998658,None,944.5142313998658,None,4,4.039081599796191,944.5142313998658,None,4.039081599796191,948.5780210997909,None,949.0955699998885,None,949.0955699998885,None,f,0.7057225999888033,949.0955699998885,None,0.7057225999888033,,,59Aloud,001,2022_Oct_03_1136,ProdSingRedoBetween,2021.2.3,59.90201228137562,
,,,,47,0,47,0,,,,,,,,,,,,,,,,,,,,,,955.3664304998238,None,,,,,,,,,,,,,,,,,personnel,36,48,aloud,old,blue,950.3395354999229,None,950.3395354999229,None,6,3.693849900038913,950.3395354999229,None,3.693849900038913,954.0594641999342,None,954.5681667998433,None,954.5681667998433,None,f,0.7692115001846105,954.5681667998433,None,0.7692115001846105,,,59Aloud,001,2022_Oct_03_1136,ProdSingRedoBetween,2021.2.3,59.90201228137562,
,,,,48,0,48,0,,,,,,,,,,,,,,,,,,,,,,958.8200265998021,None,,,,,,,,,,,,,,,,,author,88,49,aloud,old,red,955.8760016998276,None,955.8760016998276,None,6,1.8453228001017123,955.8760016998276,None,1.8453228001017123,957.756472399924,None,958.2749088997953,None,958.2749088997953,None,r,0.5184802999719977,958.2749088997953,None,0.5184802999719977,,,59Aloud,001,2022_Oct_03_1136,ProdSingRedoBetween,2021.2.3,59.90201228137562,
,,,,49,0,49,0,,,,,,,,,,,,,,,,,,,,,,961.5225850997958,None,,,,,,,,,,,,,,,,,state,42,50,aloud,old,blue,959.3326442998368,None,959.3326442998368,None,6,1.1246040998958051,959.3326442998368,None,1.1246040998958051,960.4909050997812,None,961.0101203999948,None,961.0101203999948,None,r,0.48721059993840754,961.0101203999948,None,0.48721059993840754,,,59Aloud,001,2022_Oct_03_1136,ProdSingRedoBetween,2021.2.3,59.90201228137562,
,,,,50,0,50,0,,,,,,,,,,,,,,,,,,,,,,964.2419894998893,None,,,,,,,,,,,,,,,,,capital,76,51,aloud,old,red,962.0334940999746,None,962.0334940999746,None,6,1.2078537999186665,962.0334940999746,None,1.2078537999186665,963.26192119997,None,963.7779618999921,None,963.7779618999921,None,r,0.4473623998928815,963.7779618999921,None,0.4473623998928815,,,59Aloud,001,2022_Oct_03_1136,ProdSingRedoBetween,2021.2.3,59.90201228137562,
,,,,51,0,51,0,,,,,,,,,,,,,,,,,,,,,,967.9977274998091,None,,,,,,,,,,,,,,,,,running,147,52,aloud,new,null,964.7509462998714,None,964.7509462998714,None,3,2.3624366999138147,964.7509462998714,None,2.3624366999138147,967.1529174998868,None,967.6660813000053,None,967.6660813000053,None,n,0.31115749990567565,967.6660813000053,None,0.31115749990567565,,,59Aloud,001,2022_Oct_03_1136,ProdSingRedoBetween,2021.2.3,59.90201228137562,
,,,,52,0,52,0,,,,,,,,,,,,,,,,,,,,,,973.318775099935,None,,,,,,,,,,,,,,,,,watch,118,53,aloud,new,null,968.5140839999076,None,968.5140839999076,None,3,3.815322599839419,968.5140839999076,None,3.815322599839419,972.3529138998128,None,972.8680947998073,None,972.8680947998073,None,n,0.42923490004613996,972.8680947998073,None,0.42923490004613996,,,59Aloud,001,2022_Oct_03_1136,ProdSingRedoBetween,2021.2.3,59.90201228137562,
,,,,53,0,53,0,,,,,,,,,,,,,,,,,,,,,,977.7220845997799,None,,,,,,,,,,,,,,,,,appeal,17,54,aloud,old,yellow,973.8214941998012,None,973.8214941998012,None,3,3.059839299879968,973.8214941998012,None,3.059839299879968,976.9106462998316,None,977.4219014998525,None,977.4219014998525,None,f,0.28332739998586476,977.4219014998525,None,0.28332739998586476,,,59Aloud,001,2022_Oct_03_1136,ProdSingRedoBetween,2021.2.3,59.90201228137562,
,,,,54,0,54,0,,,,,,,,,,,,,,,,,,,,,,984.4817516999319,None,,,,,,,,,,,,,,,,,property,73,55,aloud,old,red,978.2324831997976,None,978.2324831997976,None,5,5.232853800058365,978.2324831997976,None,5.232853800058365,983.4998864999507,None,984.0193350999616,None,984.0193350999616,None,f,0.4379954000469297,984.0193350999616,None,0.4379954000469297,,,59Aloud,001,2022_Oct_03_1136,ProdSingRedoBetween,2021.2.3,59.90201228137562,
,,,,55,0,55,0,,,,,,,,,,,,,,,,,,,,,,987.8653068998829,None,,,,,,,,,,,,,,,,,waste,83,56,aloud,old,red,985.0116504000034,None,985.0116504000034,None,3,1.9974638998974115,985.0116504000034,None,1.9974638998974115,987.0311349998228,None,987.5357831998263,None,987.5357831998263,None,f,0.31348479981534183,987.5357831998263,None,0.31348479981534183,,,59Aloud,001,2022_Oct_03_1136,ProdSingRedoBetween,2021.2.3,59.90201228137562,
,,,,56,0,56,0,,,,,,,,,,,,,,,,,,,,,,990.6850326999556,None,,,,,,,,,,,,,,,,,crowd,172,57,aloud,new,null,988.3679803998675,None,988.3679803998675,None,2,1.4734136001206934,988.3679803998675,None,1.4734136001206934,989.8691183999181,None,990.3721222998574,None,990.3721222998574,None,n,0.2850748000200838,990.3721222998574,None,0.2850748000200838,,,59Aloud,001,2022_Oct_03_1136,ProdSingRedoBetween,2021.2.3,59.90201228137562,
,,,,57,0,57,0,,,,,,,,,,,,,,,,,,,,,,995.5757147998083,None,,,,,,,,,,,,,,,,,curve,52,58,aloud,old,blue,991.196007499937,None,991.196007499937,None,2,3.45331050013192,991.196007499937,None,3.45331050013192,994.6779775999021,None,995.1923742999788,None,995.1923742999788,None,n,0.36095210001803935,995.1923742999788,None,0.36095210001803935,,,59Aloud,001,2022_Oct_03_1136,ProdSingRedoBetween,2021.2.3,59.90201228137562,
,,,,58,0,58,0,,,,,,,,,,,,,,,,,,,,,,1001.5150721999817,None,,,,,,,,,,,,,,,,,prime,49,59,aloud,old,blue,996.1041781997774,None,996.1041781997774,None,5,2.3050095001235604,996.1041781997774,None,2.3050095001235604,998.4275350999087,None,998.9299555998296,None,998.9299555998296,None,r,2.567259900039062,998.9299555998296,None,2.567259900039062,,,59Aloud,001,2022_Oct_03_1136,ProdSingRedoBetween,2021.2.3,59.90201228137562,
,,,,59,0,59,0,,,,,,,,,,,,,,,,,,,,,,1005.8167282999493,None,,,,,,,,,,,,,,,,,staff,152,60,aloud,new,null,1002.0386464998592,None,1002.0386464998592,None,3,2.962659099837765,1002.0386464998592,None,2.962659099837765,1005.039647199912,None,1005.5499583999626,None,1005.5499583999626,None,f,0.2432911000214517,1005.5499583999626,None,0.2432911000214517,,,59Aloud,001,2022_Oct_03_1136,ProdSingRedoBetween,2021.2.3,59.90201228137562,
,,,,60,0,60,0,,,,,,,,,,,,,,,,,,,,,,1011.4724154998548,None,,,,,,,,,,,,,,,,,surprise,85,61,aloud,old,red,1006.3270660999697,None,1006.3270660999697,None,3,4.194199299905449,1006.3270660999697,None,4.194199299905449,1010.5442228999455,None,1011.0557624998037,None,1011.0557624998037,None,f,0.3856225998606533,1011.0557624998037,None,0.3856225998606533,,,59Aloud,001,2022_Oct_03_1136,ProdSingRedoBetween,2021.2.3,59.90201228137562,
,,,,61,0,61,0,,,,,,,,,,,,,,,,,,,,,,1016.927871799795,None,,,,,,,,,,,,,,,,,figure,80,62,aloud,old,red,1011.9734627997968,None,1011.9734627997968,None,3,4.1479298998601735,1011.9734627997968,None,4.1479298998601735,1016.1520287999883,None,1016.6636369999032,None,1016.6636369999032,None,f,0.2415699001867324,1016.6636369999032,None,0.2415699001867324,,,59Aloud,001,2022_Oct_03_1136,ProdSingRedoBetween,2021.2.3,59.90201228137562,
,,,,62,0,62,0,,,,,,,,,,,,,,,,,,,,,,1021.2155357999727,None,,,,,,,,,,,,,,,,,mayor,89,63,aloud,old,red,1017.4409862998873,None,1017.4409862998873,None,3,3.0001867001410574,1017.4409862998873,None,3.0001867001410574,1020.4657999000046,None,1020.9694714997895,None,1020.9694714997895,None,f,0.22378950007259846,1020.9694714997895,None,0.22378950007259846,,,59Aloud,001,2022_Oct_03_1136,ProdSingRedoBetween,2021.2.3,59.90201228137562,
,,,,63,0,63,0,,,,,,,,,,,,,,,,,,,,,,1026.2872087999713,None,,,,,,,,,,,,,,,,,south,144,64,aloud,new,null,1021.7198760998435,None,1021.7198760998435,None,1,3.745369999902323,1021.7198760998435,None,3.745369999902323,1025.4955084999092,None,1026.00381559995,None,1026.00381559995,None,n,0.2533867999445647,1026.00381559995,None,0.2533867999445647,,,59Aloud,001,2022_Oct_03_1136,ProdSingRedoBetween,2021.2.3,59.90201228137562,
,,,,64,0,64,0,,,,,,,,,,,,,,,,,,,,,,1028.973240399966,None,,,,,,,,,,,,,,,,,birth,124,65,aloud,new,null,1026.7943662998732,None,1026.7943662998732,None,1,1.366791000124067,1026.7943662998732,None,1.366791000124067,1028.1904211998917,None,1028.6899919998832,None,1028.6899919998832,None,n,0.263162599876523,1028.6899919998832,None,0.263162599876523,,,59Aloud,001,2022_Oct_03_1136,ProdSingRedoBetween,2021.2.3,59.90201228137562,
,,,,65,0,65,0,,,,,,,,,,,,,,,,,,,,,,1032.2431340999901,None,,,,,,,,,,,,,,,,,group,149,66,aloud,new,null,1029.479644499952,None,1029.479644499952,None,2,1.337709599873051,1029.479644499952,None,1.337709599873051,1030.849752199836,None,1031.365832499927,None,1031.365832499927,None,n,0.8513118999544531,1031.365832499927,None,0.8513118999544531,,,59Aloud,001,2022_Oct_03_1136,ProdSingRedoBetween,2021.2.3,59.90201228137562,
,,,,66,0,66,0,,,,,,,,,,,,,,,,,,,,,,1037.2003590997774,None,,,,,,,,,,,,,,,,,course,150,67,aloud,new,null,1032.753914799774,None,1032.753914799774,None,3,2.0472780000418425,1032.753914799774,None,2.0472780000418425,1034.8364912997931,None,1035.347415999975,None,1035.347415999975,None,f,1.821934700012207,1035.347415999975,None,1.821934700012207,,,59Aloud,001,2022_Oct_03_1136,ProdSingRedoBetween,2021.2.3,59.90201228137562,
,,,,67,0,67,0,,,,,,,,,,,,,,,,,,,,,,1044.8900319999084,None,,,,,,,,,,,,,,,,,brief,56,68,aloud,old,blue,1037.7213035000023,None,1037.7213035000023,None,5,4.303774799918756,1037.7213035000023,None,4.303774799918756,1042.0597673999146,None,1042.5702436999418,None,1042.5702436999418,None,r,2.294921000022441,1042.5702436999418,None,2.294921000022441,,,59Aloud,001,2022_Oct_03_1136,ProdSingRedoBetween,2021.2.3,59.90201228137562,
,,,,68,0,68,0,,,,,,,,,,,,,,,,,,,,,,1049.3268395999912,None,,,,,,,,,,,,,,,,,light,179,69,aloud,new,null,1045.3907919998746,None,1045.3907919998746,None,2,1.3624084999319166,1045.3907919998746,None,1.3624084999319166,1046.780837799888,None,1047.291323499987,None,1047.291323499987,None,n,2.0058522999752313,1047.291323499987,None,2.0058522999752313,,,59Aloud,001,2022_Oct_03_1136,ProdSingRedoBetween,2021.2.3,59.90201228137562,
,,,,69,0,69,0,,,,,,,,,,,,,,,,,,,,,,1053.853590699844,None,,,,,,,,,,,,,,,,,meeting,10,70,aloud,old,yellow,1049.8335803998634,None,1049.8335803998634,None,3,3.23953659995459,1049.8335803998634,None,3.23953659995459,1053.0973153999075,None,1053.5982190999202,None,1053.5982190999202,None,f,0.23510159994475543,1053.5982190999202,None,0.23510159994475543,,,59Aloud,001,2022_Oct_03_1136,ProdSingRedoBetween,2021.2.3,59.90201228137562,
,,,,70,0,70,0,,,,,,,,,,,,,,,,,,,,,,1058.8712543000001,None,,,,,,,,,,,,,,,,,level,170,71,aloud,new,null,1054.370460299775,None,1054.370460299775,None,2,2.894667699933052,1054.370460299775,None,2.894667699933052,1057.2860271998215,None,1057.7895630998537,None,1057.7895630998537,None,f,1.0594741001259536,1057.7895630998537,None,1.0594741001259536,,,59Aloud,001,2022_Oct_03_1136,ProdSingRedoBetween,2021.2.3,59.90201228137562,
,,,,71,0,71,0,,,,,,,,,,,,,,,,,,,,,,1064.2750130998902,None,,,,,,,,,,,,,,,,,relation,25,72,aloud,old,yellow,1059.3797614998184,None,1059.3797614998184,None,5,2.5893510000314564,1059.3797614998184,None,2.5893510000314564,1061.992110799998,None,1062.5065411999822,None,1062.5065411999822,None,r,1.7425090000033379,1062.5065411999822,None,1.7425090000033379,,,59Aloud,001,2022_Oct_03_1136,ProdSingRedoBetween,2021.2.3,59.90201228137562,
,,,,72,0,72,0,,,,,,,,,,,,,,,,,,,,,,1070.2643954998348,None,,,,,,,,,,,,,,,,,graduate,81,73,aloud,old,red,1064.7827685999218,None,1064.7827685999218,None,4,4.666376400040463,1064.7827685999218,None,4.666376400040463,1069.484574899776,None,1069.9990587998182,None,1069.9990587998182,None,f,0.25002910010516644,1069.9990587998182,None,0.25002910010516644,,,59Aloud,001,2022_Oct_03_1136,ProdSingRedoBetween,2021.2.3,59.90201228137562,
,,,,73,0,73,0,,,,,,,,,,,,,,,,,,,,,,1076.9040949000046,None,,,,,,,,,,,,,,,,,measure,86,74,aloud,old,red,1070.7772101999726,None,1070.7772101999726,None,4,5.079927299870178,1070.7772101999726,None,5.079927299870178,1075.8944513997994,None,1076.4037691999692,None,1076.4037691999692,None,f,0.4694662999827415,1076.4037691999692,None,0.4694662999827415,,,59Aloud,001,2022_Oct_03_1136,ProdSingRedoBetween,2021.2.3,59.90201228137562,
,,,,74,0,74,0,,,,,,,,,,,,,,,,,,,,,,1082.3431073999964,None,,,,,,,,,,,,,,,,,region,138,75,aloud,new,null,1077.4112787998747,None,1077.4112787998747,None,2,2.325844199862331,1077.4112787998747,None,2.325844199862331,1079.762280299794,None,1080.2743840999901,None,1080.2743840999901,None,n,2.0388388000428677,1080.2743840999901,None,2.0388388000428677,,,59Aloud,001,2022_Oct_03_1136,ProdSingRedoBetween,2021.2.3,59.90201228137562,
,,,,75,0,75,0,,,,,,,,,,,,,,,,,,,,,,1086.480563199846,None,,,,,,,,,,,,,,,,,chief,151,76,aloud,new,null,1082.866553899832,None,1082.866553899832,None,1,2.398475200170651,1082.866553899832,None,2.398475200170651,1085.2970721998718,None,1085.7971880999394,None,1085.7971880999394,None,n,0.6598685001954436,1085.7971880999394,None,0.6598685001954436,,,59Aloud,001,2022_Oct_03_1136,ProdSingRedoBetween,2021.2.3,59.90201228137562,
,,,,76,0,76,0,,,,,,,,,,,,,,,,,,,,,,1089.5835696998984,None,,,,,,,,,,,,,,,,,surface,135,77,aloud,new,null,1086.9936506999657,None,1086.9936506999657,None,2,1.7674175000283867,1086.9936506999657,None,1.7674175000283867,1088.7871505999938,None,1089.3213350998703,None,1089.3213350998703,None,n,0.2397723998874426,1089.3213350998703,None,0.2397723998874426,,,59Aloud,001,2022_Oct_03_1136,ProdSingRedoBetween,2021.2.3,59.90201228137562,
,,,,77,0,77,0,,,,,,,,,,,,,,,,,,,,,,1093.472392299911,None,,,,,,,,,,,,,,,,,reading,68,78,aloud,old,red,1090.0877257999964,None,1090.0877257999964,None,4,2.0093350999522954,1090.0877257999964,None,2.0093350999522954,1092.1208706998732,None,1092.6201784999575,None,1092.6201784999575,None,f,0.8209192000795156,1092.6201784999575,None,0.8209192000795156,,,59Aloud,001,2022_Oct_03_1136,ProdSingRedoBetween,2021.2.3,59.90201228137562,
,,,,78,0,78,0,,,,,,,,,,,,,,,,,,,,,,1097.2429185998626,None,,,,,,,,,,,,,,,,,pattern,107,79,aloud,new,null,1093.9820149999578,None,1093.9820149999578,None,3,2.4271752000786364,1093.9820149999578,None,2.4271752000786364,1096.4413703999016,None,1096.9430989997927,None,1096.9430989997927,None,f,0.2742290999740362,1096.9430989997927,None,0.2742290999740362,,,59Aloud,001,2022_Oct_03_1136,ProdSingRedoBetween,2021.2.3,59.90201228137562,
,,,,79,0,79,0,,,,,,,,,,,,,,,,,,,,,,1101.2952893998008,None,,,,,,,,,,,,,,,,,history,133,80,aloud,new,null,1097.7654307999182,None,1097.7654307999182,None,3,2.7156159998849034,1097.7654307999182,None,2.7156159998849034,1100.513886099914,None,1101.0284879999235,None,1101.0284879999235,None,f,0.24461969989351928,1101.0284879999235,None,0.24461969989351928,,,59Aloud,001,2022_Oct_03_1136,ProdSingRedoBetween,2021.2.3,59.90201228137562,
,,,,80,0,80,0,,,,,,,,,,,,,,,,,,,,,,1104.782140399795,None,,,,,,,,,,,,,,,,,phrase,148,81,aloud,new,null,1101.801101299934,None,1101.801101299934,None,2,1.3279128998983651,1101.801101299934,None,1.3279128998983651,1103.1486401997972,None,1103.648185199825,None,1103.648185199825,None,f,1.1049413001164794,1103.648185199825,None,1.1049413001164794,,,59Aloud,001,2022_Oct_03_1136,ProdSingRedoBetween,2021.2.3,59.90201228137562,
,,,,81,0,81,0,,,,,,,,,,,,,,,,,,,,,,1109.0197009998374,None,,,,,,,,,,,,,,,,,victory,44,82,aloud,old,blue,1105.290499099996,None,1105.290499099996,None,2,1.526793799828738,1105.290499099996,None,1.526793799828738,1106.846601799829,None,1107.351203699829,None,1107.351203699829,None,n,1.6417950000613928,1107.351203699829,None,1.6417950000613928,,,59Aloud,001,2022_Oct_03_1136,ProdSingRedoBetween,2021.2.3,59.90201228137562,
,,,,82,0,82,0,,,,,,,,,,,,,,,,,,,,,,1116.6941245999187,None,,,,,,,,,,,,,,,,,reach,26,83,aloud,old,yellow,1109.5267574999016,None,1109.5267574999016,None,3,6.274263400118798,1109.5267574999016,None,6.274263400118798,1115.8292287997901,None,1116.3468833998777,None,1116.3468833998777,None,f,0.31817519990727305,1116.3468833998777,None,0.31817519990727305,,,59Aloud,001,2022_Oct_03_1136,ProdSingRedoBetween,2021.2.3,59.90201228137562,
,,,,83,0,83,0,,,,,,,,,,,,,,,,,,,,,,1119.9846999999136,None,,,,,,,,,,,,,,,,,trend,75,84,aloud,old,red,1117.2012670999393,None,1117.2012670999393,None,4,1.9278320998419076,1117.2012670999393,None,1.9278320998419076,1119.1523046998773,None,1119.663820499787,None,1119.663820499787,None,f,0.29741009999997914,1119.663820499787,None,0.29741009999997914,,,59Aloud,001,2022_Oct_03_1136,ProdSingRedoBetween,2021.2.3,59.90201228137562,
,,,,84,0,84,0,,,,,,,,,,,,,,,,,,,,,,1123.250636199955,None,,,,,,,,,,,,,,,,,spoke,156,85,aloud,new,null,1120.50228279992,None,1120.50228279992,None,2,1.47472000005655,1120.50228279992,None,1.47472000005655,1122.0007851999253,None,1122.5028198999353,None,1122.5028198999353,None,n,0.7222464000806212,1122.5028198999353,None,0.7222464000806212,,,59Aloud,001,2022_Oct_03_1136,ProdSingRedoBetween,2021.2.3,59.90201228137562,
,,,,85,0,85,0,,,,,,,,,,,,,,,,,,,,,,1126.4537728999276,None,,,,,,,,,,,,,,,,,working,96,86,aloud,new,null,1123.763394099893,None,1123.763394099893,None,2,1.789628400001675,1123.763394099893,None,1.789628400001675,1125.5749563998543,None,1126.0921675998252,None,1126.0921675998252,None,n,0.34083180013112724,1126.0921675998252,None,0.34083180013112724,,,59Aloud,001,2022_Oct_03_1136,ProdSingRedoBetween,2021.2.3,59.90201228137562,
,,,,86,0,86,0,,,,,,,,,,,,,,,,,,,,,,1129.6569782998413,None,,,,,,,,,,,,,,,,,subject,177,87,aloud,new,null,1126.9657607998233,None,1126.9657607998233,None,2,1.411345399916172,1126.9657607998233,None,1.411345399916172,1128.4150003998075,None,1128.923018799862,None,1128.923018799862,None,n,0.709995900047943,1128.923018799862,None,0.709995900047943,,,59Aloud,001,2022_Oct_03_1136,ProdSingRedoBetween,2021.2.3,59.90201228137562,
,,,,87,0,87,0,,,,,,,,,,,,,,,,,,,,,,1134.4284427999519,None,,,,,,,,,,,,,,,,,contract,14,88,aloud,old,yellow,1130.162610600004,None,1130.162610600004,None,3,2.702400299953297,1130.162610600004,None,2.702400299953297,1132.8942974999081,None,1133.3940400998108,None,1133.3940400998108,None,n,1.0069166000466794,1133.3940400998108,None,1.0069166000466794,,,59Aloud,001,2022_Oct_03_1136,ProdSingRedoBetween,2021.2.3,59.90201228137562,
,,,,88,0,88,0,,,,,,,,,,,,,,,,,,,,,,1139.6356374998577,None,,,,,,,,,,,,,,,,,weather,16,89,aloud,old,yellow,1134.932043899782,None,1134.932043899782,None,5,3.8449407999869436,1134.932043899782,None,3.8449407999869436,1138.8007896000054,None,1139.3083395999856,None,1139.3083395999856,None,f,0.3006785998586565,1139.3083395999856,None,0.3006785998586565,,,59Aloud,001,2022_Oct_03_1136,ProdSingRedoBetween,2021.2.3,59.90201228137562,
,,,,89,0,89,0,,,,,,,,,,,,,,,,,,,,,,1142.569594600005,None,,,,,,,,,,,,,,,,,little,168,90,aloud,new,null,1140.1537009999156,None,1140.1537009999156,None,1,1.6873206000309438,1140.1537009999156,None,1.6873206000309438,1141.8691657998133,None,1142.3781341998838,None,1142.3781341998838,None,n,0.16689680004492402,1142.3781341998838,None,0.16689680004492402,,,59Aloud,001,2022_Oct_03_1136,ProdSingRedoBetween,2021.2.3,59.90201228137562,
,,,,90,0,90,0,,,,,,,,,,,,,,,,,,,,,,1149.2095330997836,None,,,,,,,,,,,,,,,,,drama,34,91,aloud,old,blue,1143.0729216998443,None,1143.0729216998443,None,3,3.6880445999559015,1143.0729216998443,None,3.6880445999559015,1146.793119299924,None,1147.3079891998786,None,1147.3079891998786,None,n,1.885121500119567,1147.3079891998786,None,1.885121500119567,,,59Aloud,001,2022_Oct_03_1136,ProdSingRedoBetween,2021.2.3,59.90201228137562,
,,,,91,0,91,0,,,,,,,,,,,,,,,,,,,,,,1153.197068599984,None,,,,,,,,,,,,,,,,,damage,169,92,aloud,new,null,1149.7143727999646,None,1149.7143727999646,None,2,1.8305482999421656,1149.7143727999646,None,1.8305482999421656,1151.5650068998802,None,1152.081733699888,None,1152.081733699888,None,n,1.087255199905485,1152.081733699888,None,1.087255199905485,,,59Aloud,001,2022_Oct_03_1136,ProdSingRedoBetween,2021.2.3,59.90201228137562,
,,,,92,0,92,0,,,,,,,,,,,,,,,,,,,,,,1156.6515834999736,None,,,,,,,,,,,,,,,,,order,166,93,aloud,new,null,1153.7005289997905,None,1153.7005289997905,None,2,2.148421299876645,1153.7005289997905,None,2.148421299876645,1155.8664334998466,None,1156.3695291997865,None,1156.3695291997865,None,n,0.2634566999040544,1156.3695291997865,None,0.2634566999040544,,,59Aloud,001,2022_Oct_03_1136,ProdSingRedoBetween,2021.2.3,59.90201228137562,
,,,,93,0,93,0,,,,,,,,,,,,,,,,,,,,,,1159.6034852999728,None,,,,,,,,,,,,,,,,,cover,112,94,aloud,new,null,1157.1733908997849,None,1157.1733908997849,None,2,1.3716226001270115,1157.1733908997849,None,1.3716226001270115,1158.5751040999312,None,1159.0905196999665,None,1159.0905196999665,None,n,0.4943629999179393,1159.0905196999665,None,0.4943629999179393,,,59Aloud,001,2022_Oct_03_1136,ProdSingRedoBetween,2021.2.3,59.90201228137562,
,,,,94,0,94,0,,,,,,,,,,,,,,,,,,,,,,1165.2425476999488,None,,,,,,,,,,,,,,,,,quiet,122,95,aloud,new,null,1160.1138496999629,None,1160.1138496999629,None,3,2.92703070002608,1160.1138496999629,None,2.92703070002608,1163.0567182998639,None,1163.5612501997966,None,1163.5612501997966,None,f,1.663683099905029,1163.5612501997966,None,1.663683099905029,,,59Aloud,001,2022_Oct_03_1136,ProdSingRedoBetween,2021.2.3,59.90201228137562,
,,,,95,0,95,0,,,,,,,,,,,,,,,,,,,,,,1171.048280299874,None,,,,,,,,,,,,,,,,,payment,161,96,aloud,new,null,1165.7460132997949,None,1165.7460132997949,None,3,4.199037600075826,1165.7460132997949,None,4.199037600075826,1169.9692366998643,None,1170.481092899805,None,1170.481092899805,None,f,0.5518475000280887,1170.481092899805,None,0.5518475000280887,,,59Aloud,001,2022_Oct_03_1136,ProdSingRedoBetween,2021.2.3,59.90201228137562,
,,,,96,0,96,0,,,,,,,,,,,,,,,,,,,,,,1174.7518938998692,None,,,,,,,,,,,,,,,,,rough,157,97,aloud,new,null,1171.5560331998859,None,1171.5560331998859,None,3,2.4048765001352876,1171.5560331998859,None,2.4048765001352876,1173.9845159999095,None,1174.4909547998104,None,1174.4909547998104,None,f,0.24600589997135103,1174.4909547998104,None,0.24600589997135103,,,59Aloud,001,2022_Oct_03_1136,ProdSingRedoBetween,2021.2.3,59.90201228137562,
,,,,97,0,97,0,,,,,,,,,,,,,,,,,,,,,,1178.9727806998417,None,,,,,,,,,,,,,,,,,department,103,98,aloud,new,null,1175.270269199973,None,1175.270269199973,None,3,2.2187224999070168,1175.270269199973,None,2.2187224999070168,1177.5106722000055,None,1178.028012599796,None,1178.028012599796,None,f,0.9168972000479698,1178.028012599796,None,0.9168972000479698,,,59Aloud,001,2022_Oct_03_1136,ProdSingRedoBetween,2021.2.3,59.90201228137562,
,,,,98,0,98,0,,,,,,,,,,,,,,,,,,,,,,1183.0768849998713,None,,,,,,,,,,,,,,,,,atmosphere,130,99,aloud,new,null,1179.4830612998921,None,1179.4830612998921,None,3,2.7898595998995006,1179.4830612998921,None,2.7898595998995006,1182.2946807998233,None,1182.8154373997822,None,1182.8154373997822,None,f,0.24162620003335178,1182.8154373997822,None,0.24162620003335178,,,59Aloud,001,2022_Oct_03_1136,ProdSingRedoBetween,2021.2.3,59.90201228137562,
,,,,99,0,99,0,,,,,,,,,,,,,,,,,,,,,,1186.8973366999999,None,,,,,,,,,,,,,,,,,sleep,41,100,aloud,old,blue,1183.5837880999316,None,1183.5837880999316,None,5,1.5612920001149178,1183.5837880999316,None,1.5612920001149178,1185.1638395998161,None,1185.6655813998077,None,1185.6655813998077,None,r,1.207315200008452,1185.6655813998077,None,1.207315200008452,,,59Aloud,001,2022_Oct_03_1136,ProdSingRedoBetween,2021.2.3,59.90201228137562,
,,,,100,0,100,0,,,,,,,,,,,,,,,,,,,,,,1191.168278399855,None,,,,,,,,,,,,,,,,,government,113,101,aloud,new,null,1187.4083042999264,None,1187.4083042999264,None,5,2.624583200085908,1187.4083042999264,None,2.624583200085908,1190.0524964998476,None,1190.5713455998339,None,1190.5713455998339,None,f,0.5735560001339763,1190.5713455998339,None,0.5735560001339763,,,59Aloud,001,2022_Oct_03_1136,ProdSingRedoBetween,2021.2.3,59.90201228137562,
,,,,101,0,101,0,,,,,,,,,,,,,,,,,,,,,,1194.9570839998778,None,,,,,,,,,,,,,,,,,column,60,102,aloud,old,red,1191.6794517999515,None,1191.6794517999515,None,6,1.881398499943316,1191.6794517999515,None,1.881398499943316,1193.588206099812,None,1194.093606099952,None,1194.093606099952,None,r,0.8353176999371499,1194.093606099952,None,0.8353176999371499,,,59Aloud,001,2022_Oct_03_1136,ProdSingRedoBetween,2021.2.3,59.90201228137562,
,,,,102,0,102,0,,,,,,,,,,,,,,,,,,,,,,1198.0417733998038,None,,,,,,,,,,,,,,,,,session,54,103,aloud,old,blue,1195.4748768999707,None,1195.4748768999707,None,6,1.6219782000407577,1195.4748768999707,None,1.6219782000407577,1197.1270629998762,None,1197.6451609998476,None,1197.6451609998476,None,r,0.3797993001062423,1197.6451609998476,None,0.3797993001062423,,,59Aloud,001,2022_Oct_03_1136,ProdSingRedoBetween,2021.2.3,59.90201228137562,
,,,,103,0,103,0,,,,,,,,,,,,,,,,,,,,,,1217.978375399951,None,,,,,,,,,,,,,,,,,partner,110,104,aloud,new,null,1198.5446121999994,None,1198.5446121999994,None,3,17.912333500105888,1198.5446121999994,None,17.912333500105888,1216.4798500998877,None,1216.9963294998743,None,1216.9963294998743,None,r,0.9646612000651658,1216.9963294998743,None,0.9646612000651658,,,59Aloud,001,2022_Oct_03_1136,ProdSingRedoBetween,2021.2.3,59.90201228137562,
,,,,104,0,104,0,,,,,,,,,,,,,,,,,,,,,,1222.099172799848,None,,,,,,,,,,,,,,,,,tennis,154,105,aloud,new,null,1218.4905673998874,None,1218.4905673998874,None,1,1.6702717000152916,1218.4905673998874,None,1.6702717000152916,1220.1818147997838,None,1220.681246599881,None,1220.681246599881,None,n,1.391501700039953,1220.681246599881,None,1.391501700039953,,,59Aloud,001,2022_Oct_03_1136,ProdSingRedoBetween,2021.2.3,59.90201228137562,
,,,,105,0,105,0,,,,,,,,,,,,,,,,,,,,,,1226.2897210998926,None,,,,,,,,,,,,,,,,,voice,162,106,aloud,new,null,1222.6012920998037,None,1222.6012920998037,None,2,2.207495199982077,1222.6012920998037,None,2.207495199982077,1224.8379723997787,None,1225.3525618999265,None,1225.3525618999265,None,n,0.9125079000368714,1225.3525618999265,None,0.9125079000368714,,,59Aloud,001,2022_Oct_03_1136,ProdSingRedoBetween,2021.2.3,59.90201228137562,
,,,,106,0,106,0,,,,,,,,,,,,,,,,,,,,,,1229.339497699868,None,,,,,,,,,,,,,,,,,platform,164,107,aloud,new,null,1226.821654399857,None,1226.821654399857,None,2,1.5232265999075025,1226.821654399857,None,1.5232265999075025,1228.3781546999235,None,1228.889158199774,None,1228.889158199774,None,n,0.43178400001488626,1228.889158199774,None,0.43178400001488626,,,59Aloud,001,2022_Oct_03_1136,ProdSingRedoBetween,2021.2.3,59.90201228137562,
,,,,107,0,107,0,,,,,,,,,,,,,,,,,,,,,,1236.296605499927,None,,,,,,,,,,,,,,,,,match,70,108,aloud,old,red,1229.8428709998261,None,1229.8428709998261,None,5,2.557993699796498,1229.8428709998261,None,2.557993699796498,1232.429138999898,None,1232.9433946998324,None,1232.9433946998324,None,r,3.3294252001214772,1232.9433946998324,None,3.3294252001214772,,,59Aloud,001,2022_Oct_03_1136,ProdSingRedoBetween,2021.2.3,59.90201228137562,
,,,,108,0,108,0,,,,,,,,,,,,,,,,,,,,,,1241.2682620999403,None,,,,,,,,,,,,,,,,,estate,132,109,aloud,new,null,1236.7976685999893,None,1236.7976685999893,None,2,3.675224300008267,1236.7976685999893,None,3.675224300008267,1240.505091899773,None,1241.0196583999787,None,1241.0196583999787,None,n,0.22916459990665317,1241.0196583999787,None,0.22916459990665317,,,59Aloud,001,2022_Oct_03_1136,ProdSingRedoBetween,2021.2.3,59.90201228137562,
,,,,109,0,109,0,,,,,,,,,,,,,,,,,,,,,,1251.4281890999991,None,,,,,,,,,,,,,,,,,service,74,110,aloud,old,red,1241.787043399876,None,1241.787043399876,None,3,8.765714599983767,1241.787043399876,None,8.765714599983767,1250.5788171999156,None,1251.083109299885,None,1251.083109299885,None,f,0.3258204001467675,1251.083109299885,None,0.3258204001467675,,,59Aloud,001,2022_Oct_03_1136,ProdSingRedoBetween,2021.2.3,59.90201228137562,
,,,,110,0,110,0,,,,,,,,,,,,,,,,,,,,,,1256.032919799909,None,,,,,,,,,,,,,,,,,balance,7,111,aloud,old,yellow,1251.9343782998621,None,1251.9343782998621,None,6,3.2987307000439614,1251.9343782998621,None,3.2987307000439614,1255.2557720998302,None,1255.7661161997821,None,1255.7661161997821,None,r,0.2426644000224769,1255.7661161997821,None,0.2426644000224769,,,59Aloud,001,2022_Oct_03_1136,ProdSingRedoBetween,2021.2.3,59.90201228137562,
,,,,111,0,111,0,,,,,,,,,,,,,,,,,,,,,,1259.1861249997746,None,,,,,,,,,,,,,,,,,month,108,112,aloud,new,null,1256.5408788998611,None,1256.5408788998611,None,2,1.675937799969688,1256.5408788998611,None,1.675937799969688,1258.2398713999428,None,1258.7554112998769,None,1258.7554112998769,None,n,0.4054090999998152,1258.7554112998769,None,0.4054090999998152,,,59Aloud,001,2022_Oct_03_1136,ProdSingRedoBetween,2021.2.3,59.90201228137562,
,,,,112,0,112,0,,,,,,,,,,,,,,,,,,,,,,1263.7754886997864,None,,,,,,,,,,,,,,,,,substance,145,113,aloud,new,null,1259.6895992998034,None,1259.6895992998034,None,2,3.1192690001334995,1259.6895992998034,None,3.1192690001334995,1262.8425473999232,None,1263.3628643997945,None,1263.3628643997945,None,n,0.3900011999066919,1263.3628643997945,None,0.3900011999066919,,,59Aloud,001,2022_Oct_03_1136,ProdSingRedoBetween,2021.2.3,59.90201228137562,
,,,,113,0,113,0,,,,,,,,,,,,,,,,,,,,,,1274.0174862998538,None,,,,,,,,,,,,,,,,,scale,79,114,aloud,old,red,1264.2816383999307,None,1264.2816383999307,None,2,8.431208099937066,1264.2816383999307,None,8.431208099937066,1272.7407433998305,None,1273.2502549998462,None,1273.2502549998462,None,f,0.7424946001265198,1273.2502549998462,None,0.7424946001265198,,,59Aloud,001,2022_Oct_03_1136,ProdSingRedoBetween,2021.2.3,59.90201228137562,
,,,,114,0,114,0,,,,,,,,,,,,,,,,,,,,,,1277.8909151998814,None,,,,,,,,,,,,,,,,,republic,58,115,aloud,old,blue,1274.521197399823,None,1274.521197399823,None,6,2.5436459998600185,1274.521197399823,None,2.5436459998600185,1277.0885654999875,None,1277.5879272997845,None,1277.5879272997845,None,r,0.27714040013961494,1277.5879272997845,None,0.27714040013961494,,,59Aloud,001,2022_Oct_03_1136,ProdSingRedoBetween,2021.2.3,59.90201228137562,
,,,,115,0,115,0,,,,,,,,,,,,,,,,,,,,,,1282.1267473998014,None,,,,,,,,,,,,,,,,,exchange,8,116,aloud,old,yellow,1278.4259143997915,None,1278.4259143997915,None,4,2.8708195998333395,1278.4259143997915,None,2.8708195998333395,1281.326799799921,None,1281.8418937998358,None,1281.8418937998358,None,f,0.26272720005363226,1281.8418937998358,None,0.26272720005363226,,,59Aloud,001,2022_Oct_03_1136,ProdSingRedoBetween,2021.2.3,59.90201228137562,
,,,,116,0,116,0,,,,,,,,,,,,,,,,,,,,,,1286.5134747999255,None,,,,,,,,,,,,,,,,,mankind,141,117,aloud,new,null,1282.6286424999125,None,1282.6286424999125,None,2,2.3720595000777394,1282.6286424999125,None,2.3720595000777394,1285.0284550997894,None,1285.5331946997903,None,1285.5331946997903,None,f,0.9555216000881046,1285.5331946997903,None,0.9555216000881046,,,59Aloud,001,2022_Oct_03_1136,ProdSingRedoBetween,2021.2.3,59.90201228137562,
,,,,117,0,117,0,,,,,,,,,,,,,,,,,,,,,,1291.0512721999548,None,,,,,,,,,,,,,,,,,engineer,29,118,aloud,old,blue,1287.0225728999358,None,1287.0225728999358,None,6,3.186505600111559,1287.0225728999358,None,3.186505600111559,1290.2365791997872,None,1290.753500699997,None,1290.753500699997,None,r,0.27923609991557896,1290.753500699997,None,0.27923609991557896,,,59Aloud,001,2022_Oct_03_1136,ProdSingRedoBetween,2021.2.3,59.90201228137562,
,,,,118,0,118,0,,,,,,,,,,,,,,,,,,,,,,1294.087574499892,None,,,,,,,,,,,,,,,,,fight,28,119,aloud,old,yellow,1291.5620538999792,None,1291.5620538999792,None,6,1.6707609000150114,1291.5620538999792,None,1.6707609000150114,1293.2602721999865,None,1293.7719434997998,None,1293.7719434997998,None,r,0.2847182000987232,1293.7719434997998,None,0.2847182000987232,,,59Aloud,001,2022_Oct_03_1136,ProdSingRedoBetween,2021.2.3,59.90201228137562,
,,,,119,0,119,0,,,,,,,,,,,,,,,,,,,,,,1302.4459348998498,None,,,,,,,,,,,,,,,,,place,69,120,aloud,old,red,1294.6007945998572,None,1294.6007945998572,None,5,6.655901200138032,1294.6007945998572,None,6.655901200138032,1301.279541199794,None,1301.7788975997828,None,1301.7788975997828,None,r,0.6458399998955429,1301.7788975997828,None,0.6458399998955429,,,59Aloud,001,2022_Oct_03_1136,ProdSingRedoBetween,2021.2.3,59.90201228137562,
,,,,120,0,120,0,,,,,,,,,,,,,,,,,,,,,,1306.6668637997936,None,,,,,,,,,,,,,,,,,industry,90,121,aloud,new,null,1302.9529980998486,None,1302.9529980998486,None,2,1.5757534999866039,1302.9529980998486,None,1.5757534999866039,1304.55517409998,None,1305.0843433998525,None,1305.0843433998525,None,n,1.5642945000436157,1305.0843433998525,None,1.5642945000436157,,,59Aloud,001,2022_Oct_03_1136,ProdSingRedoBetween,2021.2.3,59.90201228137562,
,,,,121,0,121,0,,,,,,,,,,,,,,,,,,,,,,1309.671143999789,None,,,,,,,,,,,,,,,,,track,91,122,aloud,new,null,1307.1772400999907,None,1307.1772400999907,None,2,1.263448600191623,1307.1772400999907,None,1.263448600191623,1308.4739188998938,None,1308.9857920999639,None,1308.9857920999639,None,n,0.6630051000975072,1308.9857920999639,None,0.6630051000975072,,,59Aloud,001,2022_Oct_03_1136,ProdSingRedoBetween,2021.2.3,59.90201228137562,
,,,,122,0,122,0,,,,,,,,,,,,,,,,,,,,,,1315.0621137998533,None,,,,,,,,,,,,,,,,,length,27,123,aloud,old,yellow,1310.1704666998703,None,1310.1704666998703,None,5,4.086212599882856,1310.1704666998703,None,4.086212599882856,1314.275417599827,None,1314.7777561999392,None,1314.7777561999392,None,r,0.26292170002125204,1314.7777561999392,None,0.26292170002125204,,,59Aloud,001,2022_Oct_03_1136,ProdSingRedoBetween,2021.2.3,59.90201228137562,
,,,,123,0,123,0,,,,,,,,,,,,,,,,,,,,,,1319.3461874998175,None,,,,,,,,,,,,,,,,,public,158,124,aloud,new,null,1315.577460499946,None,1315.577460499946,None,3,2.8553233998827636,1315.577460499946,None,2.8553233998827636,1318.4646517999936,None,1318.9900940998923,None,1318.9900940998923,None,f,0.33061930001713336,1318.9900940998923,None,0.33061930001713336,,,59Aloud,001,2022_Oct_03_1136,ProdSingRedoBetween,2021.2.3,59.90201228137562,
,,,,124,0,124,0,,,,,,,,,,,,,,,,,,,,,,1324.150816399837,None,,,,,,,,,,,,,,,,,health,174,125,aloud,new,null,1319.855509299785,None,1319.855509299785,None,3,3.121225900016725,1319.855509299785,None,3.121225900016725,1323.0069358998444,None,1323.5241930999327,None,1323.5241930999327,None,n,0.6044598999433219,1323.5241930999327,None,0.6044598999433219,,,59Aloud,001,2022_Oct_03_1136,ProdSingRedoBetween,2021.2.3,59.90201228137562,
,,,,125,0,125,0,,,,,,,,,,,,,,,,,,,,,,1327.2041108999401,None,,,,,,,,,,,,,,,,,comfort,0,126,aloud,old,yellow,1324.6591561997775,None,1324.6591561997775,None,3,1.6055328999646008,1324.6591561997775,None,1.6055328999646008,1326.289353699889,None,1326.8059607998002,None,1326.8059607998002,None,n,0.3707350001204759,1326.8059607998002,None,0.3707350001204759,,,59Aloud,001,2022_Oct_03_1136,ProdSingRedoBetween,2021.2.3,59.90201228137562,
,,,,126,0,126,0,,,,,,,,,,,,,,,,,,,,,,1331.6950804998633,None,,,,,,,,,,,,,,,,,force,35,127,aloud,old,blue,1327.7065754998475,None,1327.7065754998475,None,4,3.3820097998250276,1327.7065754998475,None,3.3820097998250276,1331.1078858999535,None,1331.6145822999533,None,1331.6145822999533,None,f,0.05008559999987483,1331.6145822999533,None,0.05008559999987483,,,59Aloud,001,2022_Oct_03_1136,ProdSingRedoBetween,2021.2.3,59.90201228137562,
,,,,127,0,127,0,,,,,,,,,,,,,,,,,,,,,,1335.5456663998775,None,,,,,,,,,,,,,,,,,harmony,55,128,aloud,old,blue,1332.2193592998665,None,1332.2193592998665,None,6,1.893679500091821,1332.2193592998665,None,1.893679500091821,1334.1406944999471,None,1334.6448394998442,None,1334.6448394998442,None,r,0.8839032000396401,1334.6448394998442,None,0.8839032000396401,,,59Aloud,001,2022_Oct_03_1136,ProdSingRedoBetween,2021.2.3,59.90201228137562,
,,,,128,0,128,0,,,,,,,,,,,,,,,,,,,,,,1341.3013497998472,None,,,,,,,,,,,,,,,,,season,62,129,aloud,old,red,1336.0610322998837,None,1336.0610322998837,None,3,4.41161540010944,1336.0610322998837,None,4.41161540010944,1340.5059577999637,None,1341.0209570999723,None,1341.0209570999723,None,f,0.25957300001755357,1341.0209570999723,None,0.25957300001755357,,,59Aloud,001,2022_Oct_03_1136,ProdSingRedoBetween,2021.2.3,59.90201228137562,
,,,,129,0,129,0,,,,,,,,,,,,,,,,,,,,,,1344.324579199776,None,,,,,,,,,,,,,,,,,institute,123,130,aloud,new,null,1341.807920599822,None,1341.807920599822,None,2,1.49671719991602,1341.807920599822,None,1.49671719991602,1343.3220725997817,None,1343.8416550999973,None,1343.8416550999973,None,f,0.45512980013154447,1343.8416550999973,None,0.45512980013154447,,,59Aloud,001,2022_Oct_03_1136,ProdSingRedoBetween,2021.2.3,59.90201228137562,
,,,,130,0,130,0,,,,,,,,,,,,,,,,,,,,,,1347.9272951998282,None,,,,,,,,,,,,,,,,,colonel,163,131,aloud,new,null,1344.8398792999797,None,1344.8398792999797,None,1,2.232841300079599,1344.8398792999797,None,2.232841300079599,1347.0972028998658,None,1347.6087860998232,None,1347.6087860998232,None,n,0.2880576001480222,1347.6087860998232,None,0.2880576001480222,,,59Aloud,001,2022_Oct_03_1136,ProdSingRedoBetween,2021.2.3,59.90201228137562,
,,,,131,0,131,0,,,,,,,,,,,,,,,,,,,,,,1350.5439046998508,None,,,,,,,,,,,,,,,,,school,40,132,aloud,old,blue,1348.4449336999096,None,1348.4449336999096,None,6,1.4759382000193,1348.4449336999096,None,1.4759382000193,1349.954803999979,None,1350.4632469997741,None,1350.4632469997741,None,r,0.04944569990038872,1350.4632469997741,None,0.04944569990038872,,,59Aloud,001,2022_Oct_03_1136,ProdSingRedoBetween,2021.2.3,59.90201228137562,
,,,,132,0,132,0,,,,,,,,,,,,,,,,,,,,,,1356.0326944999397,None,,,,,,,,,,,,,,,,,notice,53,133,aloud,old,blue,1351.0520032998174,None,1351.0520032998174,None,3,1.9165987998712808,1351.0520032998174,None,1.9165987998712808,1352.9970024998765,None,1353.5047386998776,None,1353.5047386998776,None,n,2.5119044000748545,1353.5047386998776,None,2.5119044000748545,,,59Aloud,001,2022_Oct_03_1136,ProdSingRedoBetween,2021.2.3,59.90201228137562,
,,,,133,0,133,0,,,,,,,,,,,,,,,,,,,,,,1362.7559117998462,None,,,,,,,,,,,,,,,,,benefit,87,134,aloud,old,red,1356.5406264998019,None,1356.5406264998019,None,5,5.387996000004932,1356.5406264998019,None,5.387996000004932,1361.9633394998964,None,1362.4751266997773,None,1362.4751266997773,None,f,0.26156469993293285,1362.4751266997773,None,0.26156469993293285,,,59Aloud,001,2022_Oct_03_1136,ProdSingRedoBetween,2021.2.3,59.90201228137562,
,,,,134,0,134,0,,,,,,,,,,,,,,,,,,,,,,1368.4117150998209,None,,,,,,,,,,,,,,,,,resistance,127,135,aloud,new,null,1363.2669009999372,None,1363.2669009999372,None,3,4.365708600031212,1363.2669009999372,None,4.365708600031212,1367.6628095998894,None,1368.178271399811,None,1368.178271399811,None,f,0.21431479998864233,1368.178271399811,None,0.21431479998864233,,,59Aloud,001,2022_Oct_03_1136,ProdSingRedoBetween,2021.2.3,59.90201228137562,
,,,,135,0,135,0,,,,,,,,,,,,,,,,,,,,,,1375.4021017998457,None,,,,,,,,,,,,,,,,,corner,23,136,aloud,old,yellow,1368.9224052999634,None,1368.9224052999634,None,5,5.638184499926865,1368.9224052999634,None,5.638184499926865,1374.5864041999448,None,1375.103381899884,None,1375.103381899884,None,f,0.2812926999758929,1375.103381899884,None,0.2812926999758929,,,59Aloud,001,2022_Oct_03_1136,ProdSingRedoBetween,2021.2.3,59.90201228137562,
,,,,136,0,136,0,,,,,,,,,,,,,,,,,,,,,,1380.742554299999,None,,,,,,,,,,,,,,,,,edition,119,137,aloud,new,null,1375.9107061999384,None,1375.9107061999384,None,3,2.4177418001927435,1375.9107061999384,None,2.4177418001927435,1378.354895599885,None,1378.8584603997879,None,1378.8584603997879,None,n,1.854211299913004,1378.8584603997879,None,1.854211299913004,,,59Aloud,001,2022_Oct_03_1136,ProdSingRedoBetween,2021.2.3,59.90201228137562,
,,,,137,0,137,0,,,,,,,,,,,,,,,,,,,,,,1384.6779455998912,None,,,,,,,,,,,,,,,,,alert,178,138,aloud,new,null,1381.2670400999486,None,1381.2670400999486,None,2,2.5655095998663455,1381.2670400999486,None,2.5655095998663455,1383.8603361998685,None,1384.3610955998302,None,1384.3610955998302,None,f,0.28748000017367303,1384.3610955998302,None,0.28748000017367303,,,59Aloud,001,2022_Oct_03_1136,ProdSingRedoBetween,2021.2.3,59.90201228137562,
,,,,138,0,138,0,,,,,,,,,,,,,,,,,,,,,,1387.4807815998793,None,,,,,,,,,,,,,,,,,management,115,139,aloud,new,null,1385.180412699934,None,1385.180412699934,None,2,1.5962781999260187,1385.180412699934,None,1.5962781999260187,1386.7966542998329,None,1387.300430599833,None,1387.300430599833,None,f,0.164212099974975,1387.300430599833,None,0.164212099974975,,,59Aloud,001,2022_Oct_03_1136,ProdSingRedoBetween,2021.2.3,59.90201228137562,
,,,,139,0,139,0,,,,,,,,,,,,,,,,,,,,,,1392.986797799822,None,,,,,,,,,,,,,,,,,worker,64,140,aloud,old,red,1387.992320299847,None,1387.992320299847,None,2,3.9682217999361455,1387.992320299847,None,3.9682217999361455,1391.9899968998507,None,1392.5022814997938,None,1392.5022814997938,None,f,0.46622079983353615,1392.5022814997938,None,0.46622079983353615,,,59Aloud,001,2022_Oct_03_1136,ProdSingRedoBetween,2021.2.3,59.90201228137562,
,,,,140,0,140,0,,,,,,,,,,,,,,,,,,,,,,1398.9592180999462,None,,,,,,,,,,,,,,,,,cross,92,141,aloud,new,null,1393.496823999798,None,1393.496823999798,None,1,3.3438112000003457,1393.496823999798,None,3.3438112000003457,1396.8578404998407,None,1397.3606572998688,None,1397.3606572998688,None,n,1.5759010999463499,1397.3606572998688,None,1.5759010999463499,,,59Aloud,001,2022_Oct_03_1136,ProdSingRedoBetween,2021.2.3,59.90201228137562,
,,,,141,0,141,0,,,,,,,,,,,,,,,,,,,,,,1402.7625843998976,None,,,,,,,,,,,,,,,,,population,9,142,aloud,old,yellow,1399.4712910999078,None,1399.4712910999078,None,3,2.449120899895206,1399.4712910999078,None,2.449120899895206,1401.94721129979,None,1402.4624676997773,None,1402.4624676997773,None,f,0.2742151999846101,1402.4624676997773,None,0.2742151999846101,,,59Aloud,001,2022_Oct_03_1136,ProdSingRedoBetween,2021.2.3,59.90201228137562,
,,,,142,0,142,0,,,,,,,,,,,,,,,,,,,,,,1408.3012482998893,None,,,,,,,,,,,,,,,,,break,129,143,aloud,new,null,1403.2744044999126,None,1403.2744044999126,None,3,3.9503365999553353,1403.2744044999126,None,3.9503365999553353,1407.2517180999275,None,1407.7511854998302,None,1407.7511854998302,None,n,0.5213587998878211,1407.7511854998302,None,0.5213587998878211,,,59Aloud,001,2022_Oct_03_1136,ProdSingRedoBetween,2021.2.3,59.90201228137562,
,,,,143,0,143,0,,,,,,,,,,,,,,,,,,,,,,1412.0218801999,None,,,,,,,,,,,,,,,,,medicine,126,144,aloud,new,null,1408.8018756997772,None,1408.8018756997772,None,2,2.3746106999460608,1408.8018756997772,None,2.3746106999460608,1411.2068834998645,None,1411.7258618997876,None,1411.7258618997876,None,n,0.2746474000159651,1411.7258618997876,None,0.2746474000159651,,,59Aloud,001,2022_Oct_03_1136,ProdSingRedoBetween,2021.2.3,59.90201228137562,
,,,,144,0,144,0,,,,,,,,,,,,,,,,,,,,,,1414.9915558998473,None,,,,,,,,,,,,,,,,,sound,105,145,aloud,new,null,1412.5307474997826,None,1412.5307474997826,None,2,1.869757100008428,1412.5307474997826,None,1.869757100008428,1414.4253853999544,None,1414.9249520997982,None,1414.9249520997982,None,n,0.04349870001897216,1414.9249520997982,None,0.04349870001897216,,,59Aloud,001,2022_Oct_03_1136,ProdSingRedoBetween,2021.2.3,59.90201228137562,
,,,,145,0,145,0,,,,,,,,,,,,,,,,,,,,,,1419.6796090998687,None,,,,,,,,,,,,,,,,,budget,5,146,aloud,old,yellow,1415.503613599809,None,1415.503613599809,None,2,3.0891561000607908,1415.503613599809,None,3.0891561000607908,1418.624904599972,None,1419.1321993998718,None,1419.1321993998718,None,f,0.5243925999384373,1419.1321993998718,None,0.5243925999384373,,,59Aloud,001,2022_Oct_03_1136,ProdSingRedoBetween,2021.2.3,59.90201228137562,
,,,,146,0,146,0,,,,,,,,,,,,,,,,,,,,,,1426.186387799913,None,,,,,,,,,,,,,,,,,clear,98,147,aloud,new,null,1420.187286999775,None,1420.187286999775,None,3,4.917310300050303,1420.187286999775,None,4.917310300050303,1425.1356160999276,None,1425.6354476998094,None,1425.6354476998094,None,f,0.5250578999985009,1425.6354476998094,None,0.5250578999985009,,,59Aloud,001,2022_Oct_03_1136,ProdSingRedoBetween,2021.2.3,59.90201228137562,
,,,,147,0,147,0,,,,,,,,,,,,,,,,,,,,,,1431.4746470998507,None,,,,,,,,,,,,,,,,,union,3,148,aloud,old,yellow,1426.6963594998233,None,1426.6963594998233,None,5,1.9201086000539362,1426.6963594998233,None,1.9201086000539362,1428.6411903998815,None,1429.1618229998276,None,1429.1618229998276,None,f,2.2867294000461698,1429.1618229998276,None,2.2867294000461698,,,59Aloud,001,2022_Oct_03_1136,ProdSingRedoBetween,2021.2.3,59.90201228137562,
,,,,148,0,148,0,,,,,,,,,,,,,,,,,,,,,,1437.6148241998162,None,,,,,,,,,,,,,,,,,short,140,149,aloud,new,null,1431.9789101998322,None,1431.9789101998322,None,2,4.733596500009298,1431.9789101998322,None,4.733596500009298,1436.7348164999858,None,1437.247149599949,None,1437.247149599949,None,n,0.3373490998055786,1437.247149599949,None,0.3373490998055786,,,59Aloud,001,2022_Oct_03_1136,ProdSingRedoBetween,2021.2.3,59.90201228137562,
,,,,149,0,149,0,,,,,,,,,,,,,,,,,,,,,,1444.1539202998392,None,,,,,,,,,,,,,,,,,smooth,155,150,aloud,new,null,1438.1162329998333,None,1438.1162329998333,None,2,5.300233300076798,1438.1162329998333,None,5.300233300076798,1443.4367199998815,None,1443.9371132999659,None,1443.9371132999659,None,n,0.19934149994514883,1443.9371132999659,None,0.19934149994514883,,,59Aloud,001,2022_Oct_03_1136,ProdSingRedoBetween,2021.2.3,59.90201228137562,
,,,,150,0,150,0,,,,,,,,,,,,,,,,,,,,,,1446.9898966997862,None,,,,,,,,,,,,,,,,,provision,102,151,aloud,new,null,1444.654507999774,None,1444.654507999774,None,2,1.6899127000942826,1444.654507999774,None,1.6899127000942826,1446.3770133999642,None,1446.8901085997932,None,1446.8901085997932,None,n,0.07039469992741942,1446.8901085997932,None,0.07039469992741942,,,59Aloud,001,2022_Oct_03_1136,ProdSingRedoBetween,2021.2.3,59.90201228137562,
,,,,151,0,151,0,,,,,,,,,,,,,,,,,,,,,,1449.9763920998666,None,,,,,,,,,,,,,,,,,broad,2,152,aloud,old,yellow,1447.4932780999225,None,1447.4932780999225,None,3,1.5392136999871582,1447.4932780999225,None,1.5392136999871582,1449.061890399782,None,1449.5760900999885,None,1449.5760900999885,None,f,0.38443579990416765,1449.5760900999885,None,0.38443579990416765,,,59Aloud,001,2022_Oct_03_1136,ProdSingRedoBetween,2021.2.3,59.90201228137562,
,,,,152,0,152,0,,,,,,,,,,,,,,,,,,,,,,1459.469181599794,None,,,,,,,,,,,,,,,,,country,101,153,aloud,new,null,1450.4899765998125,None,1450.4899765998125,None,3,8.182490899926051,1450.4899765998125,None,8.182490899926051,1458.7156998999417,None,1459.2288641999476,None,1459.2288641999476,None,f,0.21967550017870963,1459.2288641999476,None,0.21967550017870963,,,59Aloud,001,2022_Oct_03_1136,ProdSingRedoBetween,2021.2.3,59.90201228137562,
,,,,153,0,153,0,,,,,,,,,,,,,,,,,,,,,,1463.8422009998467,None,,,,,,,,,,,,,,,,,symbol,165,154,aloud,new,null,1459.971683199983,None,1459.971683199983,None,2,3.100738100009039,1459.971683199983,None,3.100738100009039,1463.0904558999464,None,1463.597944199806,None,1463.597944199806,None,f,0.22655729996040463,1463.597944199806,None,0.22655729996040463,,,59Aloud,001,2022_Oct_03_1136,ProdSingRedoBetween,2021.2.3,59.90201228137562,
,,,,154,0,154,0,,,,,,,,,,,,,,,,,,,,,,1469.4124520998448,None,,,,,,,,,,,,,,,,,broke,19,155,aloud,old,yellow,1464.3639833999332,None,1464.3639833999332,None,5,2.308498000027612,1464.3639833999332,None,2.308498000027612,1466.6995248999447,None,1467.210374899907,None,1467.210374899907,None,r,2.1820427000056952,1467.210374899907,None,2.1820427000056952,,,59Aloud,001,2022_Oct_03_1136,ProdSingRedoBetween,2021.2.3,59.90201228137562,
,,,,155,0,155,0,,,,,,,,,,,,,,,,,,,,,,1472.034309099894,None,,,,,,,,,,,,,,,,,youth,104,156,aloud,new,null,1469.9233305999078,None,1469.9233305999078,None,2,1.317065800074488,1469.9233305999078,None,1.317065800074488,1471.265544399852,None,1471.768490599934,None,1471.768490599934,None,n,0.23999710008502007,1471.768490599934,None,0.23999710008502007,,,59Aloud,001,2022_Oct_03_1136,ProdSingRedoBetween,2021.2.3,59.90201228137562,
,,,,156,0,156,0,,,,,,,,,,,,,,,,,,,,,,1475.2849943998735,None,,,,,,,,,,,,,,,,,drove,175,157,aloud,new,null,1472.554871399887,None,1472.554871399887,None,2,1.909536600112915,1472.554871399887,None,1.909536600112915,1474.485562399961,None,1474.9944971997757,None,1474.9944971997757,None,n,0.2699303000699729,1474.9944971997757,None,0.2699303000699729,,,59Aloud,001,2022_Oct_03_1136,ProdSingRedoBetween,2021.2.3,59.90201228137562,
,,,,157,0,157,0,,,,,,,,,,,,,,,,,,,,,,1480.7070567999035,None,,,,,,,,,,,,,,,,,research,134,158,aloud,new,null,1475.7915974999778,None,1475.7915974999778,None,3,4.056790300179273,1475.7915974999778,None,4.056790300179273,1479.8741412998643,None,1480.3764742999338,None,1480.3764742999338,None,f,0.3038904999848455,1480.3764742999338,None,0.3038904999848455,,,59Aloud,001,2022_Oct_03_1136,ProdSingRedoBetween,2021.2.3,59.90201228137562,
,,,,158,0,158,0,,,,,,,,,,,,,,,,,,,,,,1486.881173599977,None,,,,,,,,,,,,,,,,,junior,137,159,aloud,new,null,1481.215581699973,None,1481.215581699973,None,3,5.000937199918553,1481.215581699973,None,5.000937199918553,1486.2510423997883,None,1486.7671104997862,None,1486.7671104997862,None,f,0.0972461998462677,1486.7671104997862,None,0.0972461998462677,,,59Aloud,001,2022_Oct_03_1136,ProdSingRedoBetween,2021.2.3,59.90201228137562,
,,,,159,0,159,0,,,,,,,,,,,,,,,,,,,,,,1492.0516213998199,None,,,,,,,,,,,,,,,,,leader,21,160,aloud,old,yellow,1487.383339899825,None,1487.383339899825,None,6,3.88914839993231,1487.383339899825,None,3.88914839993231,1491.3021936998703,None,1491.8088288998697,None,1491.8088288998697,None,r,0.21545479982160032,1491.8088288998697,None,0.21545479982160032,,,59Aloud,001,2022_Oct_03_1136,ProdSingRedoBetween,2021.2.3,59.90201228137562,
,,,,160,0,160,0,,,,,,,,,,,,,,,,,,,,,,1497.7574048999231,None,,,,,,,,,,,,,,,,,general,57,161,aloud,old,blue,1492.5521127998363,None,1492.5521127998363,None,3,4.048262000083923,1492.5521127998363,None,4.048262000083923,1496.6256517998409,None,1497.1446079998277,None,1497.1446079998277,None,f,0.5916540999896824,1497.1446079998277,None,0.5916540999896824,,,59Aloud,001,2022_Oct_03_1136,ProdSingRedoBetween,2021.2.3,59.90201228137562,
,,,,161,0,161,0,,,,,,,,,,,,,,,,,,,,,,1502.497455699835,None,,,,,,,,,,,,,,,,,direction,13,162,aloud,old,yellow,1498.2603509000037,None,1498.2603509000037,None,4,3.4360078000463545,1498.2603509000037,None,3.4360078000463545,1501.7122925999574,None,1502.219126299955,None,1502.219126299955,None,f,0.26126560010015965,1502.219126299955,None,0.26126560010015965,,,59Aloud,001,2022_Oct_03_1136,ProdSingRedoBetween,2021.2.3,59.90201228137562,
,,,,162,0,162,0,,,,,,,,,,,,,,,,,,,,,,1508.635028099874,None,,,,,,,,,,,,,,,,,scene,63,163,aloud,old,red,1503.0129609999713,None,1503.0129609999713,None,5,4.979409800143912,1503.0129609999713,None,4.979409800143912,1508.0189132997766,None,1508.521177599905,None,1508.521177599905,None,f,0.09509299998171628,1508.521177599905,None,0.09509299998171628,,,59Aloud,001,2022_Oct_03_1136,ProdSingRedoBetween,2021.2.3,59.90201228137562,
,,,,163,0,163,0,,,,,,,,,,,,,,,,,,,,,,1512.121791599784,None,,,,,,,,,,,,,,,,,blind,11,164,aloud,old,yellow,1509.143908499973,None,1509.143908499973,None,2,1.3124447001609951,1509.143908499973,None,1.3124447001609951,1510.4873994998634,None,1510.9913378998172,None,1510.9913378998172,None,n,1.104994999943301,1510.9913378998172,None,1.104994999943301,,,59Aloud,001,2022_Oct_03_1136,ProdSingRedoBetween,2021.2.3,59.90201228137562,
,,,,164,0,164,0,,,,,,,,,,,,,,,,,,,,,,1515.5084440999199,None,,,,,,,,,,,,,,,,,solution,43,165,aloud,old,blue,1512.6310648999643,None,1512.6310648999643,None,3,2.129268600139767,1512.6310648999643,None,2.129268600139767,1514.7910556998104,None,1515.2948797999416,None,1515.2948797999416,None,f,0.1936936997808516,1515.2948797999416,None,0.1936936997808516,,,59Aloud,001,2022_Oct_03_1136,ProdSingRedoBetween,2021.2.3,59.90201228137562,
,,,,165,0,165,0,,,,,,,,,,,,,,,,,,,,,,1520.64881529985,None,,,,,,,,,,,,,,,,,danger,12,166,aloud,old,yellow,1516.0141450997908,None,1516.0141450997908,None,6,3.610265900148079,1516.0141450997908,None,3.610265900148079,1519.652818699833,None,1520.1630606998224,None,1520.1630606998224,None,r,0.46138520003296435,1520.1630606998224,None,0.46138520003296435,,,59Aloud,001,2022_Oct_03_1136,ProdSingRedoBetween,2021.2.3,59.90201228137562,
,,,,166,0,166,0,,,,,,,,,,,,,,,,,,,,,,1524.2862873999402,None,,,,,,,,,,,,,,,,,whole,173,167,aloud,new,null,1521.174358899938,None,1521.174358899938,None,3,2.305948000168428,1521.174358899938,None,2.305948000168428,1523.4997148998082,None,1524.0047827998642,None,1524.0047827998642,None,f,0.25172189995646477,1524.0047827998642,None,0.25172189995646477,,,59Aloud,001,2022_Oct_03_1136,ProdSingRedoBetween,2021.2.3,59.90201228137562,
,,,,167,0,167,0,,,,,,,,,,,,,,,,,,,,,,1527.8207632999402,None,,,,,,,,,,,,,,,,,bucket,72,168,aloud,old,red,1524.803025299916,None,1524.803025299916,None,6,1.325298400130123,1524.803025299916,None,1.325298400130123,1526.153522499837,None,1526.6573741999455,None,1526.6573741999455,None,r,1.1349853000137955,1526.6573741999455,None,1.1349853000137955,,,59Aloud,001,2022_Oct_03_1136,ProdSingRedoBetween,2021.2.3,59.90201228137562,
,,,,168,0,168,0,,,,,,,,,,,,,,,,,,,,,,1531.7245077998377,None,,,,,,,,,,,,,,,,,novel,142,169,aloud,new,null,1528.331566899782,None,1528.331566899782,None,3,2.5487060002051294,1528.331566899782,None,2.5487060002051294,1530.9081316997763,None,1531.413838399807,None,1531.413838399807,None,f,0.2905105999670923,1531.413838399807,None,0.2905105999670923,,,59Aloud,001,2022_Oct_03_1136,ProdSingRedoBetween,2021.2.3,59.90201228137562,
,,,,169,0,169,0,,,,,,,,,,,,,,,,,,,,,,1536.2458379999734,None,,,,,,,,,,,,,,,,,display,1,170,aloud,old,yellow,1532.2418121998198,None,1532.2418121998198,None,3,3.198490400100127,1532.2418121998198,None,3.198490400100127,1535.4652429998387,None,1535.9791382998228,None,1535.9791382998228,None,f,0.23715859977528453,1535.9791382998228,None,0.23715859977528453,,,59Aloud,001,2022_Oct_03_1136,ProdSingRedoBetween,2021.2.3,59.90201228137562,
,,,,170,0,170,0,,,,,,,,,,,,,,,,,,,,,,1539.248556099832,None,,,,,,,,,,,,,,,,,route,30,171,aloud,old,blue,1536.747639699839,None,1536.747639699839,None,6,1.7166333000641316,1536.747639699839,None,1.7166333000641316,1538.483692099806,None,1538.9986643998418,None,1538.9986643998418,None,r,0.23368209996260703,1538.9986643998418,None,0.23368209996260703,,,59Aloud,001,2022_Oct_03_1136,ProdSingRedoBetween,2021.2.3,59.90201228137562,
,,,,171,0,171,0,,,,,,,,,,,,,,,,,,,,,,1544.737515399931,None,,,,,,,,,,,,,,,,,testimony,111,172,aloud,new,null,1539.75710789999,None,1539.75710789999,None,3,4.139152500079945,1539.75710789999,None,4.139152500079945,1543.9222069999669,None,1544.4415221998934,None,1544.4415221998934,None,f,0.27075719996355474,1544.4415221998934,None,0.27075719996355474,,,59Aloud,001,2022_Oct_03_1136,ProdSingRedoBetween,2021.2.3,59.90201228137562,
,,,,172,0,172,0,,,,,,,,,,,,,,,,,,,,,,1547.9074096998665,None,,,,,,,,,,,,,,,,,block,94,173,aloud,new,null,1545.2488135998137,None,1545.2488135998137,None,2,1.8474284000694752,1545.2488135998137,None,1.8474284000694752,1547.1243154997937,None,1547.623941199854,None,1547.623941199854,None,f,0.26434609992429614,1547.623941199854,None,0.26434609992429614,,,59Aloud,001,2022_Oct_03_1136,ProdSingRedoBetween,2021.2.3,59.90201228137562,
,,,,173,0,173,0,,,,,,,,,,,,,,,,,,,,,,1550.5432850997895,None,,,,,,,,,,,,,,,,,turkey,38,174,aloud,old,blue,1548.4140184998978,None,1548.4140184998978,None,6,1.2903602998703718,1548.4140184998978,None,1.2903602998703718,1549.736497799866,None,1550.2474917999934,None,1550.2474917999934,None,r,0.28096230002120137,1550.2474917999934,None,0.28096230002120137,,,59Aloud,001,2022_Oct_03_1136,ProdSingRedoBetween,2021.2.3,59.90201228137562,
,,,,174,0,174,0,,,,,,,,,,,,,,,,,,,,,,1554.5165748998988,None,,,,,,,,,,,,,,,,,religion,71,175,aloud,old,red,1551.047117399983,None,1551.047117399983,None,2,2.809195199981332,1551.047117399983,None,2.809195199981332,1553.8874099999666,None,1554.398177899886,None,1554.398177899886,None,f,0.09022529982030392,1554.398177899886,None,0.09022529982030392,,,59Aloud,001,2022_Oct_03_1136,ProdSingRedoBetween,2021.2.3,59.90201228137562,
,,,,175,0,175,0,,,,,,,,,,,,,,,,,,,,,,1558.1176647997927,None,,,,,,,,,,,,,,,,,silence,33,176,aloud,old,blue,1555.033017099835,None,1555.033017099835,None,4,2.487242199946195,1555.033017099835,None,2.487242199946195,1557.5517374000046,None,1558.0510560998227,None,1558.0510560998227,None,f,0.03721129987388849,1558.0510560998227,None,0.03721129987388849,,,59Aloud,001,2022_Oct_03_1136,ProdSingRedoBetween,2021.2.3,59.90201228137562,
,,,,176,0,176,0,,,,,,,,,,,,,,,,,,,,,,1561.9548128999304,None,,,,,,,,,,,,,,,,,conference,99,177,aloud,new,null,1558.6288526998833,None,1558.6288526998833,None,2,1.5554361001122743,1558.6288526998833,None,1.5554361001122743,1560.212930999929,None,1560.720201899996,None,1560.720201899996,None,n,1.2081837998703122,1560.720201899996,None,1.2081837998703122,,,59Aloud,001,2022_Oct_03_1136,ProdSingRedoBetween,2021.2.3,59.90201228137562,
