StudyLoop.thisRepN,StudyLoop.thisTrialN,StudyLoop.thisN,StudyLoop.thisIndex,TestLoop.thisRepN,TestLoop.thisTrialN,TestLoop.thisN,TestLoop.thisIndex,textCondition.started,textCondition.stopped,keyCondition.keys,keyCondition.rt,keyCondition.started,keyCondition.stopped,Condition,textWelcome.started,textWelcome.stopped,keyWelcome.keys,keyWelcome.rt,keyWelcome.started,keyWelcome.stopped,textAloud.started,textAloud.stopped,textSilent.started,textSilent.stopped,textSing.started,textSing.stopped,conditional_text.started,conditional_text.stopped,textBlank500.started,textBlank500.stopped,study_word,study_num,study_order,study_type,word_color,textStudy.started,textStudy.stopped,keyStudy.keys,keyStudy.started,keyStudy.stopped,textTestInstructions.started,textTestInstructions.stopped,key_resp_3.keys,key_resp_3.rt,key_resp_3.started,key_resp_3.stopped,test_word,test_num,test_order,test_condition,old_new_test,test_word_original_color,textConf.started,textConf.stopped,textConfScale.started,textConfScale.stopped,keyConf.keys,keyConf.rt,keyConf.started,keyConf.stopped,confidence response time,textTestBlank.started,textTestBlank.stopped,textRKN.started,textRKN.stopped,textRKNScale.started,textRKNScale.stopped,keyRKN.keys,keyRKN.rt,keyRKN.started,keyRKN.stopped,rkn response time,textEnd.started,textEnd.stopped,participant,session,date,expName,psychopyVersion,frameRate,
,,,,,,,,36.847276699962094,None,a,3.6449635000899434,36.847276699962094,None,,,,,,,,,,,,,,,,,,,,,,,,,,,,,,,,,,,,,,,,,,,,,,,,,,,,,,,,,,,,,,61 silent,001,2022_Oct_13_1024,ProdSingRedoBetween,2021.2.3,59.94981008348772,
,,,,,,,,,,,,,,SilentTest,40.547145899850875,None,space,525.9682832001708,40.547145899850875,None,,,,,,,,,,,,,,,,,,,,,,,,,,,,,,,,,,,,,,,,,,,,,,,,,,,,,,,61 silent,001,2022_Oct_13_1024,ProdSingRedoBetween,2021.2.3,59.94981008348772,
0,0,0,0,,,,,,,,,,,,,,,,,,40.547145899850875,None,40.547145899850875,None,40.547145899850875,None,40.547145899850875,None,569.0330918999389,None,symbol,45,1,silent,blue,567.0310895999428,None,None,567.0310895999428,None,,,,,,,,,,,,,,,,,,,,,,,,,,,,,,,,,,,61 silent,001,2022_Oct_13_1024,ProdSingRedoBetween,2021.2.3,59.94981008348772,
1,0,1,0,,,,,,,,,,,,,,,,,,,,,,,,,,571.5522404999938,None,health,58,2,silent,blue,569.5378609998152,None,None,569.5378609998152,None,,,,,,,,,,,,,,,,,,,,,,,,,,,,,,,,,,,61 silent,001,2022_Oct_13_1024,ProdSingRedoBetween,2021.2.3,59.94981008348772,
2,0,2,0,,,,,,,,,,,,,,,,,,,,,,,,,,574.0547171998769,None,clear,24,3,silent,yellow,572.0527086998336,None,None,572.0527086998336,None,,,,,,,,,,,,,,,,,,,,,,,,,,,,,,,,,,,61 silent,001,2022_Oct_13_1024,ProdSingRedoBetween,2021.2.3,59.94981008348772,
3,0,3,0,,,,,,,,,,,,,,,,,,,,,,,,,,576.5572366998531,None,burden,8,4,silent,yellow,574.5552470998373,None,None,574.5552470998373,None,,,,,,,,,,,,,,,,,,,,,,,,,,,,,,,,,,,61 silent,001,2022_Oct_13_1024,ProdSingRedoBetween,2021.2.3,59.94981008348772,
4,0,4,0,,,,,,,,,,,,,,,,,,,,,,,,,,579.0764455997851,None,passage,51,5,silent,blue,577.0614935997874,None,None,577.0614935997874,None,,,,,,,,,,,,,,,,,,,,,,,,,,,,,,,,,,,61 silent,001,2022_Oct_13_1024,ProdSingRedoBetween,2021.2.3,59.94981008348772,
5,0,5,0,,,,,,,,,,,,,,,,,,,,,,,,,,581.5789743999485,None,finish,25,6,silent,yellow,579.5768213998526,None,None,579.5768213998526,None,,,,,,,,,,,,,,,,,,,,,,,,,,,,,,,,,,,61 silent,001,2022_Oct_13_1024,ProdSingRedoBetween,2021.2.3,59.94981008348772,
6,0,6,0,,,,,,,,,,,,,,,,,,,,,,,,,,584.0811772998422,None,attack,86,7,silent,red,582.0820969999768,None,None,582.0820969999768,None,,,,,,,,,,,,,,,,,,,,,,,,,,,,,,,,,,,61 silent,001,2022_Oct_13_1024,ProdSingRedoBetween,2021.2.3,59.94981008348772,
7,0,7,0,,,,,,,,,,,,,,,,,,,,,,,,,,586.6005594998132,None,guard,80,8,silent,red,584.5892657998484,None,None,584.5892657998484,None,,,,,,,,,,,,,,,,,,,,,,,,,,,,,,,,,,,61 silent,001,2022_Oct_13_1024,ProdSingRedoBetween,2021.2.3,59.94981008348772,
8,0,8,0,,,,,,,,,,,,,,,,,,,,,,,,,,589.1197489998303,None,weather,76,9,silent,red,587.105850999942,None,None,587.105850999942,None,,,,,,,,,,,,,,,,,,,,,,,,,,,,,,,,,,,61 silent,001,2022_Oct_13_1024,ProdSingRedoBetween,2021.2.3,59.94981008348772,
9,0,9,0,,,,,,,,,,,,,,,,,,,,,,,,,,591.6222641998902,None,blind,19,10,silent,yellow,589.6202930998988,None,None,589.6202930998988,None,,,,,,,,,,,,,,,,,,,,,,,,,,,,,,,,,,,61 silent,001,2022_Oct_13_1024,ProdSingRedoBetween,2021.2.3,59.94981008348772,
10,0,10,0,,,,,,,,,,,,,,,,,,,,,,,,,,594.1248263998423,None,broke,29,11,silent,blue,592.1236089000013,None,None,592.1236089000013,None,,,,,,,,,,,,,,,,,,,,,,,,,,,,,,,,,,,61 silent,001,2022_Oct_13_1024,ProdSingRedoBetween,2021.2.3,59.94981008348772,
11,0,11,0,,,,,,,,,,,,,,,,,,,,,,,,,,596.6269733998924,None,route,27,12,silent,yellow,594.6271076998673,None,None,594.6271076998673,None,,,,,,,,,,,,,,,,,,,,,,,,,,,,,,,,,,,61 silent,001,2022_Oct_13_1024,ProdSingRedoBetween,2021.2.3,59.94981008348772,
12,0,12,0,,,,,,,,,,,,,,,,,,,,,,,,,,599.1465386999771,None,service,62,13,silent,red,597.1355598999653,None,None,597.1355598999653,None,,,,,,,,,,,,,,,,,,,,,,,,,,,,,,,,,,,61 silent,001,2022_Oct_13_1024,ProdSingRedoBetween,2021.2.3,59.94981008348772,
13,0,13,0,,,,,,,,,,,,,,,,,,,,,,,,,,601.64882449992,None,bureau,7,14,silent,yellow,599.6467047999613,None,None,599.6467047999613,None,,,,,,,,,,,,,,,,,,,,,,,,,,,,,,,,,,,61 silent,001,2022_Oct_13_1024,ProdSingRedoBetween,2021.2.3,59.94981008348772,
14,0,14,0,,,,,,,,,,,,,,,,,,,,,,,,,,604.1681092998479,None,comfort,65,15,silent,red,602.1548250999767,None,None,602.1548250999767,None,,,,,,,,,,,,,,,,,,,,,,,,,,,,,,,,,,,61 silent,001,2022_Oct_13_1024,ProdSingRedoBetween,2021.2.3,59.94981008348772,
15,0,15,0,,,,,,,,,,,,,,,,,,,,,,,,,,606.6703380998224,None,story,64,16,silent,red,604.6714281998575,None,None,604.6714281998575,None,,,,,,,,,,,,,,,,,,,,,,,,,,,,,,,,,,,61 silent,001,2022_Oct_13_1024,ProdSingRedoBetween,2021.2.3,59.94981008348772,
16,0,16,0,,,,,,,,,,,,,,,,,,,,,,,,,,609.1730332998559,None,mechanical,82,17,silent,red,607.1717995998915,None,None,607.1717995998915,None,,,,,,,,,,,,,,,,,,,,,,,,,,,,,,,,,,,61 silent,001,2022_Oct_13_1024,ProdSingRedoBetween,2021.2.3,59.94981008348772,
17,0,17,0,,,,,,,,,,,,,,,,,,,,,,,,,,611.6755400998518,None,goose,11,18,silent,yellow,609.6735605997965,None,None,609.6735605997965,None,,,,,,,,,,,,,,,,,,,,,,,,,,,,,,,,,,,61 silent,001,2022_Oct_13_1024,ProdSingRedoBetween,2021.2.3,59.94981008348772,
18,0,18,0,,,,,,,,,,,,,,,,,,,,,,,,,,614.1781510999426,None,sight,42,19,silent,blue,612.1766442998778,None,None,612.1766442998778,None,,,,,,,,,,,,,,,,,,,,,,,,,,,,,,,,,,,61 silent,001,2022_Oct_13_1024,ProdSingRedoBetween,2021.2.3,59.94981008348772,
19,0,19,0,,,,,,,,,,,,,,,,,,,,,,,,,,616.6805782997981,None,level,53,20,silent,blue,614.6785909999162,None,None,614.6785909999162,None,,,,,,,,,,,,,,,,,,,,,,,,,,,,,,,,,,,61 silent,001,2022_Oct_13_1024,ProdSingRedoBetween,2021.2.3,59.94981008348772,
20,0,20,0,,,,,,,,,,,,,,,,,,,,,,,,,,619.1997103998438,None,position,85,21,silent,red,617.1849215999246,None,None,617.1849215999246,None,,,,,,,,,,,,,,,,,,,,,,,,,,,,,,,,,,,61 silent,001,2022_Oct_13_1024,ProdSingRedoBetween,2021.2.3,59.94981008348772,
21,0,21,0,,,,,,,,,,,,,,,,,,,,,,,,,,621.702276899945,None,color,9,22,silent,yellow,619.7013461999595,None,None,619.7013461999595,None,,,,,,,,,,,,,,,,,,,,,,,,,,,,,,,,,,,61 silent,001,2022_Oct_13_1024,ProdSingRedoBetween,2021.2.3,59.94981008348772,
22,0,22,0,,,,,,,,,,,,,,,,,,,,,,,,,,624.2214778999332,None,point,41,23,silent,blue,622.2066955999471,None,None,622.2066955999471,None,,,,,,,,,,,,,,,,,,,,,,,,,,,,,,,,,,,61 silent,001,2022_Oct_13_1024,ProdSingRedoBetween,2021.2.3,59.94981008348772,
23,0,23,0,,,,,,,,,,,,,,,,,,,,,,,,,,626.7238832998555,None,bicycle,56,24,silent,blue,624.722935799975,None,None,624.722935799975,None,,,,,,,,,,,,,,,,,,,,,,,,,,,,,,,,,,,61 silent,001,2022_Oct_13_1024,ProdSingRedoBetween,2021.2.3,59.94981008348772,
24,0,24,0,,,,,,,,,,,,,,,,,,,,,,,,,,629.2264083998743,None,appearance,66,25,silent,red,627.2256405998487,None,None,627.2256405998487,None,,,,,,,,,,,,,,,,,,,,,,,,,,,,,,,,,,,61 silent,001,2022_Oct_13_1024,ProdSingRedoBetween,2021.2.3,59.94981008348772,
25,0,25,0,,,,,,,,,,,,,,,,,,,,,,,,,,631.7288454999216,None,rough,60,26,silent,red,629.7284500999376,None,None,629.7284500999376,None,,,,,,,,,,,,,,,,,,,,,,,,,,,,,,,,,,,61 silent,001,2022_Oct_13_1024,ProdSingRedoBetween,2021.2.3,59.94981008348772,
26,0,26,0,,,,,,,,,,,,,,,,,,,,,,,,,,634.2481022998691,None,season,18,27,silent,yellow,632.2385909999721,None,None,632.2385909999721,None,,,,,,,,,,,,,,,,,,,,,,,,,,,,,,,,,,,61 silent,001,2022_Oct_13_1024,ProdSingRedoBetween,2021.2.3,59.94981008348772,
27,0,27,0,,,,,,,,,,,,,,,,,,,,,,,,,,636.7503646998666,None,discussion,43,28,silent,blue,634.7485455998685,None,None,634.7485455998685,None,,,,,,,,,,,,,,,,,,,,,,,,,,,,,,,,,,,61 silent,001,2022_Oct_13_1024,ProdSingRedoBetween,2021.2.3,59.94981008348772,
28,0,28,0,,,,,,,,,,,,,,,,,,,,,,,,,,639.2698814999312,None,answer,73,29,silent,red,637.2628392998595,None,None,637.2628392998595,None,,,,,,,,,,,,,,,,,,,,,,,,,,,,,,,,,,,61 silent,001,2022_Oct_13_1024,ProdSingRedoBetween,2021.2.3,59.94981008348772,
29,0,29,0,,,,,,,,,,,,,,,,,,,,,,,,,,641.7721890998073,None,still,26,30,silent,yellow,639.7700408999808,None,None,639.7700408999808,None,,,,,,,,,,,,,,,,,,,,,,,,,,,,,,,,,,,61 silent,001,2022_Oct_13_1024,ProdSingRedoBetween,2021.2.3,59.94981008348772,
30,0,30,0,,,,,,,,,,,,,,,,,,,,,,,,,,644.2743941999506,None,universal,72,31,silent,red,642.2727506998926,None,None,642.2727506998926,None,,,,,,,,,,,,,,,,,,,,,,,,,,,,,,,,,,,61 silent,001,2022_Oct_13_1024,ProdSingRedoBetween,2021.2.3,59.94981008348772,
31,0,31,0,,,,,,,,,,,,,,,,,,,,,,,,,,646.7937568998896,None,department,17,32,silent,yellow,644.7812446998432,None,None,644.7812446998432,None,,,,,,,,,,,,,,,,,,,,,,,,,,,,,,,,,,,61 silent,001,2022_Oct_13_1024,ProdSingRedoBetween,2021.2.3,59.94981008348772,
32,0,32,0,,,,,,,,,,,,,,,,,,,,,,,,,,649.2964282999747,None,heavy,5,33,silent,yellow,647.2962114999536,None,None,647.2962114999536,None,,,,,,,,,,,,,,,,,,,,,,,,,,,,,,,,,,,61 silent,001,2022_Oct_13_1024,ProdSingRedoBetween,2021.2.3,59.94981008348772,
33,0,33,0,,,,,,,,,,,,,,,,,,,,,,,,,,651.8155914999079,None,silence,48,34,silent,blue,649.8066060999408,None,None,649.8066060999408,None,,,,,,,,,,,,,,,,,,,,,,,,,,,,,,,,,,,61 silent,001,2022_Oct_13_1024,ProdSingRedoBetween,2021.2.3,59.94981008348772,
34,0,34,0,,,,,,,,,,,,,,,,,,,,,,,,,,654.317893399857,None,report,38,35,silent,blue,652.3171774998773,None,None,652.3171774998773,None,,,,,,,,,,,,,,,,,,,,,,,,,,,,,,,,,,,61 silent,001,2022_Oct_13_1024,ProdSingRedoBetween,2021.2.3,59.94981008348772,
35,0,35,0,,,,,,,,,,,,,,,,,,,,,,,,,,656.8205796999391,None,council,52,36,silent,blue,654.8183533998672,None,None,654.8183533998672,None,,,,,,,,,,,,,,,,,,,,,,,,,,,,,,,,,,,61 silent,001,2022_Oct_13_1024,ProdSingRedoBetween,2021.2.3,59.94981008348772,
36,0,36,0,,,,,,,,,,,,,,,,,,,,,,,,,,659.3232019999996,None,literature,23,37,silent,yellow,657.3225962999277,None,None,657.3225962999277,None,,,,,,,,,,,,,,,,,,,,,,,,,,,,,,,,,,,61 silent,001,2022_Oct_13_1024,ProdSingRedoBetween,2021.2.3,59.94981008348772,
37,0,37,0,,,,,,,,,,,,,,,,,,,,,,,,,,661.8422871998046,None,provision,35,38,silent,blue,659.8268658998422,None,None,659.8268658998422,None,,,,,,,,,,,,,,,,,,,,,,,,,,,,,,,,,,,61 silent,001,2022_Oct_13_1024,ProdSingRedoBetween,2021.2.3,59.94981008348772,
38,0,38,0,,,,,,,,,,,,,,,,,,,,,,,,,,664.3614229999948,None,scene,63,39,silent,red,662.3523111999966,None,None,662.3523111999966,None,,,,,,,,,,,,,,,,,,,,,,,,,,,,,,,,,,,61 silent,001,2022_Oct_13_1024,ProdSingRedoBetween,2021.2.3,59.94981008348772,
39,0,39,0,,,,,,,,,,,,,,,,,,,,,,,,,,666.8641016997863,None,broad,57,40,silent,blue,664.8619544999674,None,None,664.8619544999674,None,,,,,,,,,,,,,,,,,,,,,,,,,,,,,,,,,,,61 silent,001,2022_Oct_13_1024,ProdSingRedoBetween,2021.2.3,59.94981008348772,
40,0,40,0,,,,,,,,,,,,,,,,,,,,,,,,,,669.3830476999283,None,guide,3,41,silent,yellow,667.3748526999261,None,None,667.3748526999261,None,,,,,,,,,,,,,,,,,,,,,,,,,,,,,,,,,,,61 silent,001,2022_Oct_13_1024,ProdSingRedoBetween,2021.2.3,59.94981008348772,
41,0,41,0,,,,,,,,,,,,,,,,,,,,,,,,,,671.8856468999293,None,discovery,67,42,silent,red,669.8835870998446,None,None,669.8835870998446,None,,,,,,,,,,,,,,,,,,,,,,,,,,,,,,,,,,,61 silent,001,2022_Oct_13_1024,ProdSingRedoBetween,2021.2.3,59.94981008348772,
42,0,42,0,,,,,,,,,,,,,,,,,,,,,,,,,,674.4047456998378,None,break,50,43,silent,blue,672.3956630998291,None,None,672.3956630998291,None,,,,,,,,,,,,,,,,,,,,,,,,,,,,,,,,,,,61 silent,001,2022_Oct_13_1024,ProdSingRedoBetween,2021.2.3,59.94981008348772,
43,0,43,0,,,,,,,,,,,,,,,,,,,,,,,,,,676.9073773999698,None,school,2,44,silent,yellow,674.9051109999418,None,None,674.9051109999418,None,,,,,,,,,,,,,,,,,,,,,,,,,,,,,,,,,,,61 silent,001,2022_Oct_13_1024,ProdSingRedoBetween,2021.2.3,59.94981008348772,
44,0,44,0,,,,,,,,,,,,,,,,,,,,,,,,,,679.4097227999009,None,strength,59,45,silent,yellow,677.4104871999007,None,None,677.4104871999007,None,,,,,,,,,,,,,,,,,,,,,,,,,,,,,,,,,,,61 silent,001,2022_Oct_13_1024,ProdSingRedoBetween,2021.2.3,59.94981008348772,
45,0,45,0,,,,,,,,,,,,,,,,,,,,,,,,,,681.9290197999217,None,group,34,46,silent,blue,679.9165520998649,None,None,679.9165520998649,None,,,,,,,,,,,,,,,,,,,,,,,,,,,,,,,,,,,61 silent,001,2022_Oct_13_1024,ProdSingRedoBetween,2021.2.3,59.94981008348772,
46,0,46,0,,,,,,,,,,,,,,,,,,,,,,,,,,684.4480681999121,None,danger,14,47,silent,yellow,682.4364889999852,None,None,682.4364889999852,None,,,,,,,,,,,,,,,,,,,,,,,,,,,,,,,,,,,61 silent,001,2022_Oct_13_1024,ProdSingRedoBetween,2021.2.3,59.94981008348772,
47,0,47,0,,,,,,,,,,,,,,,,,,,,,,,,,,686.9506841998082,None,marriage,61,48,silent,red,684.9486236998346,None,None,684.9486236998346,None,,,,,,,,,,,,,,,,,,,,,,,,,,,,,,,,,,,61 silent,001,2022_Oct_13_1024,ProdSingRedoBetween,2021.2.3,59.94981008348772,
48,0,48,0,,,,,,,,,,,,,,,,,,,,,,,,,,689.4695068998262,None,course,12,49,silent,yellow,687.4557544998825,None,None,687.4557544998825,None,,,,,,,,,,,,,,,,,,,,,,,,,,,,,,,,,,,61 silent,001,2022_Oct_13_1024,ProdSingRedoBetween,2021.2.3,59.94981008348772,
49,0,49,0,,,,,,,,,,,,,,,,,,,,,,,,,,691.9722556998022,None,number,75,50,silent,red,689.9703834999818,None,None,689.9703834999818,None,,,,,,,,,,,,,,,,,,,,,,,,,,,,,,,,,,,61 silent,001,2022_Oct_13_1024,ProdSingRedoBetween,2021.2.3,59.94981008348772,
50,0,50,0,,,,,,,,,,,,,,,,,,,,,,,,,,694.4746941998601,None,graduate,77,51,silent,red,692.4728613998741,None,None,692.4728613998741,None,,,,,,,,,,,,,,,,,,,,,,,,,,,,,,,,,,,61 silent,001,2022_Oct_13_1024,ProdSingRedoBetween,2021.2.3,59.94981008348772,
51,0,51,0,,,,,,,,,,,,,,,,,,,,,,,,,,696.9938195999712,None,thick,87,52,silent,red,694.9798301998526,None,None,694.9798301998526,None,,,,,,,,,,,,,,,,,,,,,,,,,,,,,,,,,,,61 silent,001,2022_Oct_13_1024,ProdSingRedoBetween,2021.2.3,59.94981008348772,
52,0,52,0,,,,,,,,,,,,,,,,,,,,,,,,,,699.5131475999951,None,account,36,53,silent,blue,697.5004195999354,None,None,697.5004195999354,None,,,,,,,,,,,,,,,,,,,,,,,,,,,,,,,,,,,61 silent,001,2022_Oct_13_1024,ProdSingRedoBetween,2021.2.3,59.94981008348772,
53,0,53,0,,,,,,,,,,,,,,,,,,,,,,,,,,702.015630699927,None,youth,20,54,silent,yellow,700.0136507998686,None,None,700.0136507998686,None,,,,,,,,,,,,,,,,,,,,,,,,,,,,,,,,,,,61 silent,001,2022_Oct_13_1024,ProdSingRedoBetween,2021.2.3,59.94981008348772,
54,0,54,0,,,,,,,,,,,,,,,,,,,,,,,,,,704.5179637998808,None,fight,10,55,silent,yellow,702.517255899962,None,None,702.517255899962,None,,,,,,,,,,,,,,,,,,,,,,,,,,,,,,,,,,,61 silent,001,2022_Oct_13_1024,ProdSingRedoBetween,2021.2.3,59.94981008348772,
55,0,55,0,,,,,,,,,,,,,,,,,,,,,,,,,,707.037433099933,None,pattern,30,56,silent,blue,705.0224718998652,None,None,705.0224718998652,None,,,,,,,,,,,,,,,,,,,,,,,,,,,,,,,,,,,61 silent,001,2022_Oct_13_1024,ProdSingRedoBetween,2021.2.3,59.94981008348772,
56,0,56,0,,,,,,,,,,,,,,,,,,,,,,,,,,709.5397944999859,None,production,32,57,silent,blue,707.5378588999156,None,None,707.5378588999156,None,,,,,,,,,,,,,,,,,,,,,,,,,,,,,,,,,,,61 silent,001,2022_Oct_13_1024,ProdSingRedoBetween,2021.2.3,59.94981008348772,
57,0,57,0,,,,,,,,,,,,,,,,,,,,,,,,,,712.0589932999574,None,shock,22,58,silent,yellow,710.0497450998519,None,None,710.0497450998519,None,,,,,,,,,,,,,,,,,,,,,,,,,,,,,,,,,,,61 silent,001,2022_Oct_13_1024,ProdSingRedoBetween,2021.2.3,59.94981008348772,
58,0,58,0,,,,,,,,,,,,,,,,,,,,,,,,,,714.5615373000037,None,death,68,59,silent,red,712.5592868998647,None,None,712.5592868998647,None,,,,,,,,,,,,,,,,,,,,,,,,,,,,,,,,,,,61 silent,001,2022_Oct_13_1024,ProdSingRedoBetween,2021.2.3,59.94981008348772,
59,0,59,0,,,,,,,,,,,,,,,,,,,,,,,,,,717.0639425998088,None,figure,4,60,silent,yellow,715.0620173998177,None,None,715.0620173998177,None,,,,,,,,,,,,,,,,,,,,,,,,,,,,,,,,,,,61 silent,001,2022_Oct_13_1024,ProdSingRedoBetween,2021.2.3,59.94981008348772,
60,0,60,0,,,,,,,,,,,,,,,,,,,,,,,,,,719.5664917998947,None,curve,47,61,silent,blue,717.5649654997978,None,None,717.5649654997978,None,,,,,,,,,,,,,,,,,,,,,,,,,,,,,,,,,,,61 silent,001,2022_Oct_13_1024,ProdSingRedoBetween,2021.2.3,59.94981008348772,
61,0,61,0,,,,,,,,,,,,,,,,,,,,,,,,,,722.0856554999482,None,company,78,62,silent,red,720.0728595999535,None,None,720.0728595999535,None,,,,,,,,,,,,,,,,,,,,,,,,,,,,,,,,,,,61 silent,001,2022_Oct_13_1024,ProdSingRedoBetween,2021.2.3,59.94981008348772,
62,0,62,0,,,,,,,,,,,,,,,,,,,,,,,,,,724.6049672998488,None,concern,54,63,silent,blue,722.5904444998596,None,None,722.5904444998596,None,,,,,,,,,,,,,,,,,,,,,,,,,,,,,,,,,,,61 silent,001,2022_Oct_13_1024,ProdSingRedoBetween,2021.2.3,59.94981008348772,
63,0,63,0,,,,,,,,,,,,,,,,,,,,,,,,,,727.1241095999721,None,welcome,28,64,silent,yellow,725.1084400999825,None,None,725.1084400999825,None,,,,,,,,,,,,,,,,,,,,,,,,,,,,,,,,,,,61 silent,001,2022_Oct_13_1024,ProdSingRedoBetween,2021.2.3,59.94981008348772,
64,0,64,0,,,,,,,,,,,,,,,,,,,,,,,,,,729.6431613999885,None,judge,13,65,silent,yellow,727.6304664998315,None,None,727.6304664998315,None,,,,,,,,,,,,,,,,,,,,,,,,,,,,,,,,,,,61 silent,001,2022_Oct_13_1024,ProdSingRedoBetween,2021.2.3,59.94981008348772,
65,0,65,0,,,,,,,,,,,,,,,,,,,,,,,,,,732.1456661999691,None,afternoon,6,66,silent,yellow,730.1445148999337,None,None,730.1445148999337,None,,,,,,,,,,,,,,,,,,,,,,,,,,,,,,,,,,,61 silent,001,2022_Oct_13_1024,ProdSingRedoBetween,2021.2.3,59.94981008348772,
66,0,66,0,,,,,,,,,,,,,,,,,,,,,,,,,,734.6481399999466,None,estate,21,67,silent,yellow,732.6466064997949,None,None,732.6466064997949,None,,,,,,,,,,,,,,,,,,,,,,,,,,,,,,,,,,,61 silent,001,2022_Oct_13_1024,ProdSingRedoBetween,2021.2.3,59.94981008348772,
67,0,67,0,,,,,,,,,,,,,,,,,,,,,,,,,,737.1674205998424,None,dispute,70,68,silent,red,735.154108799994,None,None,735.154108799994,None,,,,,,,,,,,,,,,,,,,,,,,,,,,,,,,,,,,61 silent,001,2022_Oct_13_1024,ProdSingRedoBetween,2021.2.3,59.94981008348772,
68,0,68,0,,,,,,,,,,,,,,,,,,,,,,,,,,739.6865649998654,None,close,46,69,silent,blue,737.6754819999915,None,None,737.6754819999915,None,,,,,,,,,,,,,,,,,,,,,,,,,,,,,,,,,,,61 silent,001,2022_Oct_13_1024,ProdSingRedoBetween,2021.2.3,59.94981008348772,
69,0,69,0,,,,,,,,,,,,,,,,,,,,,,,,,,742.1891518998891,None,escape,1,70,silent,yellow,740.1879397998564,None,None,740.1879397998564,None,,,,,,,,,,,,,,,,,,,,,,,,,,,,,,,,,,,61 silent,001,2022_Oct_13_1024,ProdSingRedoBetween,2021.2.3,59.94981008348772,
70,0,70,0,,,,,,,,,,,,,,,,,,,,,,,,,,744.7080764998682,None,quantity,40,71,silent,blue,742.6983019998297,None,None,742.6983019998297,None,,,,,,,,,,,,,,,,,,,,,,,,,,,,,,,,,,,61 silent,001,2022_Oct_13_1024,ProdSingRedoBetween,2021.2.3,59.94981008348772,
71,0,71,0,,,,,,,,,,,,,,,,,,,,,,,,,,747.2107586998027,None,design,37,72,silent,blue,745.2087008999661,None,None,745.2087008999661,None,,,,,,,,,,,,,,,,,,,,,,,,,,,,,,,,,,,61 silent,001,2022_Oct_13_1024,ProdSingRedoBetween,2021.2.3,59.94981008348772,
72,0,72,0,,,,,,,,,,,,,,,,,,,,,,,,,,749.7299443997908,None,travel,88,73,silent,red,747.7188353999518,None,None,747.7188353999518,None,,,,,,,,,,,,,,,,,,,,,,,,,,,,,,,,,,,61 silent,001,2022_Oct_13_1024,ProdSingRedoBetween,2021.2.3,59.94981008348772,
73,0,73,0,,,,,,,,,,,,,,,,,,,,,,,,,,752.232374599902,None,drama,0,74,silent,yellow,750.2303732999135,None,None,750.2303732999135,None,,,,,,,,,,,,,,,,,,,,,,,,,,,,,,,,,,,61 silent,001,2022_Oct_13_1024,ProdSingRedoBetween,2021.2.3,59.94981008348772,
74,0,74,0,,,,,,,,,,,,,,,,,,,,,,,,,,754.7513951999135,None,subject,49,75,silent,blue,752.7364387998823,None,None,752.7364387998823,None,,,,,,,,,,,,,,,,,,,,,,,,,,,,,,,,,,,61 silent,001,2022_Oct_13_1024,ProdSingRedoBetween,2021.2.3,59.94981008348772,
75,0,75,0,,,,,,,,,,,,,,,,,,,,,,,,,,757.2539469997864,None,meeting,31,76,silent,blue,755.2534465999343,None,None,755.2534465999343,None,,,,,,,,,,,,,,,,,,,,,,,,,,,,,,,,,,,61 silent,001,2022_Oct_13_1024,ProdSingRedoBetween,2021.2.3,59.94981008348772,
76,0,76,0,,,,,,,,,,,,,,,,,,,,,,,,,,759.7565814999398,None,short,81,77,silent,red,757.7546412998345,None,None,757.7546412998345,None,,,,,,,,,,,,,,,,,,,,,,,,,,,,,,,,,,,61 silent,001,2022_Oct_13_1024,ProdSingRedoBetween,2021.2.3,59.94981008348772,
77,0,77,0,,,,,,,,,,,,,,,,,,,,,,,,,,762.2590561998077,None,member,84,78,silent,red,760.2586991998833,None,None,760.2586991998833,None,,,,,,,,,,,,,,,,,,,,,,,,,,,,,,,,,,,61 silent,001,2022_Oct_13_1024,ProdSingRedoBetween,2021.2.3,59.94981008348772,
78,0,78,0,,,,,,,,,,,,,,,,,,,,,,,,,,764.7778935998213,None,narrow,33,79,silent,blue,762.771493999986,None,None,762.771493999986,None,,,,,,,,,,,,,,,,,,,,,,,,,,,,,,,,,,,61 silent,001,2022_Oct_13_1024,ProdSingRedoBetween,2021.2.3,59.94981008348772,
79,0,79,0,,,,,,,,,,,,,,,,,,,,,,,,,,767.2808378997725,None,object,71,80,silent,red,765.2787771997973,None,None,765.2787771997973,None,,,,,,,,,,,,,,,,,,,,,,,,,,,,,,,,,,,61 silent,001,2022_Oct_13_1024,ProdSingRedoBetween,2021.2.3,59.94981008348772,
80,0,80,0,,,,,,,,,,,,,,,,,,,,,,,,,,769.7832308998331,None,running,15,81,silent,yellow,767.7812019998673,None,None,767.7812019998673,None,,,,,,,,,,,,,,,,,,,,,,,,,,,,,,,,,,,61 silent,001,2022_Oct_13_1024,ProdSingRedoBetween,2021.2.3,59.94981008348772,
81,0,81,0,,,,,,,,,,,,,,,,,,,,,,,,,,772.302451599855,None,accident,69,82,silent,red,770.287191499956,None,None,770.287191499956,None,,,,,,,,,,,,,,,,,,,,,,,,,,,,,,,,,,,61 silent,001,2022_Oct_13_1024,ProdSingRedoBetween,2021.2.3,59.94981008348772,
82,0,82,0,,,,,,,,,,,,,,,,,,,,,,,,,,774.8049418998417,None,sweet,83,83,silent,red,772.8028883999214,None,None,772.8028883999214,None,,,,,,,,,,,,,,,,,,,,,,,,,,,,,,,,,,,61 silent,001,2022_Oct_13_1024,ProdSingRedoBetween,2021.2.3,59.94981008348772,
83,0,83,0,,,,,,,,,,,,,,,,,,,,,,,,,,777.3241409999318,None,patient,44,84,silent,blue,775.3185893998016,None,None,775.3185893998016,None,,,,,,,,,,,,,,,,,,,,,,,,,,,,,,,,,,,61 silent,001,2022_Oct_13_1024,ProdSingRedoBetween,2021.2.3,59.94981008348772,
84,0,84,0,,,,,,,,,,,,,,,,,,,,,,,,,,779.8263719999231,None,cover,89,85,silent,red,777.8273199999239,None,None,777.8273199999239,None,,,,,,,,,,,,,,,,,,,,,,,,,,,,,,,,,,,61 silent,001,2022_Oct_13_1024,ProdSingRedoBetween,2021.2.3,59.94981008348772,
85,0,85,0,,,,,,,,,,,,,,,,,,,,,,,,,,782.3290544999763,None,business,79,86,silent,red,780.3289887998253,None,None,780.3289887998253,None,,,,,,,,,,,,,,,,,,,,,,,,,,,,,,,,,,,61 silent,001,2022_Oct_13_1024,ProdSingRedoBetween,2021.2.3,59.94981008348772,
86,0,86,0,,,,,,,,,,,,,,,,,,,,,,,,,,784.8316448999103,None,notice,55,87,silent,blue,782.8297566999681,None,None,782.8297566999681,None,,,,,,,,,,,,,,,,,,,,,,,,,,,,,,,,,,,61 silent,001,2022_Oct_13_1024,ProdSingRedoBetween,2021.2.3,59.94981008348772,
87,0,87,0,,,,,,,,,,,,,,,,,,,,,,,,,,787.334030199796,None,captain,39,88,silent,blue,785.3341286999639,None,None,785.3341286999639,None,,,,,,,,,,,,,,,,,,,,,,,,,,,,,,,,,,,61 silent,001,2022_Oct_13_1024,ProdSingRedoBetween,2021.2.3,59.94981008348772,
88,0,88,0,,,,,,,,,,,,,,,,,,,,,,,,,,789.8365058999043,None,entrance,16,89,silent,yellow,787.8361658998765,None,None,787.8361658998765,None,,,,,,,,,,,,,,,,,,,,,,,,,,,,,,,,,,,61 silent,001,2022_Oct_13_1024,ProdSingRedoBetween,2021.2.3,59.94981008348772,
89,0,89,0,,,,,,,,,,,,,,,,,,,,,,,,,,792.3390659999568,None,management,74,90,silent,red,790.3377797999419,None,None,790.3377797999419,None,,,,,,,,,,,,,,,,,,,,,,,,,,,,,,,,,,,61 silent,001,2022_Oct_13_1024,ProdSingRedoBetween,2021.2.3,59.94981008348772,
,,,,,,,,,,,,,,,,,,,,,,,,,,,,,,,,,,,,,,,,,792.8397459997796,None,k,211.51526629994623,792.8397459997796,None,,,,,,,,,,,,,,,,,,,,,,,,,,,,,61 silent,001,2022_Oct_13_1024,ProdSingRedoBetween,2021.2.3,59.94981008348772,
,,,,0,0,0,0,,,,,,,,,,,,,,,,,,,,,,1018.4979381999001,None,,,,,,,,,,,,,,,,,medicine,139,1,silent,new,null,1004.8903122998308,None,1004.8903122998308,None,6,9.384337899973616,1004.8903122998308,None,9.384337899973616,1014.2976648998447,None,1014.8139695997816,None,1014.8139695997816,None,r,3.6686776001006365,1014.8139695997816,None,3.6686776001006365,,,61 silent,001,2022_Oct_13_1024,ProdSingRedoBetween,2021.2.3,59.94981008348772,
,,,,1,0,1,0,,,,,,,,,,,,,,,,,,,,,,1032.3784795999527,None,,,,,,,,,,,,,,,,,light,164,2,silent,new,null,1019.0070758999791,None,1019.0070758999791,None,6,11.795530799776316,1019.0070758999791,None,11.795530799776316,1030.8280873999465,None,1031.331328799948,None,1031.331328799948,None,r,1.0312208998948336,1031.331328799948,None,1.0312208998948336,,,61 silent,001,2022_Oct_13_1024,ProdSingRedoBetween,2021.2.3,59.94981008348772,
,,,,2,0,2,0,,,,,,,,,,,,,,,,,,,,,,1036.0320539998356,None,,,,,,,,,,,,,,,,,division,173,3,silent,new,null,1032.8912173998542,None,1032.8912173998542,None,6,2.2233953999821097,1032.8912173998542,None,2.2233953999821097,1035.133383399807,None,1035.6484831999987,None,1035.6484831999987,None,r,0.35416049999184906,1035.6484831999987,None,0.35416049999184906,,,61 silent,001,2022_Oct_13_1024,ProdSingRedoBetween,2021.2.3,59.94981008348772,
,,,,3,0,3,0,,,,,,,,,,,,,,,,,,,,,,1039.1528741999064,None,,,,,,,,,,,,,,,,,youth,20,4,silent,old,yellow,1036.535318199778,None,1036.535318199778,None,6,1.7393179999198765,1036.535318199778,None,1.7393179999198765,1038.3103048999328,None,1038.8287926998455,None,1038.8287926998455,None,r,0.29390769987367094,1038.8287926998455,None,0.29390769987367094,,,61 silent,001,2022_Oct_13_1024,ProdSingRedoBetween,2021.2.3,59.94981008348772,
,,,,4,0,4,0,,,,,,,,,,,,,,,,,,,,,,1043.539696399821,None,,,,,,,,,,,,,,,,,judge,13,5,silent,old,yellow,1039.6606259997934,None,1039.6606259997934,None,6,1.9659349999856204,1039.6606259997934,None,1.9659349999856204,1041.6564465998672,None,1042.171805899823,None,1042.171805899823,None,r,1.3428017999976873,1042.171805899823,None,1.3428017999976873,,,61 silent,001,2022_Oct_13_1024,ProdSingRedoBetween,2021.2.3,59.94981008348772,
,,,,5,0,5,0,,,,,,,,,,,,,,,,,,,,,,1046.7925759998616,None,,,,,,,,,,,,,,,,,junior,105,6,silent,new,null,1044.0540297999978,None,1044.0540297999978,None,6,1.8845537998713553,1044.0540297999978,None,1.8845537998713553,1045.959814999951,None,1046.4650894999504,None,1046.4650894999504,None,r,0.2975771001074463,1046.4650894999504,None,0.2975771001074463,,,61 silent,001,2022_Oct_13_1024,ProdSingRedoBetween,2021.2.3,59.94981008348772,
,,,,6,0,6,0,,,,,,,,,,,,,,,,,,,,,,1050.1127961999737,None,,,,,,,,,,,,,,,,,graduate,77,7,silent,old,red,1047.300405799877,None,1047.300405799877,None,6,1.9421737999655306,1047.300405799877,None,1.9421737999655306,1049.2628468999173,None,1049.762659400003,None,1049.762659400003,None,r,0.32795269996859133,1049.762659400003,None,0.32795269996859133,,,61 silent,001,2022_Oct_13_1024,ProdSingRedoBetween,2021.2.3,59.94981008348772,
,,,,7,0,7,0,,,,,,,,,,,,,,,,,,,,,,1059.2055744999088,None,,,,,,,,,,,,,,,,,quantity,40,8,silent,old,blue,1050.6239848998375,None,1050.6239848998375,None,6,5.690649199998006,1050.6239848998375,None,5.690649199998006,1056.3448831997812,None,1056.8528320000041,None,1056.8528320000041,None,r,2.333759999834001,1056.8528320000041,None,2.333759999834001,,,61 silent,001,2022_Oct_13_1024,ProdSingRedoBetween,2021.2.3,59.94981008348772,
,,,,8,0,8,0,,,,,,,,,,,,,,,,,,,,,,1064.945409399923,None,,,,,,,,,,,,,,,,,pretty,108,9,silent,new,null,1059.7085078998934,None,1059.7085078998934,None,6,4.285963400034234,1059.7085078998934,None,4.285963400034234,1064.012352499878,None,1064.5273235999048,None,1064.5273235999048,None,r,0.3952682998497039,1064.5273235999048,None,0.3952682998497039,,,61 silent,001,2022_Oct_13_1024,ProdSingRedoBetween,2021.2.3,59.94981008348772,
,,,,9,0,9,0,,,,,,,,,,,,,,,,,,,,,,1069.5321764999535,None,,,,,,,,,,,,,,,,,curve,47,10,silent,old,blue,1065.4489682998974,None,1065.4489682998974,None,6,2.4975499999709427,1065.4489682998974,None,2.4975499999709427,1067.9659798999783,None,1068.4839949999005,None,1068.4839949999005,None,r,1.0305360001511872,1068.4839949999005,None,1.0305360001511872,,,61 silent,001,2022_Oct_13_1024,ProdSingRedoBetween,2021.2.3,59.94981008348772,
,,,,10,0,10,0,,,,,,,,,,,,,,,,,,,,,,1072.0012458998244,None,,,,,,,,,,,,,,,,,music,166,11,silent,new,null,1070.0441908999346,None,1070.0441908999346,None,6,1.0543251999188215,1070.0441908999346,None,1.0543251999188215,1071.1176627997775,None,1071.6222800998949,None,1071.6222800998949,None,r,0.3562584000173956,1071.6222800998949,None,0.3562584000173956,,,61 silent,001,2022_Oct_13_1024,ProdSingRedoBetween,2021.2.3,59.94981008348772,
,,,,11,0,11,0,,,,,,,,,,,,,,,,,,,,,,1078.191471699858,None,,,,,,,,,,,,,,,,,dispute,70,12,silent,old,red,1072.5145968999714,None,1072.5145968999714,None,4,3.5600805999711156,1072.5145968999714,None,3.5600805999711156,1076.1072625999805,None,1076.6225504998583,None,1076.6225504998583,None,f,1.540042599895969,1076.6225504998583,None,1.540042599895969,,,61 silent,001,2022_Oct_13_1024,ProdSingRedoBetween,2021.2.3,59.94981008348772,
,,,,12,0,12,0,,,,,,,,,,,,,,,,,,,,,,1086.3322537997738,None,,,,,,,,,,,,,,,,,notice,55,13,silent,old,blue,1078.6935434998013,None,1078.6935434998013,None,6,2.037024899851531,1078.6935434998013,None,2.037024899851531,1080.763941799989,None,1081.282347299857,None,1081.282347299857,None,r,5.0321616001892835,1081.282347299857,None,5.0321616001892835,,,61 silent,001,2022_Oct_13_1024,ProdSingRedoBetween,2021.2.3,59.94981008348772,
,,,,13,0,13,0,,,,,,,,,,,,,,,,,,,,,,1090.0859747999348,None,,,,,,,,,,,,,,,,,passage,51,14,silent,old,blue,1086.836515699979,None,1086.836515699979,None,6,2.3180023001041263,1086.836515699979,None,2.3180023001041263,1089.1860290998593,None,1089.6856784999836,None,1089.6856784999836,None,r,0.372753799892962,1089.6856784999836,None,0.372753799892962,,,61 silent,001,2022_Oct_13_1024,ProdSingRedoBetween,2021.2.3,59.94981008348772,
,,,,14,0,14,0,,,,,,,,,,,,,,,,,,,,,,1092.940011399798,None,,,,,,,,,,,,,,,,,cover,89,15,silent,old,red,1090.5928532998078,None,1090.5928532998078,None,6,1.3776616000104696,1090.5928532998078,None,1.3776616000104696,1091.98920359998,None,1092.489513099892,None,1092.489513099892,None,r,0.4250763999298215,1092.489513099892,None,0.4250763999298215,,,61 silent,001,2022_Oct_13_1024,ProdSingRedoBetween,2021.2.3,59.94981008348772,
,,,,15,0,15,0,,,,,,,,,,,,,,,,,,,,,,1096.8622064997908,None,,,,,,,,,,,,,,,,,travel,88,16,silent,old,red,1093.4392370998394,None,1093.4392370998394,None,6,2.4031584998592734,1093.4392370998394,None,2.4031584998592734,1095.861421499867,None,1096.3791447998956,None,1096.3791447998956,None,r,0.46333959978073835,1096.3791447998956,None,0.46333959978073835,,,61 silent,001,2022_Oct_13_1024,ProdSingRedoBetween,2021.2.3,59.94981008348772,
,,,,16,0,16,0,,,,,,,,,,,,,,,,,,,,,,1099.8457138999365,None,,,,,,,,,,,,,,,,,rough,60,17,silent,old,red,1097.377210999839,None,1097.377210999839,None,6,1.64122510002926,1097.377210999839,None,1.64122510002926,1099.0446830999572,None,1099.5481395998504,None,1099.5481395998504,None,r,0.2783862999640405,1099.5481395998504,None,0.2783862999640405,,,61 silent,001,2022_Oct_13_1024,ProdSingRedoBetween,2021.2.3,59.94981008348772,
,,,,17,0,17,0,,,,,,,,,,,,,,,,,,,,,,1102.8153793998063,None,,,,,,,,,,,,,,,,,commercial,138,18,silent,new,null,1100.3547721998766,None,1100.3547721998766,None,6,1.6237159001175314,1100.3547721998766,None,1.6237159001175314,1101.997718299972,None,1102.5021877998952,None,1102.5021877998952,None,r,0.29230650002136827,1102.5021877998952,None,0.29230650002136827,,,61 silent,001,2022_Oct_13_1024,ProdSingRedoBetween,2021.2.3,59.94981008348772,
,,,,18,0,18,0,,,,,,,,,,,,,,,,,,,,,,1105.3345215998124,None,,,,,,,,,,,,,,,,,thing,96,19,silent,new,null,1103.3265136999544,None,1103.3265136999544,None,6,1.2359291000757366,1103.3265136999544,None,1.2359291000757366,1104.5864074998535,None,1105.1011149999686,None,1105.1011149999686,None,r,0.20531079987995327,1105.1011149999686,None,0.20531079987995327,,,61 silent,001,2022_Oct_13_1024,ProdSingRedoBetween,2021.2.3,59.94981008348772,
,,,,19,0,19,0,,,,,,,,,,,,,,,,,,,,,,1108.041166299954,None,,,,,,,,,,,,,,,,,silence,48,20,silent,old,blue,1105.8417462999932,None,1105.8417462999932,None,6,1.3687587999738753,1105.8417462999932,None,1.3687587999738753,1107.2421116000041,None,1107.7537938999012,None,1107.7537938999012,None,r,0.25674459990113974,1107.7537938999012,None,0.25674459990113974,,,61 silent,001,2022_Oct_13_1024,ProdSingRedoBetween,2021.2.3,59.94981008348772,
,,,,20,0,20,0,,,,,,,,,,,,,,,,,,,,,,1110.4229620997794,None,,,,,,,,,,,,,,,,,capital,140,21,silent,new,null,1108.5584086999297,None,1108.5584086999297,None,6,1.0441369998734444,1108.5584086999297,None,1.0441369998734444,1109.6293271998875,None,1110.1425570999272,None,1110.1425570999272,None,r,0.25192960002459586,1110.1425570999272,None,0.25192960002459586,,,61 silent,001,2022_Oct_13_1024,ProdSingRedoBetween,2021.2.3,59.94981008348772,
,,,,21,0,21,0,,,,,,,,,,,,,,,,,,,,,,1113.0761080998927,None,,,,,,,,,,,,,,,,,broke,29,22,silent,old,blue,1110.9282631999813,None,1110.9282631999813,None,6,1.2182446999941021,1110.9282631999813,None,1.2182446999941021,1112.1772135999054,None,1112.694142999826,None,1112.694142999826,None,r,0.3642713001463562,1112.694142999826,None,0.3642713001463562,,,61 silent,001,2022_Oct_13_1024,ProdSingRedoBetween,2021.2.3,59.94981008348772,
,,,,22,0,22,0,,,,,,,,,,,,,,,,,,,,,,1121.483996699797,None,,,,,,,,,,,,,,,,,season,18,23,silent,old,yellow,1113.5791827999055,None,1113.5791827999055,None,6,3.975370100000873,1113.5791827999055,None,3.975370100000873,1117.591496199835,None,1118.097346499795,None,1118.097346499795,None,r,3.361137199914083,1118.097346499795,None,3.361137199914083,,,61 silent,001,2022_Oct_13_1024,ProdSingRedoBetween,2021.2.3,59.94981008348772,
,,,,23,0,23,0,,,,,,,,,,,,,,,,,,,,,,1126.5576306998264,None,,,,,,,,,,,,,,,,,business,79,24,silent,old,red,1122.0014414999168,None,1122.0014414999168,None,6,3.912995500024408,1122.0014414999168,None,3.912995500024408,1125.9403275998775,None,1126.4604947997723,None,1126.4604947997723,None,r,0.07007199991494417,1126.4604947997723,None,0.07007199991494417,,,61 silent,001,2022_Oct_13_1024,ProdSingRedoBetween,2021.2.3,59.94981008348772,
,,,,24,0,24,0,,,,,,,,,,,,,,,,,,,,,,1131.733748300001,None,,,,,,,,,,,,,,,,,produce,100,25,silent,new,null,1127.0776641999837,None,1127.0776641999837,None,6,2.9408930998761207,1127.0776641999837,None,2.9408930998761207,1130.0446110998746,None,1130.5631912997924,None,1130.5631912997924,None,r,1.1352169001474977,1130.5631912997924,None,1.1352169001474977,,,61 silent,001,2022_Oct_13_1024,ProdSingRedoBetween,2021.2.3,59.94981008348772,
,,,,25,0,25,0,,,,,,,,,,,,,,,,,,,,,,1134.1799144998658,None,,,,,,,,,,,,,,,,,waste,134,26,silent,new,null,1132.2631357999053,None,1132.2631357999053,None,6,1.1312499998603016,1132.2631357999053,None,1.1312499998603016,1133.4146495999303,None,1133.93254469987,None,1133.93254469987,None,r,0.22204409982077777,1133.93254469987,None,0.22204409982077777,,,61 silent,001,2022_Oct_13_1024,ProdSingRedoBetween,2021.2.3,59.94981008348772,
,,,,26,0,26,0,,,,,,,,,,,,,,,,,,,,,,1136.765793300001,None,,,,,,,,,,,,,,,,,position,85,27,silent,old,red,1134.6906600999646,None,1134.6906600999646,None,6,1.2317351000383496,1134.6906600999646,None,1.2317351000383496,1135.9496979999822,None,1136.4542135999072,None,1136.4542135999072,None,r,0.28414210001938045,1136.4542135999072,None,0.28414210001938045,,,61 silent,001,2022_Oct_13_1024,ProdSingRedoBetween,2021.2.3,59.94981008348772,
,,,,27,0,27,0,,,,,,,,,,,,,,,,,,,,,,1139.335085899802,None,,,,,,,,,,,,,,,,,phrase,127,28,silent,new,null,1137.2682425999083,None,1137.2682425999083,None,6,1.2061975998803973,1137.2682425999083,None,1.2061975998803973,1138.5037455998827,None,1139.0217414998915,None,1139.0217414998915,None,r,0.2847009999677539,1139.0217414998915,None,0.2847009999677539,,,61 silent,001,2022_Oct_13_1024,ProdSingRedoBetween,2021.2.3,59.94981008348772,
,,,,28,0,28,0,,,,,,,,,,,,,,,,,,,,,,1141.9063007999212,None,,,,,,,,,,,,,,,,,order,179,29,silent,new,null,1139.8473707998637,None,1139.8473707998637,None,6,1.2350832000374794,1139.8473707998637,None,1.2350832000374794,1141.1078133999836,None,1141.6244458998553,None,1141.6244458998553,None,r,0.2501475000753999,1141.6244458998553,None,0.2501475000753999,,,61 silent,001,2022_Oct_13_1024,ProdSingRedoBetween,2021.2.3,59.94981008348772,
,,,,29,0,29,0,,,,,,,,,,,,,,,,,,,,,,1144.6070514998864,None,,,,,,,,,,,,,,,,,drink,176,30,silent,new,null,1142.4226011999417,None,1142.4226011999417,None,6,1.339749899925664,1142.4226011999417,None,1.339749899925664,1143.7928088998888,None,1144.3117433998268,None,1144.3117433998268,None,r,0.2747257000301033,1144.3117433998268,None,0.2747257000301033,,,61 silent,001,2022_Oct_13_1024,ProdSingRedoBetween,2021.2.3,59.94981008348772,
,,,,30,0,30,0,,,,,,,,,,,,,,,,,,,,,,1147.3274204998743,None,,,,,,,,,,,,,,,,,equipment,121,31,silent,new,null,1145.1176930998918,None,1145.1176930998918,None,6,1.3647148001473397,1145.1176930998918,None,1.3647148001473397,1146.5108752998058,None,1147.026288999943,None,1147.026288999943,None,r,0.2802037999499589,1147.026288999943,None,0.2802037999499589,,,61 silent,001,2022_Oct_13_1024,ProdSingRedoBetween,2021.2.3,59.94981008348772,
,,,,31,0,31,0,,,,,,,,,,,,,,,,,,,,,,1149.9957032999955,None,,,,,,,,,,,,,,,,,member,84,32,silent,old,red,1147.8296185999643,None,1147.8296185999643,None,6,1.3327443001326174,1147.8296185999643,None,1.3327443001326174,1149.1791362999938,None,1149.681720299879,None,1149.681720299879,None,r,0.28879570006392896,1149.681720299879,None,0.28879570006392896,,,61 silent,001,2022_Oct_13_1024,ProdSingRedoBetween,2021.2.3,59.94981008348772,
,,,,32,0,32,0,,,,,,,,,,,,,,,,,,,,,,1153.4834170998074,None,,,,,,,,,,,,,,,,,account,36,33,silent,old,blue,1150.5058568997774,None,1150.5058568997774,None,6,2.096715100109577,1150.5058568997774,None,2.096715100109577,1152.6436375998892,None,1153.1486819998827,None,1153.1486819998827,None,r,0.3096652999520302,1153.1486819998827,None,0.3096652999520302,,,61 silent,001,2022_Oct_13_1024,ProdSingRedoBetween,2021.2.3,59.94981008348772,
,,,,33,0,33,0,,,,,,,,,,,,,,,,,,,,,,1156.4354754998349,None,,,,,,,,,,,,,,,,,subject,49,34,silent,old,blue,1153.9831259998027,None,1153.9831259998027,None,6,1.5952706998214126,1153.9831259998027,None,1.5952706998214126,1155.6044611998368,None,1156.1222452998627,None,1156.1222452998627,None,r,0.2961122998967767,1156.1222452998627,None,0.2961122998967767,,,61 silent,001,2022_Oct_13_1024,ProdSingRedoBetween,2021.2.3,59.94981008348772,
,,,,34,0,34,0,,,,,,,,,,,,,,,,,,,,,,1159.104814399965,None,,,,,,,,,,,,,,,,,answer,73,35,silent,old,red,1156.9392920997925,None,1156.9392920997925,None,6,1.3112260000780225,1156.9392920997925,None,1.3112260000780225,1158.27374889981,None,1158.7899015999865,None,1158.7899015999865,None,r,0.2846315000206232,1158.7899015999865,None,0.2846315000206232,,,61 silent,001,2022_Oct_13_1024,ProdSingRedoBetween,2021.2.3,59.94981008348772,
,,,,35,0,35,0,,,,,,,,,,,,,,,,,,,,,,1168.9144648998044,None,,,,,,,,,,,,,,,,,colonel,129,36,silent,new,null,1159.6071290997788,None,1159.6071290997788,None,5,7.523305099923164,1159.6071290997788,None,7.523305099923164,1167.1527965997811,None,1167.6638770999853,None,1167.6638770999853,None,f,1.2344960998743773,1167.6638770999853,None,1.2344960998743773,,,61 silent,001,2022_Oct_13_1024,ProdSingRedoBetween,2021.2.3,59.94981008348772,
,,,,36,0,36,0,,,,,,,,,,,,,,,,,,,,,,1175.5396836998407,None,,,,,,,,,,,,,,,,,sight,42,37,silent,old,blue,1169.4152102998924,None,1169.4152102998924,None,6,5.107092899968848,1169.4152102998924,None,5.107092899968848,1174.5535448999144,None,1175.0582500998862,None,1175.0582500998862,None,r,0.4561737000476569,1175.0582500998862,None,0.4561737000476569,,,61 silent,001,2022_Oct_13_1024,ProdSingRedoBetween,2021.2.3,59.94981008348772,
,,,,37,0,37,0,,,,,,,,,,,,,,,,,,,,,,1178.6743562999181,None,,,,,,,,,,,,,,,,,murder,117,38,silent,new,null,1176.0552314999513,None,1176.0552314999513,None,6,1.659152900101617,1176.0552314999513,None,1.659152900101617,1177.7410685999785,None,1178.2406336998101,None,1178.2406336998101,None,r,0.41773239988833666,1178.2406336998101,None,0.41773239988833666,,,61 silent,001,2022_Oct_13_1024,ProdSingRedoBetween,2021.2.3,59.94981008348772,
,,,,38,0,38,0,,,,,,,,,,,,,,,,,,,,,,1181.3267957998905,None,,,,,,,,,,,,,,,,,thick,87,39,silent,old,red,1179.1836940997746,None,1179.1836940997746,None,6,1.2666788999922574,1179.1836940997746,None,1.2666788999922574,1180.4768634999637,None,1180.9809511997737,None,1180.9809511997737,None,r,0.3254411001689732,1180.9809511997737,None,0.3254411001689732,,,61 silent,001,2022_Oct_13_1024,ProdSingRedoBetween,2021.2.3,59.94981008348772,
,,,,39,0,39,0,,,,,,,,,,,,,,,,,,,,,,1184.4467080999166,None,,,,,,,,,,,,,,,,,power,177,40,silent,new,null,1181.838919899892,None,1181.838919899892,None,6,1.6673143999651074,1181.838919899892,None,1.6673143999651074,1183.5347237999085,None,1184.0463995998725,None,1184.0463995998725,None,r,0.37189620011486113,1184.0463995998725,None,0.37189620011486113,,,61 silent,001,2022_Oct_13_1024,ProdSingRedoBetween,2021.2.3,59.94981008348772,
,,,,40,0,40,0,,,,,,,,,,,,,,,,,,,,,,1187.3663232999388,None,,,,,,,,,,,,,,,,,foundation,114,41,silent,new,null,1184.9585816999897,None,1184.9585816999897,None,6,1.5396477000322193,1184.9585816999897,None,1.5396477000322193,1186.5259627997875,None,1187.0357673999388,None,1187.0357673999388,None,r,0.3025342000182718,1187.0357673999388,None,0.3025342000182718,,,61 silent,001,2022_Oct_13_1024,ProdSingRedoBetween,2021.2.3,59.94981008348772,
,,,,41,0,41,0,,,,,,,,,,,,,,,,,,,,,,1190.0356901998166,None,,,,,,,,,,,,,,,,,entrance,16,42,silent,old,yellow,1187.8740139999427,None,1187.8740139999427,None,6,1.3043325999751687,1187.8740139999427,None,1.3043325999751687,1189.2022073999979,None,1189.706322599901,None,1189.706322599901,None,r,0.31202560011297464,1189.706322599901,None,0.31202560011297464,,,61 silent,001,2022_Oct_13_1024,ProdSingRedoBetween,2021.2.3,59.94981008348772,
,,,,42,0,42,0,,,,,,,,,,,,,,,,,,,,,,1192.304543999955,None,,,,,,,,,,,,,,,,,appearance,66,43,silent,old,red,1190.546731899958,None,1190.546731899958,None,6,0.8796540000475943,1190.546731899958,None,0.8796540000475943,1191.4633646998554,None,1191.9709232999012,None,1191.9709232999012,None,r,0.30332990013994277,1191.9709232999012,None,0.30332990013994277,,,61 silent,001,2022_Oct_13_1024,ProdSingRedoBetween,2021.2.3,59.94981008348772,
,,,,43,0,43,0,,,,,,,,,,,,,,,,,,,,,,1194.7903679998126,None,,,,,,,,,,,,,,,,,whole,161,44,silent,new,null,1192.812614099821,None,1192.812614099821,None,6,1.1336447999347001,1192.812614099821,None,1.1336447999347001,1193.973865199834,None,1194.4786126997788,None,1194.4786126997788,None,r,0.28372299997135997,1194.4786126997788,None,0.28372299997135997,,,61 silent,001,2022_Oct_13_1024,ProdSingRedoBetween,2021.2.3,59.94981008348772,
,,,,44,0,44,0,,,,,,,,,,,,,,,,,,,,,,1197.1094788999762,None,,,,,,,,,,,,,,,,,captain,39,45,silent,old,blue,1195.2964097999502,None,1195.2964097999502,None,6,0.9779682999942452,1195.2964097999502,None,0.9779682999942452,1196.2975669999141,None,1196.81167739979,None,1196.81167739979,None,r,0.27874379977583885,1196.81167739979,None,0.27874379977583885,,,61 silent,001,2022_Oct_13_1024,ProdSingRedoBetween,2021.2.3,59.94981008348772,
,,,,45,0,45,0,,,,,,,,,,,,,,,,,,,,,,1199.5951761999168,None,,,,,,,,,,,,,,,,,report,38,46,silent,old,blue,1197.6183403998148,None,1197.6183403998148,None,6,1.0879683999810368,1197.6183403998148,None,1.0879683999810368,1198.7288832999766,None,1199.2290961998515,None,1199.2290961998515,None,r,0.3492098997812718,1199.2290961998515,None,0.3492098997812718,,,61 silent,001,2022_Oct_13_1024,ProdSingRedoBetween,2021.2.3,59.94981008348772,
,,,,46,0,46,0,,,,,,,,,,,,,,,,,,,,,,1202.16881809989,None,,,,,,,,,,,,,,,,,interview,154,47,silent,new,null,1200.1078836999368,None,1200.1078836999368,None,6,1.1504261000081897,1200.1078836999368,None,1.1504261000081897,1201.2826474998146,None,1201.8044224998448,None,1201.8044224998448,None,r,0.3342164000496268,1201.8044224998448,None,0.3342164000496268,,,61 silent,001,2022_Oct_13_1024,ProdSingRedoBetween,2021.2.3,59.94981008348772,
,,,,47,0,47,0,,,,,,,,,,,,,,,,,,,,,,1204.9669654997997,None,,,,,,,,,,,,,,,,,narrow,33,48,silent,old,blue,1202.6872856998816,None,1202.6872856998816,None,6,1.307026500115171,1202.6872856998816,None,1.307026500115171,1204.0173582998104,None,1204.5169249000028,None,1204.5169249000028,None,r,0.42940520006231964,1204.5169249000028,None,0.42940520006231964,,,61 silent,001,2022_Oct_13_1024,ProdSingRedoBetween,2021.2.3,59.94981008348772,
,,,,48,0,48,0,,,,,,,,,,,,,,,,,,,,,,1208.155284699984,None,,,,,,,,,,,,,,,,,drama,0,49,silent,old,yellow,1205.4748695997987,None,1205.4748695997987,None,6,1.7354476999025792,1205.4748695997987,None,1.7354476999025792,1207.2359034998808,None,1207.745564099867,None,1207.745564099867,None,r,0.3848840999417007,1207.745564099867,None,0.3848840999417007,,,61 silent,001,2022_Oct_13_1024,ProdSingRedoBetween,2021.2.3,59.94981008348772,
,,,,49,0,49,0,,,,,,,,,,,,,,,,,,,,,,1210.9898888999596,None,,,,,,,,,,,,,,,,,strength,59,50,silent,old,yellow,1208.6756342998706,None,1208.6756342998706,None,6,1.3586959999520332,1208.6756342998706,None,1.3586959999520332,1210.0556360997725,None,1210.5617059997749,None,1210.5617059997749,None,r,0.4005634000059217,1210.5617059997749,None,0.4005634000059217,,,61 silent,001,2022_Oct_13_1024,ProdSingRedoBetween,2021.2.3,59.94981008348772,
,,,,50,0,50,0,,,,,,,,,,,,,,,,,,,,,,1217.7474094999488,None,,,,,,,,,,,,,,,,,chief,174,51,silent,new,null,1211.496820999775,None,1211.496820999775,None,6,3.0414875000715256,1211.496820999775,None,3.0414875000715256,1214.5613565999083,None,1215.0656882999465,None,1215.0656882999465,None,f,2.6651842000428587,1215.0656882999465,None,2.6651842000428587,,,61 silent,001,2022_Oct_13_1024,ProdSingRedoBetween,2021.2.3,59.94981008348772,
,,,,51,0,51,0,,,,,,,,,,,,,,,,,,,,,,1222.284834299935,None,,,,,,,,,,,,,,,,,stranger,160,52,silent,new,null,1218.2538486998528,None,1218.2538486998528,None,6,3.0204527999740094,1218.2538486998528,None,3.0204527999740094,1221.3043250998016,None,1221.8206932998728,None,1221.8206932998728,None,r,0.4375313001219183,1221.8206932998728,None,0.4375313001219183,,,61 silent,001,2022_Oct_13_1024,ProdSingRedoBetween,2021.2.3,59.94981008348772,
,,,,52,0,52,0,,,,,,,,,,,,,,,,,,,,,,1225.3375819998328,None,,,,,,,,,,,,,,,,,finish,25,53,silent,old,yellow,1222.792864699848,None,1222.792864699848,None,6,1.6333952001295984,1222.792864699848,None,1.6333952001295984,1224.4534969998058,None,1224.9579724997748,None,1224.9579724997748,None,r,0.3483450000640005,1224.9579724997748,None,0.3483450000640005,,,61 silent,001,2022_Oct_13_1024,ProdSingRedoBetween,2021.2.3,59.94981008348772,
,,,,53,0,53,0,,,,,,,,,,,,,,,,,,,,,,1228.0235056998208,None,,,,,,,,,,,,,,,,,break,50,54,silent,old,blue,1225.852292999858,None,1225.852292999858,None,6,1.3177425998728722,1225.852292999858,None,1.3177425998728722,1227.1901795999147,None,1227.6899962997995,None,1227.6899962997995,None,r,0.3123548999428749,1227.6899962997995,None,0.3123548999428749,,,61 silent,001,2022_Oct_13_1024,ProdSingRedoBetween,2021.2.3,59.94981008348772,
,,,,54,0,54,0,,,,,,,,,,,,,,,,,,,,,,1230.9097560998052,None,,,,,,,,,,,,,,,,,sweet,83,55,silent,old,red,1228.5264910999686,None,1228.5264910999686,None,6,1.595773700159043,1228.5264910999686,None,1.595773700159043,1230.1423690998927,None,1230.6429731999524,None,1230.6429731999524,None,r,0.24730019993148744,1230.6429731999524,None,0.24730019993148744,,,61 silent,001,2022_Oct_13_1024,ProdSingRedoBetween,2021.2.3,59.94981008348772,
,,,,55,0,55,0,,,,,,,,,,,,,,,,,,,,,,1233.7686006999575,None,,,,,,,,,,,,,,,,,speech,156,56,silent,new,null,1231.4196427999996,None,1231.4196427999996,None,6,1.3985957999248058,1231.4196427999996,None,1.3985957999248058,1232.8459932999685,None,1233.3522328999825,None,1233.3522328999825,None,r,0.39418020006269217,1233.3522328999825,None,0.39418020006269217,,,61 silent,001,2022_Oct_13_1024,ProdSingRedoBetween,2021.2.3,59.94981008348772,
,,,,56,0,56,0,,,,,,,,,,,,,,,,,,,,,,1238.884174599778,None,,,,,,,,,,,,,,,,,provision,35,57,silent,old,blue,1234.2807462997735,None,1234.2807462997735,None,4,3.0574378999881446,1234.2807462997735,None,3.0574378999881446,1237.3692646999843,None,1237.8834673999809,None,1237.8834673999809,None,f,0.9748621999751776,1237.8834673999809,None,0.9748621999751776,,,61 silent,001,2022_Oct_13_1024,ProdSingRedoBetween,2021.2.3,59.94981008348772,
,,,,57,0,57,0,,,,,,,,,,,,,,,,,,,,,,1244.7735383999534,None,,,,,,,,,,,,,,,,,error,152,58,silent,new,null,1239.3911488999147,None,1239.3911488999147,None,5,3.3950791999232024,1239.3911488999147,None,3.3950791999232024,1242.8079888999928,None,1243.321997899795,None,1243.321997899795,None,r,1.4242161000147462,1243.321997899795,None,1.4242161000147462,,,61 silent,001,2022_Oct_13_1024,ProdSingRedoBetween,2021.2.3,59.94981008348772,
,,,,58,0,58,0,,,,,,,,,,,,,,,,,,,,,,1251.4634241999593,None,,,,,,,,,,,,,,,,,patient,44,59,silent,old,blue,1245.2797563998029,None,1245.2797563998029,None,6,3.3145135999657214,1245.2797563998029,None,3.3145135999657214,1248.611768099945,None,1249.1155975998845,None,1249.1155975998845,None,r,2.318825300084427,1249.1155975998845,None,2.318825300084427,,,61 silent,001,2022_Oct_13_1024,ProdSingRedoBetween,2021.2.3,59.94981008348772,
,,,,59,0,59,0,,,,,,,,,,,,,,,,,,,,,,1254.14949589991,None,,,,,,,,,,,,,,,,,course,12,60,silent,old,yellow,1251.9671868998557,None,1251.9671868998557,None,6,1.6110483999364078,1251.9671868998557,None,1.6110483999364078,1253.6033107999247,None,1254.1209898998495,None,1254.1209898998495,None,r,0.009184799855574965,1254.1209898998495,None,0.009184799855574965,,,61 silent,001,2022_Oct_13_1024,ProdSingRedoBetween,2021.2.3,59.94981008348772,
,,,,60,0,60,0,,,,,,,,,,,,,,,,,,,,,,1257.7532581998967,None,,,,,,,,,,,,,,,,,group,34,61,silent,old,blue,1254.656167899957,None,1254.656167899957,None,6,2.234075600048527,1254.656167899957,None,2.234075600048527,1256.9198831999674,None,1257.4196650998201,None,1257.4196650998201,None,r,0.3026000999379903,1257.4196650998201,None,0.3026000999379903,,,61 silent,001,2022_Oct_13_1024,ProdSingRedoBetween,2021.2.3,59.94981008348772,
,,,,61,0,61,0,,,,,,,,,,,,,,,,,,,,,,1259.8219159999862,None,,,,,,,,,,,,,,,,,meeting,31,62,silent,old,blue,1258.2598132998683,None,1258.2598132998683,None,6,0.7664401999209076,1258.2598132998683,None,0.7664401999209076,1259.0576108999085,None,1259.571502899984,None,1259.571502899984,None,r,0.23080889997072518,1259.571502899984,None,0.23080889997072518,,,61 silent,001,2022_Oct_13_1024,ProdSingRedoBetween,2021.2.3,59.94981008348772,
,,,,62,0,62,0,,,,,,,,,,,,,,,,,,,,,,1262.3606137000024,None,,,,,,,,,,,,,,,,,comfort,65,63,silent,old,red,1260.33380269981,None,1260.33380269981,None,6,0.9003592999652028,1260.33380269981,None,0.9003592999652028,1261.2588333999738,None,1261.7739712998737,None,1261.7739712998737,None,r,0.5643031001091003,1261.7739712998737,None,0.5643031001091003,,,61 silent,001,2022_Oct_13_1024,ProdSingRedoBetween,2021.2.3,59.94981008348772,
,,,,63,0,63,0,,,,,,,,,,,,,,,,,,,,,,1265.0784616998862,None,,,,,,,,,,,,,,,,,article,113,64,silent,new,null,1262.88695129985,None,1262.88695129985,None,6,1.3951890000607818,1262.88695129985,None,1.3951890000607818,1264.3103561999742,None,1264.8138927998953,None,1264.8138927998953,None,r,0.24445519992150366,1264.8138927998953,None,0.24445519992150366,,,61 silent,001,2022_Oct_13_1024,ProdSingRedoBetween,2021.2.3,59.94981008348772,
,,,,64,0,64,0,,,,,,,,,,,,,,,,,,,,,,1268.4803342998493,None,,,,,,,,,,,,,,,,,fight,10,65,silent,old,yellow,1265.582606599899,None,1265.582606599899,None,6,2.067589499987662,1265.582606599899,None,2.067589499987662,1267.680721099954,None,1268.1887509999797,None,1268.1887509999797,None,r,0.26162480004131794,1268.1887509999797,None,0.26162480004131794,,,61 silent,001,2022_Oct_13_1024,ProdSingRedoBetween,2021.2.3,59.94981008348772,
,,,,65,0,65,0,,,,,,,,,,,,,,,,,,,,,,1271.2333061997779,None,,,,,,,,,,,,,,,,,safety,110,66,silent,new,null,1268.9848721998278,None,1268.9848721998278,None,6,1.3934267999138683,1268.9848721998278,None,1.3934267999138683,1270.4003819997888,None,1270.899533699965,None,1270.899533699965,None,r,0.3027569998521358,1270.899533699965,None,0.3027569998521358,,,61 silent,001,2022_Oct_13_1024,ProdSingRedoBetween,2021.2.3,59.94981008348772,
,,,,66,0,66,0,,,,,,,,,,,,,,,,,,,,,,1274.0697592999786,None,,,,,,,,,,,,,,,,,resistance,120,67,silent,new,null,1271.7459372999147,None,1271.7459372999147,None,6,1.4001770000904799,1271.7459372999147,None,1.4001770000904799,1273.170383399818,None,1273.685629399959,None,1273.685629399959,None,r,0.3644772002007812,1273.685629399959,None,0.3644772002007812,,,61 silent,001,2022_Oct_13_1024,ProdSingRedoBetween,2021.2.3,59.94981008348772,
,,,,67,0,67,0,,,,,,,,,,,,,,,,,,,,,,1277.0057436998468,None,,,,,,,,,,,,,,,,,still,26,68,silent,old,yellow,1274.5701222999487,None,1274.5701222999487,None,6,1.5680607999674976,1274.5701222999487,None,1.5680607999674976,1276.1548490999267,None,1276.6600153998006,None,1276.6600153998006,None,r,0.3261891999281943,1276.6600153998006,None,0.3261891999281943,,,61 silent,001,2022_Oct_13_1024,ProdSingRedoBetween,2021.2.3,59.94981008348772,
,,,,68,0,68,0,,,,,,,,,,,,,,,,,,,,,,1279.6097353999503,None,,,,,,,,,,,,,,,,,build,92,69,silent,new,null,1277.5098802999128,None,1277.5098802999128,None,6,1.2283109999261796,1277.5098802999128,None,1.2283109999261796,1278.758446399821,None,1279.2581438999623,None,1279.2581438999623,None,r,0.3201174000278115,1279.2581438999623,None,0.3201174000278115,,,61 silent,001,2022_Oct_13_1024,ProdSingRedoBetween,2021.2.3,59.94981008348772,
,,,,69,0,69,0,,,,,,,,,,,,,,,,,,,,,,1282.21545769996,None,,,,,,,,,,,,,,,,,design,37,70,silent,old,blue,1280.1232246998698,None,1280.1232246998698,None,6,1.0469380000140518,1280.1232246998698,None,1.0469380000140518,1281.1963396999054,None,1281.7186118999962,None,1281.7186118999962,None,r,0.4676391000393778,1281.7186118999962,None,0.4676391000393778,,,61 silent,001,2022_Oct_13_1024,ProdSingRedoBetween,2021.2.3,59.94981008348772,
,,,,70,0,70,0,,,,,,,,,,,,,,,,,,,,,,1284.8320769998245,None,,,,,,,,,,,,,,,,,agreement,104,71,silent,new,null,1282.74386219983,None,1282.74386219983,None,6,1.1783787999302149,1282.74386219983,None,1.1783787999302149,1283.9525061999448,None,1284.4633605999406,None,1284.4633605999406,None,r,0.3468239000067115,1284.4633605999406,None,0.3468239000067115,,,61 silent,001,2022_Oct_13_1024,ProdSingRedoBetween,2021.2.3,59.94981008348772,
,,,,71,0,71,0,,,,,,,,,,,,,,,,,,,,,,1287.2492988999002,None,,,,,,,,,,,,,,,,,range,132,72,silent,new,null,1285.3474585998338,None,1285.3474585998338,None,6,0.9588158999104053,1285.3474585998338,None,0.9588158999104053,1286.342149599921,None,1286.8489758998621,None,1286.8489758998621,None,r,0.36930819996632636,1286.8489758998621,None,0.36930819996632636,,,61 silent,001,2022_Oct_13_1024,ProdSingRedoBetween,2021.2.3,59.94981008348772,
,,,,72,0,72,0,,,,,,,,,,,,,,,,,,,,,,1289.7183685998898,None,,,,,,,,,,,,,,,,,afternoon,6,73,silent,old,yellow,1287.7526545999572,None,1287.7526545999572,None,6,1.0174543000757694,1287.7526545999572,None,1.0174543000757694,1288.80318789999,None,1289.3181797999423,None,1289.3181797999423,None,r,0.3801192999817431,1289.3181797999423,None,0.3801192999817431,,,61 silent,001,2022_Oct_13_1024,ProdSingRedoBetween,2021.2.3,59.94981008348772,
,,,,73,0,73,0,,,,,,,,,,,,,,,,,,,,,,1304.8168249998707,None,,,,,,,,,,,,,,,,,shear,112,74,silent,new,null,1290.2217233998235,None,1290.2217233998235,None,3,9.676423899829388,1290.2217233998235,None,9.676423899829388,1299.9304823998827,None,1300.4458605998661,None,1300.4458605998661,None,n,4.348286100197583,1300.4458605998661,None,4.348286100197583,,,61 silent,001,2022_Oct_13_1024,ProdSingRedoBetween,2021.2.3,59.94981008348772,
,,,,74,0,74,0,,,,,,,,,,,,,,,,,,,,,,1309.4548057999928,None,,,,,,,,,,,,,,,,,raise,141,75,silent,new,null,1305.327276899945,None,1305.327276899945,None,6,2.330928700044751,1305.327276899945,None,2.330928700044751,1307.692551399814,None,1308.203579899855,None,1308.203579899855,None,r,1.2225791001692414,1308.203579899855,None,1.2225791001692414,,,61 silent,001,2022_Oct_13_1024,ProdSingRedoBetween,2021.2.3,59.94981008348772,
,,,,75,0,75,0,,,,,,,,,,,,,,,,,,,,,,1312.5245224998798,None,,,,,,,,,,,,,,,,,mechanical,82,76,silent,old,red,1309.964665699983,None,1309.964665699983,None,6,1.2135063998866826,1309.964665699983,None,1.2135063998866826,1311.2070539998822,None,1311.7068117999006,None,1311.7068117999006,None,r,0.7912993000354618,1311.7068117999006,None,0.7912993000354618,,,61 silent,001,2022_Oct_13_1024,ProdSingRedoBetween,2021.2.3,59.94981008348772,
,,,,76,0,76,0,,,,,,,,,,,,,,,,,,,,,,1315.178598499857,None,,,,,,,,,,,,,,,,,cross,131,77,silent,new,null,1313.0252760997973,None,1313.0252760997973,None,6,1.2809276999905705,1313.0252760997973,None,1.2809276999905705,1314.3349470999092,None,1314.8465171998832,None,1314.8465171998832,None,r,0.3078514998778701,1314.8465171998832,None,0.3078514998778701,,,61 silent,001,2022_Oct_13_1024,ProdSingRedoBetween,2021.2.3,59.94981008348772,
,,,,77,0,77,0,,,,,,,,,,,,,,,,,,,,,,1317.2958278998267,None,,,,,,,,,,,,,,,,,court,155,78,silent,new,null,1315.6863393997774,None,1315.6863393997774,None,6,0.7317596001084894,1315.6863393997774,None,0.7317596001084894,1316.4465254999232,None,1316.9472609998193,None,1316.9472609998193,None,r,0.31885950011201203,1316.9472609998193,None,0.31885950011201203,,,61 silent,001,2022_Oct_13_1024,ProdSingRedoBetween,2021.2.3,59.94981008348772,
,,,,78,0,78,0,,,,,,,,,,,,,,,,,,,,,,1319.4480937998742,None,,,,,,,,,,,,,,,,,bicycle,56,79,silent,old,blue,1317.7973109998275,None,1317.7973109998275,None,6,0.7327576000243425,1317.7973109998275,None,0.7327576000243425,1318.5502586998045,None,1319.0674388997722,None,1319.0674388997722,None,r,0.3507449999451637,1319.0674388997722,None,0.3507449999451637,,,61 silent,001,2022_Oct_13_1024,ProdSingRedoBetween,2021.2.3,59.94981008348772,
,,,,79,0,79,0,,,,,,,,,,,,,,,,,,,,,,1323.8688913998194,None,,,,,,,,,,,,,,,,,conference,119,80,silent,new,null,1319.9589154999703,None,1319.9589154999703,None,6,2.6434178999625146,1319.9589154999703,None,2.6434178999625146,1322.6259944997728,None,1323.1350157998968,None,1323.1350157998968,None,r,0.7070702000055462,1323.1350157998968,None,0.7070702000055462,,,61 silent,001,2022_Oct_13_1024,ProdSingRedoBetween,2021.2.3,59.94981008348772,
,,,,80,0,80,0,,,,,,,,,,,,,,,,,,,,,,1327.8743343998212,None,,,,,,,,,,,,,,,,,clear,24,81,silent,old,yellow,1324.3791604998987,None,1324.3791604998987,None,6,2.6950366999953985,1324.3791604998987,None,2.6950366999953985,1327.1084368999582,None,1327.6229719999246,None,1327.6229719999246,None,r,0.23522559995763004,1327.6229719999246,None,0.23522559995763004,,,61 silent,001,2022_Oct_13_1024,ProdSingRedoBetween,2021.2.3,59.94981008348772,
,,,,81,0,81,0,,,,,,,,,,,,,,,,,,,,,,1331.1264372998849,None,,,,,,,,,,,,,,,,,heavy,5,82,silent,old,yellow,1328.3770223998,None,1328.3770223998,None,6,1.921016599982977,1328.3770223998,None,1.921016599982977,1330.3291223999113,None,1330.8504248999525,None,1330.8504248999525,None,r,0.2556431998964399,1330.8504248999525,None,0.2556431998964399,,,61 silent,001,2022_Oct_13_1024,ProdSingRedoBetween,2021.2.3,59.94981008348772,
,,,,82,0,82,0,,,,,,,,,,,,,,,,,,,,,,1333.7621990998741,None,,,,,,,,,,,,,,,,,write,178,83,silent,new,null,1331.6382739997935,None,1331.6382739997935,None,6,1.187932400032878,1331.6382739997935,None,1.187932400032878,1332.851712799864,None,1333.3619702998549,None,1333.3619702998549,None,r,0.3760055999737233,1333.3619702998549,None,0.3760055999737233,,,61 silent,001,2022_Oct_13_1024,ProdSingRedoBetween,2021.2.3,59.94981008348772,
,,,,83,0,83,0,,,,,,,,,,,,,,,,,,,,,,1335.9812026999425,None,,,,,,,,,,,,,,,,,master,102,84,silent,new,null,1334.2733189999126,None,1334.2733189999126,None,6,0.8487676000222564,1334.2733189999126,None,0.8487676000222564,1335.1482617999427,None,1335.6548634998035,None,1335.6548634998035,None,r,0.3072196999564767,1335.6548634998035,None,0.3072196999564767,,,61 silent,001,2022_Oct_13_1024,ProdSingRedoBetween,2021.2.3,59.94981008348772,
,,,,84,0,84,0,,,,,,,,,,,,,,,,,,,,,,1338.1845495000016,None,,,,,,,,,,,,,,,,,literature,23,85,silent,old,yellow,1336.4880311999004,None,1336.4880311999004,None,6,0.8420804999768734,1336.4880311999004,None,0.8420804999768734,1337.3524198997766,None,1337.8696151999757,None,1337.8696151999757,None,r,0.292523100040853,1337.8696151999757,None,0.292523100040853,,,61 silent,001,2022_Oct_13_1024,ProdSingRedoBetween,2021.2.3,59.94981008348772,
,,,,85,0,85,0,,,,,,,,,,,,,,,,,,,,,,1342.3560175998136,None,,,,,,,,,,,,,,,,,platform,97,86,silent,new,null,1338.6881192999426,None,1338.6881192999426,None,5,2.1942401002161205,1338.6881192999426,None,2.1942401002161205,1340.9064091998152,None,1341.425444799941,None,1341.425444799941,None,r,0.904664000030607,1341.425444799941,None,0.904664000030607,,,61 silent,001,2022_Oct_13_1024,ProdSingRedoBetween,2021.2.3,59.94981008348772,
,,,,86,0,86,0,,,,,,,,,,,,,,,,,,,,,,1346.2581745998468,None,,,,,,,,,,,,,,,,,territory,128,87,silent,new,null,1342.871986299986,None,1342.871986299986,None,4,2.186121799983084,1342.871986299986,None,2.186121799983084,1345.0766037998255,None,1345.5948184998706,None,1345.5948184998706,None,r,0.6394058999139816,1345.5948184998706,None,0.6394058999139816,,,61 silent,001,2022_Oct_13_1024,ProdSingRedoBetween,2021.2.3,59.94981008348772,
,,,,87,0,87,0,,,,,,,,,,,,,,,,,,,,,,1352.364252799889,None,,,,,,,,,,,,,,,,,volume,116,88,silent,new,null,1346.7629239999224,None,1346.7629239999224,None,5,4.1510651998687536,1346.7629239999224,None,4.1510651998687536,1350.930654299911,None,1351.4300302998163,None,1351.4300302998163,None,r,0.9080077998805791,1351.4300302998163,None,0.9080077998805791,,,61 silent,001,2022_Oct_13_1024,ProdSingRedoBetween,2021.2.3,59.94981008348772,
,,,,88,0,88,0,,,,,,,,,,,,,,,,,,,,,,1359.404616399901,None,,,,,,,,,,,,,,,,,route,27,89,silent,old,yellow,1352.8733838999178,None,1352.8733838999178,None,6,5.176658799871802,1352.8733838999178,None,5.176658799871802,1358.0717324998695,None,1358.588374399813,None,1358.588374399813,None,r,0.7895688998978585,1358.588374399813,None,0.7895688998978585,,,61 silent,001,2022_Oct_13_1024,ProdSingRedoBetween,2021.2.3,59.94981008348772,
,,,,89,0,89,0,,,,,,,,,,,,,,,,,,,,,,1366.8811758998781,None,,,,,,,,,,,,,,,,,research,90,90,silent,new,null,1359.9149884998333,None,1359.9149884998333,None,6,4.9110192998778075,1359.9149884998333,None,4.9110192998778075,1364.8444150998257,None,1365.3438795998227,None,1365.3438795998227,None,r,1.5062800999730825,1365.3438795998227,None,1.5062800999730825,,,61 silent,001,2022_Oct_13_1024,ProdSingRedoBetween,2021.2.3,59.94981008348772,
,,,,90,0,90,0,,,,,,,,,,,,,,,,,,,,,,1370.231991399778,None,,,,,,,,,,,,,,,,,primary,144,91,silent,new,null,1367.3984838998877,None,1367.3984838998877,None,6,2.011711300117895,1367.3984838998877,None,2.011711300117895,1369.4311711997725,None,1369.9397341997828,None,1369.9397341997828,None,r,0.26231030002236366,1369.9397341997828,None,0.26231030002236366,,,61 silent,001,2022_Oct_13_1024,ProdSingRedoBetween,2021.2.3,59.94981008348772,
,,,,91,0,91,0,,,,,,,,,,,,,,,,,,,,,,1372.3174435999244,None,,,,,,,,,,,,,,,,,emergency,147,92,silent,new,null,1370.7355599999428,None,1370.7355599999428,None,6,0.7705035998951644,1370.7355599999428,None,0.7705035998951644,1371.5377598998602,None,1372.0560082998127,None,1372.0560082998127,None,r,0.23407529992982745,1372.0560082998127,None,0.23407529992982745,,,61 silent,001,2022_Oct_13_1024,ProdSingRedoBetween,2021.2.3,59.94981008348772,
,,,,92,0,92,0,,,,,,,,,,,,,,,,,,,,,,1374.8366853999905,None,,,,,,,,,,,,,,,,,minor,109,93,silent,new,null,1372.8181111000013,None,1372.8181111000013,None,6,1.2159359999932349,1372.8181111000013,None,1.2159359999932349,1374.0522768998053,None,1374.5557734998874,None,1374.5557734998874,None,r,0.2623020000755787,1374.5557734998874,None,0.2623020000755787,,,61 silent,001,2022_Oct_13_1024,ProdSingRedoBetween,2021.2.3,59.94981008348772,
,,,,93,0,93,0,,,,,,,,,,,,,,,,,,,,,,1377.4057658999227,None,,,,,,,,,,,,,,,,,private,122,94,silent,new,null,1375.3475589998998,None,1375.3475589998998,None,6,1.1425089999102056,1375.3475589998998,None,1.1425089999102056,1376.5054537998512,None,1377.0087403999642,None,1377.0087403999642,None,r,0.3692597998306155,1377.0087403999642,None,0.3692597998306155,,,61 silent,001,2022_Oct_13_1024,ProdSingRedoBetween,2021.2.3,59.94981008348772,
,,,,94,0,94,0,,,,,,,,,,,,,,,,,,,,,,1380.0584879999515,None,,,,,,,,,,,,,,,,,health,58,95,silent,old,blue,1377.909250699915,None,1377.909250699915,None,6,1.2927738002035767,1377.909250699915,None,1.2927738002035767,1379.2246333998628,None,1379.7256271999795,None,1379.7256271999795,None,r,0.3083712998777628,1379.7256271999795,None,0.3083712998777628,,,61 silent,001,2022_Oct_13_1024,ProdSingRedoBetween,2021.2.3,59.94981008348772,
,,,,95,0,95,0,,,,,,,,,,,,,,,,,,,,,,1382.7112353998236,None,,,,,,,,,,,,,,,,,salary,170,96,silent,new,null,1380.572609799914,None,1380.572609799914,None,6,1.2855380000546575,1380.572609799914,None,1.2855380000546575,1381.8846365998033,None,1382.3959643999115,None,1382.3959643999115,None,r,0.2942206999287009,1382.3959643999115,None,0.2942206999287009,,,61 silent,001,2022_Oct_13_1024,ProdSingRedoBetween,2021.2.3,59.94981008348772,
,,,,96,0,96,0,,,,,,,,,,,,,,,,,,,,,,1385.330324899871,None,,,,,,,,,,,,,,,,,level,53,97,silent,old,blue,1383.216179799987,None,1383.216179799987,None,6,1.2658292001578957,1383.216179799987,None,1.2658292001578957,1384.5156918999273,None,1385.0437674999703,None,1385.0437674999703,None,r,0.26229929993860424,1385.0437674999703,None,0.26229929993860424,,,61 silent,001,2022_Oct_13_1024,ProdSingRedoBetween,2021.2.3,59.94981008348772,
,,,,97,0,97,0,,,,,,,,,,,,,,,,,,,,,,1388.016383799957,None,,,,,,,,,,,,,,,,,goose,11,98,silent,old,yellow,1385.8340596999042,None,1385.8340596999042,None,6,1.2958412000443786,1385.8340596999042,None,1.2958412000443786,1387.1495829999913,None,1387.6495751999319,None,1387.6495751999319,None,r,0.3365260998252779,1387.6495751999319,None,0.3365260998252779,,,61 silent,001,2022_Oct_13_1024,ProdSingRedoBetween,2021.2.3,59.94981008348772,
,,,,98,0,98,0,,,,,,,,,,,,,,,,,,,,,,1390.335419899784,None,,,,,,,,,,,,,,,,,discussion,43,99,silent,old,blue,1388.523994699819,None,1388.523994699819,None,6,0.9900045001413673,1388.523994699819,None,0.9900045001413673,1389.5358268998098,None,1390.035288499901,None,1390.035288499901,None,r,0.2789304999168962,1390.035288499901,None,0.2789304999168962,,,61 silent,001,2022_Oct_13_1024,ProdSingRedoBetween,2021.2.3,59.94981008348772,
,,,,99,0,99,0,,,,,,,,,,,,,,,,,,,,,,1392.7377750999294,None,,,,,,,,,,,,,,,,,broad,57,100,silent,old,blue,1390.836738999933,None,1390.836738999933,None,6,1.0132242999970913,1390.836738999933,None,1.0132242999970913,1391.8709170999937,None,1392.3778202999383,None,1392.3778202999383,None,r,0.34410930005833507,1392.3778202999383,None,0.34410930005833507,,,61 silent,001,2022_Oct_13_1024,ProdSingRedoBetween,2021.2.3,59.94981008348772,
,,,,100,0,100,0,,,,,,,,,,,,,,,,,,,,,,1397.4088993999176,None,,,,,,,,,,,,,,,,,express,165,101,silent,new,null,1393.2394825997762,None,1393.2394825997762,None,5,3.322496500099078,1393.2394825997762,None,3.322496500099078,1396.5968558997847,None,1397.1111373999156,None,1397.1111373999156,None,r,0.27517339983023703,1397.1111373999156,None,0.27517339983023703,,,61 silent,001,2022_Oct_13_1024,ProdSingRedoBetween,2021.2.3,59.94981008348772,
,,,,101,0,101,0,,,,,,,,,,,,,,,,,,,,,,1401.8966876999475,None,,,,,,,,,,,,,,,,,republic,93,102,silent,new,null,1397.9136161999777,None,1397.9136161999777,None,6,3.160363200120628,1397.9136161999777,None,3.160363200120628,1401.0993363999296,None,1401.6160184999462,None,1401.6160184999462,None,r,0.25803929986432195,1401.6160184999462,None,0.25803929986432195,,,61 silent,001,2022_Oct_13_1024,ProdSingRedoBetween,2021.2.3,59.94981008348772,
,,,,102,0,102,0,,,,,,,,,,,,,,,,,,,,,,1405.768370299833,None,,,,,,,,,,,,,,,,,appeal,143,103,silent,new,null,1402.40053289989,None,1402.40053289989,None,4,2.5214303999673575,1402.40053289989,None,2.5214303999673575,1404.954583399929,None,1405.4708095998503,None,1405.4708095998503,None,r,0.2672542999498546,1405.4708095998503,None,0.2672542999498546,,,61 silent,001,2022_Oct_13_1024,ProdSingRedoBetween,2021.2.3,59.94981008348772,
,,,,103,0,103,0,,,,,,,,,,,,,,,,,,,,,,1409.3229827999603,None,,,,,,,,,,,,,,,,,company,78,104,silent,old,red,1406.2728620998096,None,1406.2728620998096,None,6,2.321023799944669,1406.2728620998096,None,2.321023799944669,1408.6216324998531,None,1409.1274225998204,None,1409.1274225998204,None,r,0.17060449998825788,1409.1274225998204,None,0.17060449998825788,,,61 silent,001,2022_Oct_13_1024,ProdSingRedoBetween,2021.2.3,59.94981008348772,
,,,,104,0,104,0,,,,,,,,,,,,,,,,,,,,,,1411.889939099783,None,,,,,,,,,,,,,,,,,enemy,106,105,silent,new,null,1409.8394360998645,None,1409.8394360998645,None,6,1.2345288000069559,1409.8394360998645,None,1.2345288000069559,1411.0916765998118,None,1411.6068415998016,None,1411.6068415998016,None,r,0.25905290013179183,1411.6068415998016,None,0.25905290013179183,,,61 silent,001,2022_Oct_13_1024,ProdSingRedoBetween,2021.2.3,59.94981008348772,
,,,,105,0,105,0,,,,,,,,,,,,,,,,,,,,,,1414.459447799949,None,,,,,,,,,,,,,,,,,scale,94,106,silent,new,null,1412.40337179997,None,1412.40337179997,None,6,1.206563200103119,1412.40337179997,None,1.206563200103119,1413.6279728999361,None,1414.1459038998,None,1414.1459038998,None,r,0.2880886001512408,1414.1459038998,None,0.2880886001512408,,,61 silent,001,2022_Oct_13_1024,ProdSingRedoBetween,2021.2.3,59.94981008348772,
,,,,106,0,106,0,,,,,,,,,,,,,,,,,,,,,,1416.5448603997938,None,,,,,,,,,,,,,,,,,minute,133,107,silent,new,null,1414.9697022999171,None,1414.9697022999171,None,6,0.7203333999495953,1414.9697022999171,None,0.7203333999495953,1415.7165135999676,None,1416.2280503998045,None,1416.2280503998045,None,r,0.2939061999786645,1416.2280503998045,None,0.2939061999786645,,,61 silent,001,2022_Oct_13_1024,ProdSingRedoBetween,2021.2.3,59.94981008348772,
,,,,107,0,107,0,,,,,,,,,,,,,,,,,,,,,,1419.0335381999612,None,,,,,,,,,,,,,,,,,marriage,61,108,silent,old,red,1417.056625999976,None,1417.056625999976,None,6,1.1533258999697864,1417.056625999976,None,1.1533258999697864,1418.2340030998457,None,1418.7499738999177,None,1418.7499738999177,None,r,0.2600277999881655,1418.7499738999177,None,0.2600277999881655,,,61 silent,001,2022_Oct_13_1024,ProdSingRedoBetween,2021.2.3,59.94981008348772,
,,,,108,0,108,0,,,,,,,,,,,,,,,,,,,,,,1421.0660565998405,None,,,,,,,,,,,,,,,,,edition,153,109,silent,new,null,1419.556922899792,None,1419.556922899792,None,6,0.7091917998623103,1419.556922899792,None,0.7091917998623103,1420.2852686999831,None,1420.8043764999602,None,1420.8043764999602,None,r,0.24559139995835721,1420.8043764999602,None,0.24559139995835721,,,61 silent,001,2022_Oct_13_1024,ProdSingRedoBetween,2021.2.3,59.94981008348772,
,,,,109,0,109,0,,,,,,,,,,,,,,,,,,,,,,1423.085328699788,None,,,,,,,,,,,,,,,,,guide,3,110,silent,old,yellow,1421.5727139997762,None,1421.5727139997762,None,6,0.7252567000687122,1421.5727139997762,None,0.7252567000687122,1422.319978099782,None,1422.8398607999552,None,1422.8398607999552,None,r,0.21804980002343655,1422.8398607999552,None,0.21804980002343655,,,61 silent,001,2022_Oct_13_1024,ProdSingRedoBetween,2021.2.3,59.94981008348772,
,,,,110,0,110,0,,,,,,,,,,,,,,,,,,,,,,1425.3702066999394,None,,,,,,,,,,,,,,,,,number,75,111,silent,old,red,1423.5851951998193,None,1423.5851951998193,None,6,1.0006816999521106,1423.5851951998193,None,1.0006816999521106,1424.6029298999347,None,1425.1035985997878,None,1425.1035985997878,None,r,0.25036659999750555,1425.1035985997878,None,0.25036659999750555,,,61 silent,001,2022_Oct_13_1024,ProdSingRedoBetween,2021.2.3,59.94981008348772,
,,,,111,0,111,0,,,,,,,,,,,,,,,,,,,,,,1427.458343599923,None,,,,,,,,,,,,,,,,,session,91,112,silent,new,null,1425.8779959999956,None,1425.8779959999956,None,6,0.756017800187692,1425.8779959999956,None,0.756017800187692,1426.6655241998378,None,1427.1759330998175,None,1427.1759330998175,None,r,0.24988460005261004,1427.1759330998175,None,0.24988460005261004,,,61 silent,001,2022_Oct_13_1024,ProdSingRedoBetween,2021.2.3,59.94981008348772,
,,,,112,0,112,0,,,,,,,,,,,,,,,,,,,,,,1430.041521999985,None,,,,,,,,,,,,,,,,,population,172,113,silent,new,null,1427.9767405998427,None,1427.9767405998427,None,6,1.0012424997985363,1427.9767405998427,None,1.0012424997985363,1429.0146954997908,None,1429.531608799938,None,1429.531608799938,None,r,0.49438760010525584,1429.531608799938,None,0.49438760010525584,,,61 silent,001,2022_Oct_13_1024,ProdSingRedoBetween,2021.2.3,59.94981008348772,
,,,,113,0,113,0,,,,,,,,,,,,,,,,,,,,,,1433.2831848999485,None,,,,,,,,,,,,,,,,,revolution,115,114,silent,new,null,1430.5498807998374,None,1430.5498807998374,None,6,1.8920863999519497,1430.5498807998374,None,1.8920863999519497,1432.4620204998646,None,1432.961595499888,None,1432.961595499888,None,r,0.2964131000917405,1432.961595499888,None,0.2964131000917405,,,61 silent,001,2022_Oct_13_1024,ProdSingRedoBetween,2021.2.3,59.94981008348772,
,,,,114,0,114,0,,,,,,,,,,,,,,,,,,,,,,1436.1330529998522,None,,,,,,,,,,,,,,,,,pattern,30,115,silent,old,blue,1433.7983376998454,None,1433.7983376998454,None,6,1.3715154000092298,1433.7983376998454,None,1.3715154000092298,1435.2007212999742,None,1435.7177070998587,None,1435.7177070998587,None,r,0.3962044999934733,1435.7177070998587,None,0.3962044999934733,,,61 silent,001,2022_Oct_13_1024,ProdSingRedoBetween,2021.2.3,59.94981008348772,
,,,,115,0,115,0,,,,,,,,,,,,,,,,,,,,,,1439.317604499869,None,,,,,,,,,,,,,,,,,weight,162,116,silent,new,null,1436.653406099882,None,1436.653406099882,None,6,1.5406343000940979,1436.653406099882,None,1.5406343000940979,1438.2244839998893,None,1438.7337920998689,None,1438.7337920998689,None,r,0.5560520999133587,1438.7337920998689,None,0.5560520999133587,,,61 silent,001,2022_Oct_13_1024,ProdSingRedoBetween,2021.2.3,59.94981008348772,
,,,,116,0,116,0,,,,,,,,,,,,,,,,,,,,,,1443.440184299834,None,,,,,,,,,,,,,,,,,stand,163,117,silent,new,null,1439.8261725998018,None,1439.8261725998018,None,6,2.7357493999879807,1439.8261725998018,None,2.7357493999879807,1442.5883378998842,None,1443.094691199949,None,1443.094691199949,None,r,0.32325419993139803,1443.094691199949,None,0.32325419993139803,,,61 silent,001,2022_Oct_13_1024,ProdSingRedoBetween,2021.2.3,59.94981008348772,
,,,,117,0,117,0,,,,,,,,,,,,,,,,,,,,,,1446.908525499981,None,,,,,,,,,,,,,,,,,scene,63,118,silent,old,red,1443.9556988999248,None,1443.9556988999248,None,5,2.0782187001314014,1443.9556988999248,None,2.0782187001314014,1446.0603471999057,None,1446.576704799896,None,1446.576704799896,None,r,0.30521770007908344,1446.576704799896,None,0.30521770007908344,,,61 silent,001,2022_Oct_13_1024,ProdSingRedoBetween,2021.2.3,59.94981008348772,
,,,,118,0,118,0,,,,,,,,,,,,,,,,,,,,,,1449.5943604998756,None,,,,,,,,,,,,,,,,,smell,148,119,silent,new,null,1447.4181648998056,None,1447.4181648998056,None,6,1.3360323999077082,1447.4181648998056,None,1.3360323999077082,1448.783808699809,None,1449.2940017997753,None,1449.2940017997753,None,r,0.2757792000193149,1449.2940017997753,None,0.2757792000193149,,,61 silent,001,2022_Oct_13_1024,ProdSingRedoBetween,2021.2.3,59.94981008348772,
,,,,119,0,119,0,,,,,,,,,,,,,,,,,,,,,,1451.9802079999354,None,,,,,,,,,,,,,,,,,income,157,120,silent,new,null,1450.0971732998732,None,1450.0971732998732,None,5,1.0886945000384003,1450.0971732998732,None,1.0886945000384003,1451.2128355999012,None,1451.716464899946,None,1451.716464899946,None,r,0.24543370003812015,1451.716464899946,None,0.24543370003812015,,,61 silent,001,2022_Oct_13_1024,ProdSingRedoBetween,2021.2.3,59.94981008348772,
,,,,120,0,120,0,,,,,,,,,,,,,,,,,,,,,,1454.566085399827,None,,,,,,,,,,,,,,,,,danger,14,121,silent,old,yellow,1452.4808344999328,None,1452.4808344999328,None,6,1.288979300064966,1452.4808344999328,None,1.288979300064966,1453.7985814998392,None,1454.2990982998163,None,1454.2990982998163,None,r,0.23880570009350777,1454.2990982998163,None,0.23880570009350777,,,61 silent,001,2022_Oct_13_1024,ProdSingRedoBetween,2021.2.3,59.94981008348772,
,,,,121,0,121,0,,,,,,,,,,,,,,,,,,,,,,1457.5358164999634,None,,,,,,,,,,,,,,,,,solution,171,122,silent,new,null,1455.0667333998717,None,1455.0667333998717,None,6,1.6553175998851657,1455.0667333998717,None,1.6553175998851657,1456.7600796998013,None,1457.2758903999347,None,1457.2758903999347,None,r,0.23797530005685985,1457.2758903999347,None,0.23797530005685985,,,61 silent,001,2022_Oct_13_1024,ProdSingRedoBetween,2021.2.3,59.94981008348772,
,,,,122,0,122,0,,,,,,,,,,,,,,,,,,,,,,1460.690922099864,None,,,,,,,,,,,,,,,,,universal,72,123,silent,old,red,1458.0462908998597,None,1458.0462908998597,None,6,1.7955871999729425,1458.0462908998597,None,1.7955871999729425,1459.872535499977,None,1460.3780289997812,None,1460.3780289997812,None,r,0.2958732000552118,1460.3780289997812,None,0.2958732000552118,,,61 silent,001,2022_Oct_13_1024,ProdSingRedoBetween,2021.2.3,59.94981008348772,
,,,,123,0,123,0,,,,,,,,,,,,,,,,,,,,,,1464.92650699988,None,,,,,,,,,,,,,,,,,point,41,124,silent,old,blue,1461.2263408999424,None,1461.2263408999424,None,6,2.8956924001686275,1461.2263408999424,None,2.8956924001686275,1464.1492890999652,None,1464.6595252999105,None,1464.6595252999105,None,r,0.2463406000752002,1464.6595252999105,None,0.2463406000752002,,,61 silent,001,2022_Oct_13_1024,ProdSingRedoBetween,2021.2.3,59.94981008348772,
,,,,124,0,124,0,,,,,,,,,,,,,,,,,,,,,,1467.8961353998166,None,,,,,,,,,,,,,,,,,story,64,125,silent,old,red,1465.4370187998284,None,1465.4370187998284,None,6,1.6848335999529809,1465.4370187998284,None,1.6848335999529809,1467.1493932998274,None,1467.6645310998429,None,1467.6645310998429,None,r,0.20135969994589686,1467.6645310998429,None,0.20135969994589686,,,61 silent,001,2022_Oct_13_1024,ProdSingRedoBetween,2021.2.3,59.94981008348772,
,,,,125,0,125,0,,,,,,,,,,,,,,,,,,,,,,1473.1346374999266,None,,,,,,,,,,,,,,,,,harmony,136,126,silent,new,null,1468.4063446999062,None,1468.4063446999062,None,5,3.739496799884364,1468.4063446999062,None,3.739496799884364,1472.168157099979,None,1472.6740755999926,None,1472.6740755999926,None,r,0.43172669992782176,1472.6740755999926,None,0.43172669992782176,,,61 silent,001,2022_Oct_13_1024,ProdSingRedoBetween,2021.2.3,59.94981008348772,
,,,,126,0,126,0,,,,,,,,,,,,,,,,,,,,,,1476.337909199996,None,,,,,,,,,,,,,,,,,union,124,127,silent,new,null,1473.6415315999184,None,1473.6415315999184,None,5,1.7843183998484164,1473.6415315999184,None,1.7843183998484164,1475.4576268999372,None,1475.970912199933,None,1475.970912199933,None,r,0.34297549980692565,1475.970912199933,None,0.34297549980692565,,,61 silent,001,2022_Oct_13_1024,ProdSingRedoBetween,2021.2.3,59.94981008348772,
,,,,127,0,127,0,,,,,,,,,,,,,,,,,,,,,,1480.0435773998033,None,,,,,,,,,,,,,,,,,congress,151,128,silent,new,null,1476.8467638997827,None,1476.8467638997827,None,6,2.3550728000700474,1476.8467638997827,None,2.3550728000700474,1479.2264655998442,None,1479.7461250999477,None,1479.7461250999477,None,r,0.2797878000419587,1479.7461250999477,None,0.2797878000419587,,,61 silent,001,2022_Oct_13_1024,ProdSingRedoBetween,2021.2.3,59.94981008348772,
,,,,128,0,128,0,,,,,,,,,,,,,,,,,,,,,,1483.127620499814,None,,,,,,,,,,,,,,,,,welcome,28,129,silent,old,yellow,1480.56109689991,None,1480.56109689991,None,6,1.720786300022155,1480.56109689991,None,1.720786300022155,1482.3103805999272,None,1482.8142821998335,None,1482.8142821998335,None,r,0.29148359992541373,1482.8142821998335,None,0.29148359992541373,,,61 silent,001,2022_Oct_13_1024,ProdSingRedoBetween,2021.2.3,59.94981008348772,
,,,,129,0,129,0,,,,,,,,,,,,,,,,,,,,,,1485.497019100003,None,,,,,,,,,,,,,,,,,school,2,130,silent,old,yellow,1483.6301376000047,None,1483.6301376000047,None,6,0.8519517998211086,1483.6301376000047,None,0.8519517998211086,1484.5251773998607,None,1485.03005569987,None,1485.03005569987,None,r,0.44381140009500086,1485.03005569987,None,0.44381140009500086,,,61 silent,001,2022_Oct_13_1024,ProdSingRedoBetween,2021.2.3,59.94981008348772,
,,,,130,0,130,0,,,,,,,,,,,,,,,,,,,,,,1488.2494901998434,None,,,,,,,,,,,,,,,,,color,9,131,silent,old,yellow,1486.0039675999433,None,1486.0039675999433,None,6,1.4060406000353396,1486.0039675999433,None,1.4060406000353396,1487.4391191999894,None,1487.9502741999459,None,1487.9502741999459,None,r,0.2756322999484837,1487.9502741999459,None,0.2756322999484837,,,61 silent,001,2022_Oct_13_1024,ProdSingRedoBetween,2021.2.3,59.94981008348772,
,,,,131,0,131,0,,,,,,,,,,,,,,,,,,,,,,1492.0369260997977,None,,,,,,,,,,,,,,,,,concern,54,132,silent,old,blue,1488.7517719999887,None,1488.7517719999887,None,5,2.457996299955994,1488.7517719999887,None,2.457996299955994,1491.23785509984,None,1491.7540770999622,None,1491.7540770999622,None,r,0.26375799998641014,1491.7540770999622,None,0.26375799998641014,,,61 silent,001,2022_Oct_13_1024,ProdSingRedoBetween,2021.2.3,59.94981008348772,
,,,,132,0,132,0,,,,,,,,,,,,,,,,,,,,,,1494.822637599893,None,,,,,,,,,,,,,,,,,department,17,133,silent,old,yellow,1492.5515896999277,None,1492.5515896999277,None,6,1.434210899984464,1492.5515896999277,None,1.434210899984464,1494.0097590999212,None,1494.5236787998583,None,1494.5236787998583,None,r,0.2700189999304712,1494.5236787998583,None,0.2700189999304712,,,61 silent,001,2022_Oct_13_1024,ProdSingRedoBetween,2021.2.3,59.94981008348772,
,,,,133,0,133,0,,,,,,,,,,,,,,,,,,,,,,1499.2457456998527,None,,,,,,,,,,,,,,,,,surprise,150,134,silent,new,null,1495.329109299928,None,1495.329109299928,None,6,3.136612400179729,1495.329109299928,None,3.136612400179729,1498.4951183998492,None,1499.0169700998813,None,1499.0169700998813,None,r,0.20893520000390708,1499.0169700998813,None,0.20893520000390708,,,61 silent,001,2022_Oct_13_1024,ProdSingRedoBetween,2021.2.3,59.94981008348772,
,,,,134,0,134,0,,,,,,,,,,,,,,,,,,,,,,1501.1793407998048,None,,,,,,,,,,,,,,,,,exchange,142,135,silent,new,null,1499.769840999972,None,1499.769840999972,None,6,0.6239536001812667,1499.769840999972,None,0.6239536001812667,1500.416229999857,None,1500.9331879999954,None,1500.9331879999954,None,r,0.22073520021513104,1500.9331879999954,None,0.22073520021513104,,,61 silent,001,2022_Oct_13_1024,ProdSingRedoBetween,2021.2.3,59.94981008348772,
,,,,135,0,135,0,,,,,,,,,,,,,,,,,,,,,,1503.3312040998135,None,,,,,,,,,,,,,,,,,collection,159,136,silent,new,null,1501.6867135998327,None,1501.6867135998327,None,6,0.8670000000856817,1501.6867135998327,None,0.8670000000856817,1502.5807356999721,None,1503.084954999853,None,1503.084954999853,None,r,0.22893449990078807,1503.084954999853,None,0.22893449990078807,,,61 silent,001,2022_Oct_13_1024,ProdSingRedoBetween,2021.2.3,59.94981008348772,
,,,,136,0,136,0,,,,,,,,,,,,,,,,,,,,,,1505.6171377999708,None,,,,,,,,,,,,,,,,,object,71,137,silent,old,red,1503.840182899963,None,1503.840182899963,None,6,0.9538360000588,1503.840182899963,None,0.9538360000588,1504.8230430998374,None,1505.3334975999314,None,1505.3334975999314,None,r,0.26032910007052124,1505.3334975999314,None,0.26032910007052124,,,61 silent,001,2022_Oct_13_1024,ProdSingRedoBetween,2021.2.3,59.94981008348772,
,,,,137,0,137,0,,,,,,,,,,,,,,,,,,,,,,1508.403136299923,None,,,,,,,,,,,,,,,,,attack,86,138,silent,old,red,1506.1285965999123,None,1506.1285965999123,None,6,1.3531877000350505,1506.1285965999123,None,1.3531877000350505,1507.5034825999755,None,1508.0028627999127,None,1508.0028627999127,None,r,0.37502169981598854,1508.0028627999127,None,0.37502169981598854,,,61 silent,001,2022_Oct_13_1024,ProdSingRedoBetween,2021.2.3,59.94981008348772,
,,,,138,0,138,0,,,,,,,,,,,,,,,,,,,,,,1511.1910968997981,None,,,,,,,,,,,,,,,,,discovery,67,139,silent,old,red,1508.9142384999432,None,1508.9142384999432,None,6,1.4475579001009464,1508.9142384999432,None,1.4475579001009464,1510.3898343998007,None,1510.8888895998243,None,1510.8888895998243,None,r,0.28091819980181754,1510.8888895998243,None,0.28091819980181754,,,61 silent,001,2022_Oct_13_1024,ProdSingRedoBetween,2021.2.3,59.94981008348772,
,,,,139,0,139,0,,,,,,,,,,,,,,,,,,,,,,1513.2920269998722,None,,,,,,,,,,,,,,,,,escape,1,140,silent,old,yellow,1511.70867299987,None,1511.70867299987,None,6,0.797008000081405,1511.70867299987,None,0.797008000081405,1512.52511529997,None,1513.0248272998724,None,1513.0248272998724,None,r,0.248870600014925,1513.0248272998724,None,0.248870600014925,,,61 silent,001,2022_Oct_13_1024,ProdSingRedoBetween,2021.2.3,59.94981008348772,
,,,,140,0,140,0,,,,,,,,,,,,,,,,,,,,,,1515.3449111999944,None,,,,,,,,,,,,,,,,,accident,69,141,silent,old,red,1513.7962044999003,None,1513.7962044999003,None,6,0.741565200034529,1513.7962044999003,None,0.741565200034529,1514.5602996998932,None,1515.0651841999497,None,1515.0651841999497,None,r,0.24864859995432198,1515.0651841999497,None,0.24864859995432198,,,61 silent,001,2022_Oct_13_1024,ProdSingRedoBetween,2021.2.3,59.94981008348772,
,,,,141,0,141,0,,,,,,,,,,,,,,,,,,,,,,1517.697228099918,None,,,,,,,,,,,,,,,,,bucket,169,142,silent,new,null,1515.8527857998852,None,1515.8527857998852,None,6,1.0449745999649167,1515.8527857998852,None,1.0449745999649167,1516.9292909998912,None,1517.4339206998702,None,1517.4339206998702,None,r,0.239977499935776,1517.4339206998702,None,0.239977499935776,,,61 silent,001,2022_Oct_13_1024,ProdSingRedoBetween,2021.2.3,59.94981008348772,
,,,,142,0,142,0,,,,,,,,,,,,,,,,,,,,,,1519.8145740998443,None,,,,,,,,,,,,,,,,,burden,8,143,silent,old,yellow,1518.2006740998477,None,1518.2006740998477,None,6,0.8090892999898642,1518.2006740998477,None,0.8090892999898642,1519.032244300004,None,1519.5475801997818,None,1519.5475801997818,None,r,0.238203699933365,1519.5475801997818,None,0.238203699933365,,,61 silent,001,2022_Oct_13_1024,ProdSingRedoBetween,2021.2.3,59.94981008348772,
,,,,143,0,143,0,,,,,,,,,,,,,,,,,,,,,,1521.984323799843,None,,,,,,,,,,,,,,,,,generation,103,144,silent,new,null,1520.3220233998727,None,1520.3220233998727,None,6,0.8637431000825018,1520.3220233998727,None,0.8637431000825018,1521.2208994999528,None,1521.735253199935,None,1521.735253199935,None,r,0.2265356001444161,1521.735253199935,None,0.2265356001444161,,,61 silent,001,2022_Oct_13_1024,ProdSingRedoBetween,2021.2.3,59.94981008348772,
,,,,144,0,144,0,,,,,,,,,,,,,,,,,,,,,,1524.185562599916,None,,,,,,,,,,,,,,,,,symbol,45,145,silent,old,blue,1522.4870617999695,None,1522.4870617999695,None,6,0.8427023000549525,1522.4870617999695,None,0.8427023000549525,1523.3526034997776,None,1523.8590472999495,None,1523.8590472999495,None,r,0.31065199989825487,1523.8590472999495,None,0.31065199989825487,,,61 silent,001,2022_Oct_13_1024,ProdSingRedoBetween,2021.2.3,59.94981008348772,
,,,,145,0,145,0,,,,,,,,,,,,,,,,,,,,,,1526.421095999889,None,,,,,,,,,,,,,,,,,council,52,146,silent,old,blue,1524.688763299957,None,1524.688763299957,None,6,0.8810166001785547,1524.688763299957,None,0.8810166001785547,1525.5958704999648,None,1526.1042350998614,None,1526.1042350998614,None,r,0.29752109991386533,1526.1042350998614,None,0.29752109991386533,,,61 silent,001,2022_Oct_13_1024,ProdSingRedoBetween,2021.2.3,59.94981008348772,
,,,,146,0,146,0,,,,,,,,,,,,,,,,,,,,,,1528.6066187999677,None,,,,,,,,,,,,,,,,,agency,95,147,silent,new,null,1526.9237656998448,None,1526.9237656998448,None,6,0.8620994000229985,1526.9237656998448,None,0.8620994000229985,1527.8088002000004,None,1528.3251480998006,None,1528.3251480998006,None,r,0.2526204001624137,1528.3251480998006,None,0.2526204001624137,,,61 silent,001,2022_Oct_13_1024,ProdSingRedoBetween,2021.2.3,59.94981008348772,
,,,,147,0,147,0,,,,,,,,,,,,,,,,,,,,,,1530.7612380997743,None,,,,,,,,,,,,,,,,,estate,21,148,silent,old,yellow,1529.107007799903,None,1529.107007799903,None,6,0.7987144999206066,1529.107007799903,None,0.7987144999206066,1529.9266924997792,None,1530.445718899835,None,1530.445718899835,None,r,0.2841785999480635,1530.445718899835,None,0.2841785999480635,,,61 silent,001,2022_Oct_13_1024,ProdSingRedoBetween,2021.2.3,59.94981008348772,
,,,,148,0,148,0,,,,,,,,,,,,,,,,,,,,,,1533.0774888999294,None,,,,,,,,,,,,,,,,,short,81,149,silent,old,red,1531.2767993998714,None,1531.2767993998714,None,6,0.9569729000795633,1531.2767993998714,None,0.9569729000795633,1532.2669925999362,None,1532.7832345999777,None,1532.7832345999777,None,r,0.2745693998876959,1532.7832345999777,None,0.2745693998876959,,,61 silent,001,2022_Oct_13_1024,ProdSingRedoBetween,2021.2.3,59.94981008348772,
,,,,149,0,149,0,,,,,,,,,,,,,,,,,,,,,,1536.2476183997933,None,,,,,,,,,,,,,,,,,figure,4,150,silent,old,yellow,1533.5897726998664,None,1533.5897726998664,None,6,1.8199560001958162,1533.5897726998664,None,1.8199560001958162,1535.4331879999954,None,1535.9473969999235,None,1535.9473969999235,None,r,0.27844389993697405,1535.9473969999235,None,0.27844389993697405,,,61 silent,001,2022_Oct_13_1024,ProdSingRedoBetween,2021.2.3,59.94981008348772,
,,,,150,0,150,0,,,,,,,,,,,,,,,,,,,,,,1541.3527192999609,None,,,,,,,,,,,,,,,,,rural,107,151,silent,new,null,1536.7514114999212,None,1536.7514114999212,None,5,1.1223707001190633,1536.7514114999212,None,1.1223707001190633,1537.904496899806,None,1538.4167680998798,None,1538.4167680998798,None,f,2.9209644999355078,1538.4167680998798,None,2.9209644999355078,,,61 silent,001,2022_Oct_13_1024,ProdSingRedoBetween,2021.2.3,59.94981008348772,
,,,,151,0,151,0,,,,,,,,,,,,,,,,,,,,,,1547.6422173997853,None,,,,,,,,,,,,,,,,,close,46,152,silent,old,blue,1541.8606762997806,None,1541.8606762997806,None,6,4.981033599935472,1541.8606762997806,None,4.981033599935472,1546.859384899959,None,1547.3611316999886,None,1547.3611316999886,None,r,0.25667389994487166,1547.3611316999886,None,0.25667389994487166,,,61 silent,001,2022_Oct_13_1024,ProdSingRedoBetween,2021.2.3,59.94981008348772,
,,,,152,0,152,0,,,,,,,,,,,,,,,,,,,,,,1550.0991703998297,None,,,,,,,,,,,,,,,,,relation,146,153,silent,new,null,1548.1540658997837,None,1548.1540658997837,None,6,1.0395961999893188,1548.1540658997837,None,1.0395961999893188,1549.2114695999771,None,1549.7145685998257,None,1549.7145685998257,None,r,0.3513287999667227,1549.7145685998257,None,0.3513287999667227,,,61 silent,001,2022_Oct_13_1024,ProdSingRedoBetween,2021.2.3,59.94981008348772,
,,,,153,0,153,0,,,,,,,,,,,,,,,,,,,,,,1552.597200699849,None,,,,,,,,,,,,,,,,,guard,80,154,silent,old,red,1550.6120003999677,None,1550.6120003999677,None,6,1.0856759999878705,1550.6120003999677,None,1.0856759999878705,1551.7324262999464,None,1552.247022099793,None,1552.247022099793,None,r,0.3307242998853326,1552.247022099793,None,0.3307242998853326,,,61 silent,001,2022_Oct_13_1024,ProdSingRedoBetween,2021.2.3,59.94981008348772,
,,,,154,0,154,0,,,,,,,,,,,,,,,,,,,,,,1557.9525633999147,None,,,,,,,,,,,,,,,,,candidate,111,155,silent,new,null,1553.099178099772,None,1553.099178099772,None,4,3.8385222998913378,1553.099178099772,None,3.8385222998913378,1556.9689135998487,None,1557.4687255998142,None,1557.4687255998142,None,f,0.4690644999500364,1557.4687255998142,None,0.4690644999500364,,,61 silent,001,2022_Oct_13_1024,ProdSingRedoBetween,2021.2.3,59.94981008348772,
,,,,155,0,155,0,,,,,,,,,,,,,,,,,,,,,,1562.0567188998684,None,,,,,,,,,,,,,,,,,background,175,156,silent,new,null,1558.455710799899,None,1558.455710799899,None,6,2.4740991999860853,1558.455710799899,None,2.4740991999860853,1560.9619442999829,None,1561.4729691999964,None,1561.4729691999964,None,f,0.5608277001883835,1561.4729691999964,None,0.5608277001883835,,,61 silent,001,2022_Oct_13_1024,ProdSingRedoBetween,2021.2.3,59.94981008348772,
,,,,156,0,156,0,,,,,,,,,,,,,,,,,,,,,,1566.5111225999426,None,,,,,,,,,,,,,,,,,straight,125,157,silent,new,null,1562.5587794999592,None,1562.5587794999592,None,6,2.834911599988118,1562.5587794999592,None,2.834911599988118,1565.4112257999368,None,1565.9152337999549,None,1565.9152337999549,None,r,0.5665597999468446,1565.9152337999549,None,0.5665597999468446,,,61 silent,001,2022_Oct_13_1024,ProdSingRedoBetween,2021.2.3,59.94981008348772,
,,,,157,0,157,0,,,,,,,,,,,,,,,,,,,,,,1572.3501374998596,None,,,,,,,,,,,,,,,,,author,99,158,silent,new,null,1567.0241760998033,None,1567.0241760998033,None,6,3.409615600015968,1567.0241760998033,None,3.409615600015968,1570.4650684997905,None,1570.9656990999356,None,1570.9656990999356,None,r,1.3559673000127077,1570.9656990999356,None,1.3559673000127077,,,61 silent,001,2022_Oct_13_1024,ProdSingRedoBetween,2021.2.3,59.94981008348772,
,,,,158,0,158,0,,,,,,,,,,,,,,,,,,,,,,1578.506243799813,None,,,,,,,,,,,,,,,,,bureau,7,159,silent,old,yellow,1572.8542572997976,None,1572.8542572997976,None,4,3.8354279999621212,1572.8542572997976,None,3.8354279999621212,1576.7054645000026,None,1577.205235599773,None,1577.205235599773,None,f,1.2764322999864817,1577.205235599773,None,1.2764322999864817,,,61 silent,001,2022_Oct_13_1024,ProdSingRedoBetween,2021.2.3,59.94981008348772,
,,,,159,0,159,0,,,,,,,,,,,,,,,,,,,,,,1588.1158390999772,None,,,,,,,,,,,,,,,,,industry,101,160,silent,new,null,1579.0150042998139,None,1579.0150042998139,None,6,1.6106724999845028,1579.0150042998139,None,1.6106724999845028,1580.643637899775,None,1581.1591377998702,None,1581.1591377998702,None,f,6.938534900080413,1581.1591377998702,None,6.938534900080413,,,61 silent,001,2022_Oct_13_1024,ProdSingRedoBetween,2021.2.3,59.94981008348772,
,,,,160,0,160,0,,,,,,,,,,,,,,,,,,,,,,1594.3055371998344,None,,,,,,,,,,,,,,,,,weather,76,161,silent,old,red,1588.6195303997956,None,1588.6195303997956,None,6,4.430114699993283,1588.6195303997956,None,4.430114699993283,1593.073053999804,None,1593.5882646997925,None,1593.5882646997925,None,r,0.6934146999847144,1593.5882646997925,None,0.6934146999847144,,,61 silent,001,2022_Oct_13_1024,ProdSingRedoBetween,2021.2.3,59.94981008348772,
,,,,161,0,161,0,,,,,,,,,,,,,,,,,,,,,,1596.9581055999734,None,,,,,,,,,,,,,,,,,hunger,135,162,silent,new,null,1594.8144228998572,None,1594.8144228998572,None,6,1.2432049999479204,1594.8144228998572,None,1.2432049999479204,1596.076632199809,None,1596.5969022999052,None,1596.5969022999052,None,r,0.34073049994185567,1596.5969022999052,None,0.34073049994185567,,,61 silent,001,2022_Oct_13_1024,ProdSingRedoBetween,2021.2.3,59.94981008348772,
,,,,162,0,162,0,,,,,,,,,,,,,,,,,,,,,,1602.1633797998074,None,,,,,,,,,,,,,,,,,shock,22,163,silent,old,yellow,1597.458895899821,None,1597.458895899821,None,6,3.8468240001238883,1597.458895899821,None,3.8468240001238883,1601.333209999837,None,1601.8464495998342,None,1601.8464495998342,None,r,0.29119630018249154,1601.8464495998342,None,0.29119630018249154,,,61 silent,001,2022_Oct_13_1024,ProdSingRedoBetween,2021.2.3,59.94981008348772,
,,,,163,0,163,0,,,,,,,,,,,,,,,,,,,,,,1604.2152138999663,None,,,,,,,,,,,,,,,,,production,32,164,silent,old,blue,1602.6760448999703,None,1602.6760448999703,None,6,0.6774947000667453,1602.6760448999703,None,0.6774947000667453,1603.3866495999973,None,1603.8987101998646,None,1603.8987101998646,None,r,0.29501650016754866,1603.8987101998646,None,0.29501650016754866,,,61 silent,001,2022_Oct_13_1024,ProdSingRedoBetween,2021.2.3,59.94981008348772,
,,,,164,0,164,0,,,,,,,,,,,,,,,,,,,,,,1609.0220806999132,None,,,,,,,,,,,,,,,,,region,98,165,silent,new,null,1604.725275099976,None,1604.725275099976,None,4,2.4683425000403076,1604.725275099976,None,2.4683425000403076,1607.2202873998322,None,1607.7356934999116,None,1607.7356934999116,None,f,1.2660048000980169,1607.7356934999116,None,1.2660048000980169,,,61 silent,001,2022_Oct_13_1024,ProdSingRedoBetween,2021.2.3,59.94981008348772,
,,,,165,0,165,0,,,,,,,,,,,,,,,,,,,,,,1613.3077290998772,None,,,,,,,,,,,,,,,,,service,62,166,silent,old,red,1609.5460383999161,None,1609.5460383999161,None,6,1.6875640000216663,1609.5460383999161,None,1.6875640000216663,1611.2589178998023,None,1611.7814401998185,None,1611.7814401998185,None,r,1.500125200022012,1611.7814401998185,None,1.500125200022012,,,61 silent,001,2022_Oct_13_1024,ProdSingRedoBetween,2021.2.3,59.94981008348772,
,,,,166,0,166,0,,,,,,,,,,,,,,,,,,,,,,1619.380476599792,None,,,,,,,,,,,,,,,,,tennis,149,167,silent,new,null,1613.8228122999426,None,1613.8228122999426,None,6,4.666771800024435,1613.8228122999426,None,4.666771800024435,1618.5170257999562,None,1619.0317634998355,None,1619.0317634998355,None,r,0.32178699993528426,1619.0317634998355,None,0.32178699993528426,,,61 silent,001,2022_Oct_13_1024,ProdSingRedoBetween,2021.2.3,59.94981008348772,
,,,,167,0,167,0,,,,,,,,,,,,,,,,,,,,,,1622.3668303999584,None,,,,,,,,,,,,,,,,,management,74,168,silent,old,red,1619.8877202000003,None,1619.8877202000003,None,6,1.2738645998761058,1619.8877202000003,None,1.2738645998761058,1621.1831513999496,None,1621.682915699901,None,1621.682915699901,None,r,0.6547924999613315,1621.682915699901,None,0.6547924999613315,,,61 silent,001,2022_Oct_13_1024,ProdSingRedoBetween,2021.2.3,59.94981008348772,
,,,,168,0,168,0,,,,,,,,,,,,,,,,,,,,,,1626.1369869997725,None,,,,,,,,,,,,,,,,,military,145,169,silent,new,null,1622.870435899822,None,1622.870435899822,None,5,2.2271559999790043,1622.870435899822,None,2.2271559999790043,1625.1205394999124,None,1625.6219267998822,None,1625.6219267998822,None,r,0.49965240014716983,1625.6219267998822,None,0.49965240014716983,,,61 silent,001,2022_Oct_13_1024,ProdSingRedoBetween,2021.2.3,59.94981008348772,
,,,,169,0,169,0,,,,,,,,,,,,,,,,,,,,,,1628.8232808997855,None,,,,,,,,,,,,,,,,,testimony,158,170,silent,new,null,1626.6424354999326,None,1626.6424354999326,None,6,1.3192008999176323,1626.6424354999326,None,1.3192008999176323,1627.9944414999336,None,1628.5121202999726,None,1628.5121202999726,None,r,0.2894621000159532,1628.5121202999726,None,0.2894621000159532,,,61 silent,001,2022_Oct_13_1024,ProdSingRedoBetween,2021.2.3,59.94981008348772,
,,,,170,0,170,0,,,,,,,,,,,,,,,,,,,,,,1634.896131399786,None,,,,,,,,,,,,,,,,,brief,123,171,silent,new,null,1629.3303079998586,None,1629.3303079998586,None,4,3.503254799870774,1629.3303079998586,None,3.503254799870774,1632.8612963999622,None,1633.3627572997939,None,1633.3627572997939,None,r,1.5028063000645489,1633.3627572997939,None,1.5028063000645489,,,61 silent,001,2022_Oct_13_1024,ProdSingRedoBetween,2021.2.3,59.94981008348772,
,,,,171,0,171,0,,,,,,,,,,,,,,,,,,,,,,1642.8706485999282,None,,,,,,,,,,,,,,,,,state,118,172,silent,new,null,1635.4064428999554,None,1635.4064428999554,None,6,5.587047199951485,1635.4064428999554,None,5.587047199951485,1641.018834099872,None,1641.5193220998626,None,1641.5193220998626,None,r,1.3222199999727309,1641.5193220998626,None,1.3222199999727309,,,61 silent,001,2022_Oct_13_1024,ProdSingRedoBetween,2021.2.3,59.94981008348772,
,,,,172,0,172,0,,,,,,,,,,,,,,,,,,,,,,1646.257272799965,None,,,,,,,,,,,,,,,,,blind,19,173,silent,old,yellow,1643.3737250999548,None,1643.3737250999548,None,6,1.995999899925664,1643.3737250999548,None,1.995999899925664,1645.3897784999572,None,1645.8903929998633,None,1645.8903929998633,None,r,0.3511581998318434,1645.8903929998633,None,0.3511581998318434,,,61 silent,001,2022_Oct_13_1024,ProdSingRedoBetween,2021.2.3,59.94981008348772,
,,,,173,0,173,0,,,,,,,,,,,,,,,,,,,,,,1652.66538079991,None,,,,,,,,,,,,,,,,,death,68,174,silent,old,red,1646.7579309998546,None,1646.7579309998546,None,6,5.00363070005551,1646.7579309998546,None,5.00363070005551,1651.781425199937,None,1652.2965973999817,None,1652.2965973999817,None,r,0.33709060004912317,1652.2965973999817,None,0.33709060004912317,,,61 silent,001,2022_Oct_13_1024,ProdSingRedoBetween,2021.2.3,59.94981008348772,
