StudyLoop.thisRepN,StudyLoop.thisTrialN,StudyLoop.thisN,StudyLoop.thisIndex,TestLoop.thisRepN,TestLoop.thisTrialN,TestLoop.thisN,TestLoop.thisIndex,textCondition.started,textCondition.stopped,keyCondition.keys,keyCondition.rt,keyCondition.started,keyCondition.stopped,Condition,textWelcome.started,textWelcome.stopped,keyWelcome.keys,keyWelcome.rt,keyWelcome.started,keyWelcome.stopped,textAloud.started,textAloud.stopped,textSilent.started,textSilent.stopped,textSing.started,textSing.stopped,conditional_text.started,conditional_text.stopped,textBlank500.started,textBlank500.stopped,study_word,study_num,study_order,study_type,word_color,textStudy.started,textStudy.stopped,keyStudy.keys,keyStudy.started,keyStudy.stopped,textTestInstructions.started,textTestInstructions.stopped,key_resp_3.keys,key_resp_3.rt,key_resp_3.started,key_resp_3.stopped,test_word,test_num,test_order,test_condition,old_new_test,test_word_original_color,textConf.started,textConf.stopped,textConfScale.started,textConfScale.stopped,keyConf.keys,keyConf.rt,keyConf.started,keyConf.stopped,confidence response time,textTestBlank.started,textTestBlank.stopped,textRKN.started,textRKN.stopped,textRKNScale.started,textRKNScale.stopped,keyRKN.keys,keyRKN.rt,keyRKN.started,keyRKN.stopped,rkn response time,textEnd.started,textEnd.stopped,participant,session,date,expName,psychopyVersion,frameRate,
,,,,,,,,53.926496299915016,None,c,3.8988224999047816,53.926496299915016,None,,,,,,,,,,,,,,,,,,,,,,,,,,,,,,,,,,,,,,,,,,,,,,,,,,,,,,,,,,,,,,63 Sing,001,2022_Oct_18_0852,ProdSingRedoBetween,2021.2.3,59.53543300939453,
,,,,,,,,,,,,,,SingTest,57.87228119978681,None,space,709.75166289974,57.87228119978681,None,,,,,,,,,,,,,,,,,,,,,,,,,,,,,,,,,,,,,,,,,,,,,,,,,,,,,,,63 Sing,001,2022_Oct_18_0852,ProdSingRedoBetween,2021.2.3,59.53543300939453,
0,0,0,0,,,,,,,,,,,,,,,,,,57.87228119978681,None,57.87228119978681,None,57.87228119978681,None,57.87228119978681,None,770.1695352001116,None,burden,75,1,sing,red,768.1559875002131,None,None,768.1559875002131,None,,,,,,,,,,,,,,,,,,,,,,,,,,,,,,,,,,,63 Sing,001,2022_Oct_18_0852,ProdSingRedoBetween,2021.2.3,59.53543300939453,
1,0,1,0,,,,,,,,,,,,,,,,,,,,,,,,,,772.6887560999021,None,period,68,2,sing,red,770.6750619001687,None,None,770.6750619001687,None,,,,,,,,,,,,,,,,,,,,,,,,,,,,,,,,,,,63 Sing,001,2022_Oct_18_0852,ProdSingRedoBetween,2021.2.3,59.53543300939453,
2,0,2,0,,,,,,,,,,,,,,,,,,,,,,,,,,775.2079651001841,None,population,6,3,sing,yellow,773.2005117000081,None,None,773.2005117000081,None,,,,,,,,,,,,,,,,,,,,,,,,,,,,,,,,,,,63 Sing,001,2022_Oct_18_0852,ProdSingRedoBetween,2021.2.3,59.53543300939453,
3,0,3,0,,,,,,,,,,,,,,,,,,,,,,,,,,777.7271370999515,None,shock,45,4,sing,blue,775.715616399888,None,None,775.715616399888,None,,,,,,,,,,,,,,,,,,,,,,,,,,,,,,,,,,,63 Sing,001,2022_Oct_18_0852,ProdSingRedoBetween,2021.2.3,59.53543300939453,
4,0,4,0,,,,,,,,,,,,,,,,,,,,,,,,,,780.2294995002449,None,territory,31,5,sing,blue,778.2289885999635,None,None,778.2289885999635,None,,,,,,,,,,,,,,,,,,,,,,,,,,,,,,,,,,,63 Sing,001,2022_Oct_18_0852,ProdSingRedoBetween,2021.2.3,59.53543300939453,
5,0,5,0,,,,,,,,,,,,,,,,,,,,,,,,,,782.7489738999866,None,audience,60,6,sing,red,780.7334833000787,None,None,780.7334833000787,None,,,,,,,,,,,,,,,,,,,,,,,,,,,,,,,,,,,63 Sing,001,2022_Oct_18_0852,ProdSingRedoBetween,2021.2.3,59.53543300939453,
6,0,6,0,,,,,,,,,,,,,,,,,,,,,,,,,,785.2677294001915,None,mankind,73,7,sing,red,783.2600648999214,None,None,783.2600648999214,None,,,,,,,,,,,,,,,,,,,,,,,,,,,,,,,,,,,63 Sing,001,2022_Oct_18_0852,ProdSingRedoBetween,2021.2.3,59.53543300939453,
7,0,7,0,,,,,,,,,,,,,,,,,,,,,,,,,,787.770544399973,None,reach,34,8,sing,blue,785.7680889000185,None,None,785.7680889000185,None,,,,,,,,,,,,,,,,,,,,,,,,,,,,,,,,,,,63 Sing,001,2022_Oct_18_0852,ProdSingRedoBetween,2021.2.3,59.53543300939453,
8,0,8,0,,,,,,,,,,,,,,,,,,,,,,,,,,790.2896266998723,None,scene,23,9,sing,yellow,788.27656379994,None,None,788.27656379994,None,,,,,,,,,,,,,,,,,,,,,,,,,,,,,,,,,,,63 Sing,001,2022_Oct_18_0852,ProdSingRedoBetween,2021.2.3,59.53543300939453,
9,0,9,0,,,,,,,,,,,,,,,,,,,,,,,,,,792.7921414999291,None,short,18,10,sing,yellow,790.7901154002175,None,None,790.7901154002175,None,,,,,,,,,,,,,,,,,,,,,,,,,,,,,,,,,,,63 Sing,001,2022_Oct_18_0852,ProdSingRedoBetween,2021.2.3,59.53543300939453,
10,0,10,0,,,,,,,,,,,,,,,,,,,,,,,,,,795.3112650997937,None,people,59,11,sing,yellow,793.3030245001428,None,None,793.3030245001428,None,,,,,,,,,,,,,,,,,,,,,,,,,,,,,,,,,,,63 Sing,001,2022_Oct_18_0852,ProdSingRedoBetween,2021.2.3,59.53543300939453,
11,0,11,0,,,,,,,,,,,,,,,,,,,,,,,,,,797.8138315998949,None,charter,20,12,sing,yellow,795.8117659999989,None,None,795.8117659999989,None,,,,,,,,,,,,,,,,,,,,,,,,,,,,,,,,,,,63 Sing,001,2022_Oct_18_0852,ProdSingRedoBetween,2021.2.3,59.53543300939453,
12,0,12,0,,,,,,,,,,,,,,,,,,,,,,,,,,800.3328645001166,None,health,50,13,sing,blue,798.3197154998779,None,None,798.3197154998779,None,,,,,,,,,,,,,,,,,,,,,,,,,,,,,,,,,,,63 Sing,001,2022_Oct_18_0852,ProdSingRedoBetween,2021.2.3,59.53543300939453,
13,0,13,0,,,,,,,,,,,,,,,,,,,,,,,,,,802.8521934999153,None,swift,30,14,sing,blue,800.8364039999433,None,None,800.8364039999433,None,,,,,,,,,,,,,,,,,,,,,,,,,,,,,,,,,,,63 Sing,001,2022_Oct_18_0852,ProdSingRedoBetween,2021.2.3,59.53543300939453,
14,0,14,0,,,,,,,,,,,,,,,,,,,,,,,,,,805.3547315998003,None,scale,25,15,sing,yellow,803.3525434001349,None,None,803.3525434001349,None,,,,,,,,,,,,,,,,,,,,,,,,,,,,,,,,,,,63 Sing,001,2022_Oct_18_0852,ProdSingRedoBetween,2021.2.3,59.53543300939453,
15,0,15,0,,,,,,,,,,,,,,,,,,,,,,,,,,807.8737269002013,None,object,49,16,sing,blue,805.8631775001995,None,None,805.8631775001995,None,,,,,,,,,,,,,,,,,,,,,,,,,,,,,,,,,,,63 Sing,001,2022_Oct_18_0852,ProdSingRedoBetween,2021.2.3,59.53543300939453,
16,0,16,0,,,,,,,,,,,,,,,,,,,,,,,,,,810.3764068000019,None,republic,46,17,sing,blue,808.3760652998462,None,None,808.3760652998462,None,,,,,,,,,,,,,,,,,,,,,,,,,,,,,,,,,,,63 Sing,001,2022_Oct_18_0852,ProdSingRedoBetween,2021.2.3,59.53543300939453,
17,0,17,0,,,,,,,,,,,,,,,,,,,,,,,,,,812.8954285001382,None,chief,22,18,sing,yellow,810.8810517000966,None,None,810.8810517000966,None,,,,,,,,,,,,,,,,,,,,,,,,,,,,,,,,,,,63 Sing,001,2022_Oct_18_0852,ProdSingRedoBetween,2021.2.3,59.53543300939453,
18,0,18,0,,,,,,,,,,,,,,,,,,,,,,,,,,815.3980625998229,None,angle,29,19,sing,blue,813.3964937999845,None,None,813.3964937999845,None,,,,,,,,,,,,,,,,,,,,,,,,,,,,,,,,,,,63 Sing,001,2022_Oct_18_0852,ProdSingRedoBetween,2021.2.3,59.53543300939453,
19,0,19,0,,,,,,,,,,,,,,,,,,,,,,,,,,817.9172280002385,None,smooth,12,20,sing,yellow,815.9039012999274,None,None,815.9039012999274,None,,,,,,,,,,,,,,,,,,,,,,,,,,,,,,,,,,,63 Sing,001,2022_Oct_18_0852,ProdSingRedoBetween,2021.2.3,59.53543300939453,
20,0,20,0,,,,,,,,,,,,,,,,,,,,,,,,,,820.4197174999863,None,collection,14,21,sing,yellow,818.4181030998006,None,None,818.4181030998006,None,,,,,,,,,,,,,,,,,,,,,,,,,,,,,,,,,,,63 Sing,001,2022_Oct_18_0852,ProdSingRedoBetween,2021.2.3,59.53543300939453,
21,0,21,0,,,,,,,,,,,,,,,,,,,,,,,,,,822.938822099939,None,comfort,16,22,sing,yellow,820.9243461000733,None,None,820.9243461000733,None,,,,,,,,,,,,,,,,,,,,,,,,,,,,,,,,,,,63 Sing,001,2022_Oct_18_0852,ProdSingRedoBetween,2021.2.3,59.53543300939453,
22,0,22,0,,,,,,,,,,,,,,,,,,,,,,,,,,825.4413910000585,None,month,89,23,sing,red,823.439197700005,None,None,823.439197700005,None,,,,,,,,,,,,,,,,,,,,,,,,,,,,,,,,,,,63 Sing,001,2022_Oct_18_0852,ProdSingRedoBetween,2021.2.3,59.53543300939453,
23,0,23,0,,,,,,,,,,,,,,,,,,,,,,,,,,827.9603475001641,None,rapid,9,24,sing,yellow,825.9472876000218,None,None,825.9472876000218,None,,,,,,,,,,,,,,,,,,,,,,,,,,,,,,,,,,,63 Sing,001,2022_Oct_18_0852,ProdSingRedoBetween,2021.2.3,59.53543300939453,
24,0,24,0,,,,,,,,,,,,,,,,,,,,,,,,,,830.4629959999584,None,damage,70,25,sing,red,828.4610283002257,None,None,828.4610283002257,None,,,,,,,,,,,,,,,,,,,,,,,,,,,,,,,,,,,63 Sing,001,2022_Oct_18_0852,ProdSingRedoBetween,2021.2.3,59.53543300939453,
25,0,25,0,,,,,,,,,,,,,,,,,,,,,,,,,,832.965567599982,None,general,57,26,sing,blue,830.9644641000777,None,None,830.9644641000777,None,,,,,,,,,,,,,,,,,,,,,,,,,,,,,,,,,,,63 Sing,001,2022_Oct_18_0852,ProdSingRedoBetween,2021.2.3,59.53543300939453,
26,0,26,0,,,,,,,,,,,,,,,,,,,,,,,,,,835.4846641998738,None,estate,79,27,sing,red,833.4717096001841,None,None,833.4717096001841,None,,,,,,,,,,,,,,,,,,,,,,,,,,,,,,,,,,,63 Sing,001,2022_Oct_18_0852,ProdSingRedoBetween,2021.2.3,59.53543300939453,
27,0,27,0,,,,,,,,,,,,,,,,,,,,,,,,,,837.9872293001972,None,relation,47,28,sing,blue,835.9860816998407,None,None,835.9860816998407,None,,,,,,,,,,,,,,,,,,,,,,,,,,,,,,,,,,,63 Sing,001,2022_Oct_18_0852,ProdSingRedoBetween,2021.2.3,59.53543300939453,
28,0,28,0,,,,,,,,,,,,,,,,,,,,,,,,,,840.4897121000104,None,season,69,29,sing,red,838.4877491998486,None,None,838.4877491998486,None,,,,,,,,,,,,,,,,,,,,,,,,,,,,,,,,,,,63 Sing,001,2022_Oct_18_0852,ProdSingRedoBetween,2021.2.3,59.53543300939453,
29,0,29,0,,,,,,,,,,,,,,,,,,,,,,,,,,843.0086972001009,None,gesture,40,30,sing,blue,841.0021449998021,None,None,841.0021449998021,None,,,,,,,,,,,,,,,,,,,,,,,,,,,,,,,,,,,63 Sing,001,2022_Oct_18_0852,ProdSingRedoBetween,2021.2.3,59.53543300939453,
30,0,30,0,,,,,,,,,,,,,,,,,,,,,,,,,,845.5114302998409,None,route,82,31,sing,red,843.509324000217,None,None,843.509324000217,None,,,,,,,,,,,,,,,,,,,,,,,,,,,,,,,,,,,63 Sing,001,2022_Oct_18_0852,ProdSingRedoBetween,2021.2.3,59.53543300939453,
31,0,31,0,,,,,,,,,,,,,,,,,,,,,,,,,,848.0305626001209,None,produce,64,32,sing,red,846.0173602001742,None,None,846.0173602001742,None,,,,,,,,,,,,,,,,,,,,,,,,,,,,,,,,,,,63 Sing,001,2022_Oct_18_0852,ProdSingRedoBetween,2021.2.3,59.53543300939453,
32,0,32,0,,,,,,,,,,,,,,,,,,,,,,,,,,850.5330900000408,None,display,35,33,sing,blue,848.5336325000972,None,None,848.5336325000972,None,,,,,,,,,,,,,,,,,,,,,,,,,,,,,,,,,,,63 Sing,001,2022_Oct_18_0852,ProdSingRedoBetween,2021.2.3,59.53543300939453,
33,0,33,0,,,,,,,,,,,,,,,,,,,,,,,,,,853.052283400204,None,principal,33,34,sing,blue,851.0387292997912,None,None,851.0387292997912,None,,,,,,,,,,,,,,,,,,,,,,,,,,,,,,,,,,,63 Sing,001,2022_Oct_18_0852,ProdSingRedoBetween,2021.2.3,59.53543300939453,
34,0,34,0,,,,,,,,,,,,,,,,,,,,,,,,,,855.5548270000145,None,material,80,35,sing,red,853.5523104998283,None,None,853.5523104998283,None,,,,,,,,,,,,,,,,,,,,,,,,,,,,,,,,,,,63 Sing,001,2022_Oct_18_0852,ProdSingRedoBetween,2021.2.3,59.53543300939453,
35,0,35,0,,,,,,,,,,,,,,,,,,,,,,,,,,858.0574229001068,None,murder,66,36,sing,red,856.0580095001496,None,None,856.0580095001496,None,,,,,,,,,,,,,,,,,,,,,,,,,,,,,,,,,,,63 Sing,001,2022_Oct_18_0852,ProdSingRedoBetween,2021.2.3,59.53543300939453,
36,0,36,0,,,,,,,,,,,,,,,,,,,,,,,,,,860.5764999999665,None,fashion,67,37,sing,red,858.56551139988,None,None,858.56551139988,None,,,,,,,,,,,,,,,,,,,,,,,,,,,,,,,,,,,63 Sing,001,2022_Oct_18_0852,ProdSingRedoBetween,2021.2.3,59.53543300939453,
37,0,37,0,,,,,,,,,,,,,,,,,,,,,,,,,,863.0956815001555,None,guest,48,38,sing,blue,861.0812241001986,None,None,861.0812241001986,None,,,,,,,,,,,,,,,,,,,,,,,,,,,,,,,,,,,63 Sing,001,2022_Oct_18_0852,ProdSingRedoBetween,2021.2.3,59.53543300939453,
38,0,38,0,,,,,,,,,,,,,,,,,,,,,,,,,,865.5980489999056,None,clean,44,39,sing,blue,863.5988281001337,None,None,863.5988281001337,None,,,,,,,,,,,,,,,,,,,,,,,,,,,,,,,,,,,63 Sing,001,2022_Oct_18_0852,ProdSingRedoBetween,2021.2.3,59.53543300939453,
39,0,39,0,,,,,,,,,,,,,,,,,,,,,,,,,,868.1007515001111,None,strain,53,40,sing,blue,866.1013608998619,None,None,866.1013608998619,None,,,,,,,,,,,,,,,,,,,,,,,,,,,,,,,,,,,63 Sing,001,2022_Oct_18_0852,ProdSingRedoBetween,2021.2.3,59.53543300939453,
40,0,40,0,,,,,,,,,,,,,,,,,,,,,,,,,,870.6197188999504,None,session,24,41,sing,yellow,868.6066147000529,None,None,868.6066147000529,None,,,,,,,,,,,,,,,,,,,,,,,,,,,,,,,,,,,63 Sing,001,2022_Oct_18_0852,ProdSingRedoBetween,2021.2.3,59.53543300939453,
41,0,41,0,,,,,,,,,,,,,,,,,,,,,,,,,,873.1223432999104,None,pretty,28,42,sing,yellow,871.1215320001356,None,None,871.1215320001356,None,,,,,,,,,,,,,,,,,,,,,,,,,,,,,,,,,,,63 Sing,001,2022_Oct_18_0852,ProdSingRedoBetween,2021.2.3,59.53543300939453,
42,0,42,0,,,,,,,,,,,,,,,,,,,,,,,,,,875.641427599825,None,weight,55,43,sing,blue,873.630214900244,None,None,873.630214900244,None,,,,,,,,,,,,,,,,,,,,,,,,,,,,,,,,,,,63 Sing,001,2022_Oct_18_0852,ProdSingRedoBetween,2021.2.3,59.53543300939453,
43,0,43,0,,,,,,,,,,,,,,,,,,,,,,,,,,878.1437735999934,None,trial,42,44,sing,blue,876.1417843000963,None,None,876.1417843000963,None,,,,,,,,,,,,,,,,,,,,,,,,,,,,,,,,,,,63 Sing,001,2022_Oct_18_0852,ProdSingRedoBetween,2021.2.3,59.53543300939453,
44,0,44,0,,,,,,,,,,,,,,,,,,,,,,,,,,880.6630815998651,None,government,32,45,sing,blue,878.6529637998901,None,None,878.6529637998901,None,,,,,,,,,,,,,,,,,,,,,,,,,,,,,,,,,,,63 Sing,001,2022_Oct_18_0852,ProdSingRedoBetween,2021.2.3,59.53543300939453,
45,0,45,0,,,,,,,,,,,,,,,,,,,,,,,,,,883.1822299999185,None,dozen,77,46,sing,red,881.1684423000552,None,None,881.1684423000552,None,,,,,,,,,,,,,,,,,,,,,,,,,,,,,,,,,,,63 Sing,001,2022_Oct_18_0852,ProdSingRedoBetween,2021.2.3,59.53543300939453,
46,0,46,0,,,,,,,,,,,,,,,,,,,,,,,,,,885.6847832999192,None,group,84,47,sing,red,883.682550100144,None,None,883.682550100144,None,,,,,,,,,,,,,,,,,,,,,,,,,,,,,,,,,,,63 Sing,001,2022_Oct_18_0852,ProdSingRedoBetween,2021.2.3,59.53543300939453,
47,0,47,0,,,,,,,,,,,,,,,,,,,,,,,,,,888.2038989001885,None,union,52,48,sing,blue,886.1887766001746,None,None,886.1887766001746,None,,,,,,,,,,,,,,,,,,,,,,,,,,,,,,,,,,,63 Sing,001,2022_Oct_18_0852,ProdSingRedoBetween,2021.2.3,59.53543300939453,
48,0,48,0,,,,,,,,,,,,,,,,,,,,,,,,,,890.7231187000871,None,direction,5,49,sing,yellow,888.7084269998595,None,None,888.7084269998595,None,,,,,,,,,,,,,,,,,,,,,,,,,,,,,,,,,,,63 Sing,001,2022_Oct_18_0852,ProdSingRedoBetween,2021.2.3,59.53543300939453,
49,0,49,0,,,,,,,,,,,,,,,,,,,,,,,,,,893.2422846998088,None,science,15,50,sing,yellow,891.2293703001924,None,None,891.2293703001924,None,,,,,,,,,,,,,,,,,,,,,,,,,,,,,,,,,,,63 Sing,001,2022_Oct_18_0852,ProdSingRedoBetween,2021.2.3,59.53543300939453,
50,0,50,0,,,,,,,,,,,,,,,,,,,,,,,,,,895.7615428999998,None,error,88,51,sing,red,893.7561555001885,None,None,893.7561555001885,None,,,,,,,,,,,,,,,,,,,,,,,,,,,,,,,,,,,63 Sing,001,2022_Oct_18_0852,ProdSingRedoBetween,2021.2.3,59.53543300939453,
51,0,51,0,,,,,,,,,,,,,,,,,,,,,,,,,,898.264013200067,None,oxygen,7,52,sing,yellow,896.2646209001541,None,None,896.2646209001541,None,,,,,,,,,,,,,,,,,,,,,,,,,,,,,,,,,,,63 Sing,001,2022_Oct_18_0852,ProdSingRedoBetween,2021.2.3,59.53543300939453,
52,0,52,0,,,,,,,,,,,,,,,,,,,,,,,,,,900.7664629998617,None,alert,51,53,sing,blue,898.7646009000018,None,None,898.7646009000018,None,,,,,,,,,,,,,,,,,,,,,,,,,,,,,,,,,,,63 Sing,001,2022_Oct_18_0852,ProdSingRedoBetween,2021.2.3,59.53543300939453,
53,0,53,0,,,,,,,,,,,,,,,,,,,,,,,,,,903.2689773999155,None,partner,2,54,sing,yellow,901.2689669001848,None,None,901.2689669001848,None,,,,,,,,,,,,,,,,,,,,,,,,,,,,,,,,,,,63 Sing,001,2022_Oct_18_0852,ProdSingRedoBetween,2021.2.3,59.53543300939453,
54,0,54,0,,,,,,,,,,,,,,,,,,,,,,,,,,905.7882582000457,None,attack,3,55,sing,yellow,903.7743095001206,None,None,903.7743095001206,None,,,,,,,,,,,,,,,,,,,,,,,,,,,,,,,,,,,63 Sing,001,2022_Oct_18_0852,ProdSingRedoBetween,2021.2.3,59.53543300939453,
55,0,55,0,,,,,,,,,,,,,,,,,,,,,,,,,,908.3072970998473,None,weather,74,56,sing,red,906.293355199974,None,None,906.293355199974,None,,,,,,,,,,,,,,,,,,,,,,,,,,,,,,,,,,,63 Sing,001,2022_Oct_18_0852,ProdSingRedoBetween,2021.2.3,59.53543300939453,
56,0,56,0,,,,,,,,,,,,,,,,,,,,,,,,,,910.8096118001267,None,childhood,10,57,sing,yellow,908.8078127000481,None,None,908.8078127000481,None,,,,,,,,,,,,,,,,,,,,,,,,,,,,,,,,,,,63 Sing,001,2022_Oct_18_0852,ProdSingRedoBetween,2021.2.3,59.53543300939453,
57,0,57,0,,,,,,,,,,,,,,,,,,,,,,,,,,913.3289137999527,None,equipment,86,58,sing,red,911.322030799929,None,None,911.322030799929,None,,,,,,,,,,,,,,,,,,,,,,,,,,,,,,,,,,,63 Sing,001,2022_Oct_18_0852,ProdSingRedoBetween,2021.2.3,59.53543300939453,
58,0,58,0,,,,,,,,,,,,,,,,,,,,,,,,,,915.831531799864,None,tennis,43,59,sing,blue,913.8297835001722,None,None,913.8297835001722,None,,,,,,,,,,,,,,,,,,,,,,,,,,,,,,,,,,,63 Sing,001,2022_Oct_18_0852,ProdSingRedoBetween,2021.2.3,59.53543300939453,
59,0,59,0,,,,,,,,,,,,,,,,,,,,,,,,,,918.333967700135,None,congress,54,60,sing,blue,916.3344398001209,None,None,916.3344398001209,None,,,,,,,,,,,,,,,,,,,,,,,,,,,,,,,,,,,63 Sing,001,2022_Oct_18_0852,ProdSingRedoBetween,2021.2.3,59.53543300939453,
60,0,60,0,,,,,,,,,,,,,,,,,,,,,,,,,,920.8365961001255,None,conference,4,61,sing,yellow,918.8365890001878,None,None,918.8365890001878,None,,,,,,,,,,,,,,,,,,,,,,,,,,,,,,,,,,,63 Sing,001,2022_Oct_18_0852,ProdSingRedoBetween,2021.2.3,59.53543300939453,
61,0,61,0,,,,,,,,,,,,,,,,,,,,,,,,,,923.3389391000383,None,agency,19,62,sing,yellow,921.336778299883,None,None,921.336778299883,None,,,,,,,,,,,,,,,,,,,,,,,,,,,,,,,,,,,63 Sing,001,2022_Oct_18_0852,ProdSingRedoBetween,2021.2.3,59.53543300939453,
62,0,62,0,,,,,,,,,,,,,,,,,,,,,,,,,,925.8583248001523,None,command,87,63,sing,red,923.8431206000969,None,None,923.8431206000969,None,,,,,,,,,,,,,,,,,,,,,,,,,,,,,,,,,,,63 Sing,001,2022_Oct_18_0852,ProdSingRedoBetween,2021.2.3,59.53543300939453,
63,0,63,0,,,,,,,,,,,,,,,,,,,,,,,,,,928.3608646001667,None,council,81,64,sing,red,926.358681499958,None,None,926.358681499958,None,,,,,,,,,,,,,,,,,,,,,,,,,,,,,,,,,,,63 Sing,001,2022_Oct_18_0852,ProdSingRedoBetween,2021.2.3,59.53543300939453,
64,0,64,0,,,,,,,,,,,,,,,,,,,,,,,,,,930.8798082000576,None,incident,63,65,sing,red,928.8651646999642,None,None,928.8651646999642,None,,,,,,,,,,,,,,,,,,,,,,,,,,,,,,,,,,,63 Sing,001,2022_Oct_18_0852,ProdSingRedoBetween,2021.2.3,59.53543300939453,
65,0,65,0,,,,,,,,,,,,,,,,,,,,,,,,,,933.3824521000497,None,instrument,8,66,sing,yellow,931.3803376997821,None,None,931.3803376997821,None,,,,,,,,,,,,,,,,,,,,,,,,,,,,,,,,,,,63 Sing,001,2022_Oct_18_0852,ProdSingRedoBetween,2021.2.3,59.53543300939453,
66,0,66,0,,,,,,,,,,,,,,,,,,,,,,,,,,935.8849977999926,None,grade,27,67,sing,yellow,933.885823099874,None,None,933.885823099874,None,,,,,,,,,,,,,,,,,,,,,,,,,,,,,,,,,,,63 Sing,001,2022_Oct_18_0852,ProdSingRedoBetween,2021.2.3,59.53543300939453,
67,0,67,0,,,,,,,,,,,,,,,,,,,,,,,,,,938.4040485001169,None,minor,65,68,sing,red,936.3944728998467,None,None,936.3944728998467,None,,,,,,,,,,,,,,,,,,,,,,,,,,,,,,,,,,,63 Sing,001,2022_Oct_18_0852,ProdSingRedoBetween,2021.2.3,59.53543300939453,
68,0,68,0,,,,,,,,,,,,,,,,,,,,,,,,,,940.9232156001963,None,stranger,17,69,sing,yellow,938.9079086999409,None,None,938.9079086999409,None,,,,,,,,,,,,,,,,,,,,,,,,,,,,,,,,,,,63 Sing,001,2022_Oct_18_0852,ProdSingRedoBetween,2021.2.3,59.53543300939453,
69,0,69,0,,,,,,,,,,,,,,,,,,,,,,,,,,943.4256028002128,None,addition,72,70,sing,red,941.4264132999815,None,None,941.4264132999815,None,,,,,,,,,,,,,,,,,,,,,,,,,,,,,,,,,,,63 Sing,001,2022_Oct_18_0852,ProdSingRedoBetween,2021.2.3,59.53543300939453,
70,0,70,0,,,,,,,,,,,,,,,,,,,,,,,,,,945.9282720000483,None,citizen,56,71,sing,blue,943.9273418998346,None,None,943.9273418998346,None,,,,,,,,,,,,,,,,,,,,,,,,,,,,,,,,,,,63 Sing,001,2022_Oct_18_0852,ProdSingRedoBetween,2021.2.3,59.53543300939453,
71,0,71,0,,,,,,,,,,,,,,,,,,,,,,,,,,948.4474097001366,None,institute,41,72,sing,blue,946.43364820024,None,None,946.43364820024,None,,,,,,,,,,,,,,,,,,,,,,,,,,,,,,,,,,,63 Sing,001,2022_Oct_18_0852,ProdSingRedoBetween,2021.2.3,59.53543300939453,
72,0,72,0,,,,,,,,,,,,,,,,,,,,,,,,,,950.9499197998084,None,appeal,62,73,sing,red,948.9494718001224,None,None,948.9494718001224,None,,,,,,,,,,,,,,,,,,,,,,,,,,,,,,,,,,,63 Sing,001,2022_Oct_18_0852,ProdSingRedoBetween,2021.2.3,59.53543300939453,
73,0,73,0,,,,,,,,,,,,,,,,,,,,,,,,,,953.4690314000472,None,majority,36,74,sing,blue,951.4568885001354,None,None,951.4568885001354,None,,,,,,,,,,,,,,,,,,,,,,,,,,,,,,,,,,,63 Sing,001,2022_Oct_18_0852,ProdSingRedoBetween,2021.2.3,59.53543300939453,
74,0,74,0,,,,,,,,,,,,,,,,,,,,,,,,,,955.9716007998213,None,music,61,75,sing,red,953.9695212999359,None,None,953.9695212999359,None,,,,,,,,,,,,,,,,,,,,,,,,,,,,,,,,,,,63 Sing,001,2022_Oct_18_0852,ProdSingRedoBetween,2021.2.3,59.53543300939453,
75,0,75,0,,,,,,,,,,,,,,,,,,,,,,,,,,958.4740528999828,None,second,1,76,sing,yellow,956.4747256999835,None,None,956.4747256999835,None,,,,,,,,,,,,,,,,,,,,,,,,,,,,,,,,,,,63 Sing,001,2022_Oct_18_0852,ProdSingRedoBetween,2021.2.3,59.53543300939453,
76,0,76,0,,,,,,,,,,,,,,,,,,,,,,,,,,960.9932603999041,None,symbol,83,77,sing,red,958.9797725998797,None,None,958.9797725998797,None,,,,,,,,,,,,,,,,,,,,,,,,,,,,,,,,,,,63 Sing,001,2022_Oct_18_0852,ProdSingRedoBetween,2021.2.3,59.53543300939453,
77,0,77,0,,,,,,,,,,,,,,,,,,,,,,,,,,963.5123569997959,None,discussion,26,78,sing,yellow,961.4972481001168,None,None,961.4972481001168,None,,,,,,,,,,,,,,,,,,,,,,,,,,,,,,,,,,,63 Sing,001,2022_Oct_18_0852,ProdSingRedoBetween,2021.2.3,59.53543300939453,
78,0,78,0,,,,,,,,,,,,,,,,,,,,,,,,,,966.0315208998509,None,society,85,79,sing,red,964.0218972000293,None,None,964.0218972000293,None,,,,,,,,,,,,,,,,,,,,,,,,,,,,,,,,,,,63 Sing,001,2022_Oct_18_0852,ProdSingRedoBetween,2021.2.3,59.53543300939453,
79,0,79,0,,,,,,,,,,,,,,,,,,,,,,,,,,968.5341146001592,None,balance,11,80,sing,yellow,966.533467900008,None,None,966.533467900008,None,,,,,,,,,,,,,,,,,,,,,,,,,,,,,,,,,,,63 Sing,001,2022_Oct_18_0852,ProdSingRedoBetween,2021.2.3,59.53543300939453,
80,0,80,0,,,,,,,,,,,,,,,,,,,,,,,,,,971.0365716000088,None,running,37,81,sing,blue,969.0345343998633,None,None,969.0345343998633,None,,,,,,,,,,,,,,,,,,,,,,,,,,,,,,,,,,,63 Sing,001,2022_Oct_18_0852,ProdSingRedoBetween,2021.2.3,59.53543300939453,
81,0,81,0,,,,,,,,,,,,,,,,,,,,,,,,,,973.5555996000767,None,frank,78,82,sing,red,971.5424365000799,None,None,971.5424365000799,None,,,,,,,,,,,,,,,,,,,,,,,,,,,,,,,,,,,63 Sing,001,2022_Oct_18_0852,ProdSingRedoBetween,2021.2.3,59.53543300939453,
82,0,82,0,,,,,,,,,,,,,,,,,,,,,,,,,,976.0582078001462,None,voice,21,83,sing,yellow,974.0562259000726,None,None,974.0562259000726,None,,,,,,,,,,,,,,,,,,,,,,,,,,,,,,,,,,,63 Sing,001,2022_Oct_18_0852,ProdSingRedoBetween,2021.2.3,59.53543300939453,
83,0,83,0,,,,,,,,,,,,,,,,,,,,,,,,,,978.5774245997891,None,minute,76,84,sing,red,976.5702853999101,None,None,976.5702853999101,None,,,,,,,,,,,,,,,,,,,,,,,,,,,,,,,,,,,63 Sing,001,2022_Oct_18_0852,ProdSingRedoBetween,2021.2.3,59.53543300939453,
84,0,84,0,,,,,,,,,,,,,,,,,,,,,,,,,,981.0798164000735,None,leader,13,85,sing,yellow,979.0784446001053,None,None,979.0784446001053,None,,,,,,,,,,,,,,,,,,,,,,,,,,,,,,,,,,,63 Sing,001,2022_Oct_18_0852,ProdSingRedoBetween,2021.2.3,59.53543300939453,
85,0,85,0,,,,,,,,,,,,,,,,,,,,,,,,,,983.5823705000803,None,bureau,71,86,sing,red,981.582715400029,None,None,981.582715400029,None,,,,,,,,,,,,,,,,,,,,,,,,,,,,,,,,,,,63 Sing,001,2022_Oct_18_0852,ProdSingRedoBetween,2021.2.3,59.53543300939453,
86,0,86,0,,,,,,,,,,,,,,,,,,,,,,,,,,986.1016099001281,None,cover,0,87,sing,yellow,984.0954630002379,None,None,984.0954630002379,None,,,,,,,,,,,,,,,,,,,,,,,,,,,,,,,,,,,63 Sing,001,2022_Oct_18_0852,ProdSingRedoBetween,2021.2.3,59.53543300939453,
87,0,87,0,,,,,,,,,,,,,,,,,,,,,,,,,,988.6041656997986,None,plane,38,88,sing,blue,986.6021814998239,None,None,986.6021814998239,None,,,,,,,,,,,,,,,,,,,,,,,,,,,,,,,,,,,63 Sing,001,2022_Oct_18_0852,ProdSingRedoBetween,2021.2.3,59.53543300939453,
88,0,88,0,,,,,,,,,,,,,,,,,,,,,,,,,,991.1066153999418,None,property,39,89,sing,blue,989.105451699812,None,None,989.105451699812,None,,,,,,,,,,,,,,,,,,,,,,,,,,,,,,,,,,,63 Sing,001,2022_Oct_18_0852,ProdSingRedoBetween,2021.2.3,59.53543300939453,
89,0,89,0,,,,,,,,,,,,,,,,,,,,,,,,,,993.6090246001258,None,volume,58,90,sing,blue,991.608804400079,None,None,991.608804400079,None,,,,,,,,,,,,,,,,,,,,,,,,,,,,,,,,,,,63 Sing,001,2022_Oct_18_0852,ProdSingRedoBetween,2021.2.3,59.53543300939453,
,,,,,,,,,,,,,,,,,,,,,,,,,,,,,,,,,,,,,,,,,994.10975279985,None,k,204.52950439974666,994.10975279985,None,,,,,,,,,,,,,,,,,,,,,,,,,,,,,63 Sing,001,2022_Oct_18_0852,ProdSingRedoBetween,2021.2.3,59.53543300939453,
,,,,0,0,0,0,,,,,,,,,,,,,,,,,,,,,,1211.9279455002397,None,,,,,,,,,,,,,,,,,collection,14,1,sing,old,yellow,1199.1736628999934,None,1199.1736628999934,None,6,8.04170890012756,1199.1736628999934,None,8.04170890012756,1207.2458072002046,None,1207.7565430998802,None,1207.7565430998802,None,r,4.154663800261915,1207.7565430998802,None,4.154663800261915,,,63 Sing,001,2022_Oct_18_0852,ProdSingRedoBetween,2021.2.3,59.53543300939453,
,,,,1,0,1,0,,,,,,,,,,,,,,,,,,,,,,1216.1312704999,None,,,,,,,,,,,,,,,,,smooth,12,2,sing,old,yellow,1212.4309510001913,None,1212.4309510001913,None,6,2.040443900041282,1212.4309510001913,None,2.040443900041282,1214.4960615998134,None,1215.0002909000032,None,1215.0002909000032,None,r,1.1110860998742282,1215.0002909000032,None,1.1110860998742282,,,63 Sing,001,2022_Oct_18_0852,ProdSingRedoBetween,2021.2.3,59.53543300939453,
,,,,2,0,2,0,,,,,,,,,,,,,,,,,,,,,,1223.5217655999586,None,,,,,,,,,,,,,,,,,religion,176,3,sing,new,null,1216.6406394001096,None,1216.6406394001096,None,5,3.9826023997738957,1216.6406394001096,None,3.9826023997738957,1220.652834100183,None,1221.1628522998653,None,1221.1628522998653,None,r,2.3404497001320124,1221.1628522998653,None,2.3404497001320124,,,63 Sing,001,2022_Oct_18_0852,ProdSingRedoBetween,2021.2.3,59.53543300939453,
,,,,3,0,3,0,,,,,,,,,,,,,,,,,,,,,,1230.3960604998283,None,,,,,,,,,,,,,,,,,frank,78,4,sing,old,red,1224.0276644001715,None,1224.0276644001715,None,2,4.019662200007588,1224.0276644001715,None,4.019662200007588,1228.0833864999004,None,1228.5974452001974,None,1228.5974452001974,None,n,1.7697396003641188,1228.5974452001974,None,1.7697396003641188,,,63 Sing,001,2022_Oct_18_0852,ProdSingRedoBetween,2021.2.3,59.53543300939453,
,,,,4,0,4,0,,,,,,,,,,,,,,,,,,,,,,1238.1192789999768,None,,,,,,,,,,,,,,,,,second,1,5,sing,old,yellow,1230.906731700059,None,1230.906731700059,None,6,3.7965437998063862,1230.906731700059,None,3.7965437998063862,1234.7400910998695,None,1235.2517797998153,None,1235.2517797998153,None,r,2.8434071000665426,1235.2517797998153,None,2.8434071000665426,,,63 Sing,001,2022_Oct_18_0852,ProdSingRedoBetween,2021.2.3,59.53543300939453,
,,,,5,0,5,0,,,,,,,,,,,,,,,,,,,,,,1242.073549500201,None,,,,,,,,,,,,,,,,,measure,107,6,sing,new,null,1238.6234928998165,None,1238.6234928998165,None,6,1.8316735997796059,1238.6234928998165,None,1.8316735997796059,1240.4773233002052,None,1240.9891913998872,None,1240.9891913998872,None,r,1.0659881001338363,1240.9891913998872,None,1.0659881001338363,,,63 Sing,001,2022_Oct_18_0852,ProdSingRedoBetween,2021.2.3,59.53543300939453,
,,,,6,0,6,0,,,,,,,,,,,,,,,,,,,,,,1245.545252200216,None,,,,,,,,,,,,,,,,,meeting,114,7,sing,new,null,1242.5805720998906,None,1242.5805720998906,None,5,1.5305177001282573,1242.5805720998906,None,1.5305177001282573,1244.1472045001574,None,1244.6594659998082,None,1244.6594659998082,None,r,0.8597785998135805,1244.6594659998082,None,0.8597785998135805,,,63 Sing,001,2022_Oct_18_0852,ProdSingRedoBetween,2021.2.3,59.53543300939453,
,,,,7,0,7,0,,,,,,,,,,,,,,,,,,,,,,1248.8803237997927,None,,,,,,,,,,,,,,,,,sunset,170,8,sing,new,null,1246.0634600999765,None,1246.0634600999765,None,6,1.72792199999094,1246.0634600999765,None,1.72792199999094,1247.8164753001183,None,1248.3373027998023,None,1248.3373027998023,None,r,0.5258436999283731,1248.3373027998023,None,0.5258436999283731,,,63 Sing,001,2022_Oct_18_0852,ProdSingRedoBetween,2021.2.3,59.53543300939453,
,,,,8,0,8,0,,,,,,,,,,,,,,,,,,,,,,1254.3023859001696,None,,,,,,,,,,,,,,,,,council,81,9,sing,old,red,1249.3856978002004,None,1249.3856978002004,None,3,2.941463999915868,1249.3856978002004,None,2.941463999915868,1252.3522255998105,None,1252.8722939998843,None,1252.8722939998843,None,f,1.40691509982571,1252.8722939998843,None,1.40691509982571,,,63 Sing,001,2022_Oct_18_0852,ProdSingRedoBetween,2021.2.3,59.53543300939453,
,,,,9,0,9,0,,,,,,,,,,,,,,,,,,,,,,1257.5053023998626,None,,,,,,,,,,,,,,,,,running,37,10,sing,old,blue,1254.8169619999826,None,1254.8169619999826,None,6,1.6461936002597213,1254.8169619999826,None,1.6461936002597213,1256.4888340001926,None,1256.9938866999,None,1256.9938866999,None,r,0.4853362999856472,1256.9938866999,None,0.4853362999856472,,,63 Sing,001,2022_Oct_18_0852,ProdSingRedoBetween,2021.2.3,59.53543300939453,
,,,,10,0,10,0,,,,,,,,,,,,,,,,,,,,,,1260.3439914002083,None,,,,,,,,,,,,,,,,,appearance,132,11,sing,new,null,1258.0100352000445,None,1258.0100352000445,None,6,1.5251962998881936,1258.0100352000445,None,1.5251962998881936,1259.5633318000473,None,1260.080038699787,None,1260.080038699787,None,r,0.23140850011259317,1260.080038699787,None,0.23140850011259317,,,63 Sing,001,2022_Oct_18_0852,ProdSingRedoBetween,2021.2.3,59.53543300939453,
,,,,11,0,11,0,,,,,,,,,,,,,,,,,,,,,,1263.2779731000774,None,,,,,,,,,,,,,,,,,career,101,12,sing,new,null,1260.8661691998132,None,1260.8661691998132,None,6,1.5969834001734853,1260.8661691998132,None,1.5969834001734853,1262.494551199954,None,1262.997171400115,None,1262.997171400115,None,r,0.25805519986897707,1262.997171400115,None,0.25805519986897707,,,63 Sing,001,2022_Oct_18_0852,ProdSingRedoBetween,2021.2.3,59.53543300939453,
,,,,12,0,12,0,,,,,,,,,,,,,,,,,,,,,,1267.0817669997923,None,,,,,,,,,,,,,,,,,finish,109,13,sing,new,null,1263.786975900177,None,1263.786975900177,None,5,2.0601822999306023,1263.786975900177,None,2.0601822999306023,1265.864903499838,None,1266.3645807998255,None,1266.3645807998255,None,r,0.6905559999868274,1266.3645807998255,None,0.6905559999868274,,,63 Sing,001,2022_Oct_18_0852,ProdSingRedoBetween,2021.2.3,59.53543300939453,
,,,,13,0,13,0,,,,,,,,,,,,,,,,,,,,,,1271.870033300016,None,,,,,,,,,,,,,,,,,session,24,14,sing,old,yellow,1267.5986362001859,None,1267.5986362001859,None,3,2.536746499594301,1267.5986362001859,None,2.536746499594301,1270.1575346002355,None,1270.6729049999267,None,1270.6729049999267,None,f,1.1822247998788953,1270.6729049999267,None,1.1822247998788953,,,63 Sing,001,2022_Oct_18_0852,ProdSingRedoBetween,2021.2.3,59.53543300939453,
,,,,14,0,14,0,,,,,,,,,,,,,,,,,,,,,,1275.1398641001433,None,,,,,,,,,,,,,,,,,message,100,15,sing,new,null,1272.3767165997997,None,1272.3767165997997,None,6,1.7342959996312857,1272.3767165997997,None,1.7342959996312857,1274.1429996001534,None,1274.656892000232,None,1274.656892000232,None,r,0.4622867996804416,1274.656892000232,None,0.4622867996804416,,,63 Sing,001,2022_Oct_18_0852,ProdSingRedoBetween,2021.2.3,59.53543300939453,
,,,,15,0,15,0,,,,,,,,,,,,,,,,,,,,,,1277.925942900125,None,,,,,,,,,,,,,,,,,crime,150,16,sing,new,null,1275.6459951000288,None,1275.6459951000288,None,6,1.4092375999316573,1275.6459951000288,None,1.4092375999316573,1277.0825745002367,None,1277.5924498001114,None,1277.5924498001114,None,r,0.3106697998009622,1277.5924498001114,None,0.3106697998009622,,,63 Sing,001,2022_Oct_18_0852,ProdSingRedoBetween,2021.2.3,59.53543300939453,
,,,,16,0,16,0,,,,,,,,,,,,,,,,,,,,,,1280.8683589999564,None,,,,,,,,,,,,,,,,,audience,60,17,sing,old,red,1278.43365419982,None,1278.43365419982,None,6,1.501414599828422,1278.43365419982,None,1.501414599828422,1279.9622986000031,None,1280.4655444999225,None,1280.4655444999225,None,r,0.37369220005348325,1280.4655444999225,None,0.37369220005348325,,,63 Sing,001,2022_Oct_18_0852,ProdSingRedoBetween,2021.2.3,59.53543300939453,
,,,,17,0,17,0,,,,,,,,,,,,,,,,,,,,,,1285.717001200188,None,,,,,,,,,,,,,,,,,cover,0,18,sing,old,yellow,1281.3884371002205,None,1281.3884371002205,None,4,2.5466837999410927,1281.3884371002205,None,2.5466837999410927,1283.9665903998539,None,1284.4682383998297,None,1284.4682383998297,None,f,1.2269175997935236,1284.4682383998297,None,1.2269175997935236,,,63 Sing,001,2022_Oct_18_0852,ProdSingRedoBetween,2021.2.3,59.53543300939453,
,,,,18,0,18,0,,,,,,,,,,,,,,,,,,,,,,1289.6953008999117,None,,,,,,,,,,,,,,,,,republic,46,19,sing,old,blue,1286.2215737998486,None,1286.2215737998486,None,5,2.5135307000018656,1286.2215737998486,None,2.5135307000018656,1288.7547865002416,None,1289.262149100192,None,1289.262149100192,None,f,0.4092411999590695,1289.262149100192,None,0.4092411999590695,,,63 Sing,001,2022_Oct_18_0852,ProdSingRedoBetween,2021.2.3,59.53543300939453,
,,,,19,0,19,0,,,,,,,,,,,,,,,,,,,,,,1292.4738138001412,None,,,,,,,,,,,,,,,,,institute,41,20,sing,old,blue,1290.2102207001299,None,1290.2102207001299,None,6,1.4609218002296984,1290.2102207001299,None,1.4609218002296984,1291.695698699914,None,1292.2069215998054,None,1292.2069215998054,None,r,0.24020020011812449,1292.2069215998054,None,0.24020020011812449,,,63 Sing,001,2022_Oct_18_0852,ProdSingRedoBetween,2021.2.3,59.53543300939453,
,,,,20,0,20,0,,,,,,,,,,,,,,,,,,,,,,1294.9927517999895,None,,,,,,,,,,,,,,,,,trend,133,21,sing,new,null,1292.9760917001404,None,1292.9760917001404,None,6,1.2310688002035022,1292.9760917001404,None,1.2310688002035022,1294.2274072999135,None,1294.7429462000728,None,1294.7429462000728,None,r,0.2322106002829969,1294.7429462000728,None,0.2322106002829969,,,63 Sing,001,2022_Oct_18_0852,ProdSingRedoBetween,2021.2.3,59.53543300939453,
,,,,21,0,21,0,,,,,,,,,,,,,,,,,,,,,,1297.4785831999034,None,,,,,,,,,,,,,,,,,guest,48,22,sing,old,blue,1295.5035970001481,None,1295.5035970001481,None,6,1.32769659999758,1295.5035970001481,None,1.32769659999758,1296.8795989998616,None,1297.3788220002316,None,1297.3788220002316,None,r,0.08444359991699457,1297.3788220002316,None,0.08444359991699457,,,63 Sing,001,2022_Oct_18_0852,ProdSingRedoBetween,2021.2.3,59.53543300939453,
,,,,22,0,22,0,,,,,,,,,,,,,,,,,,,,,,1300.5167789999396,None,,,,,,,,,,,,,,,,,atmosphere,147,23,sing,new,null,1297.9827278000303,None,1297.9827278000303,None,6,1.7523850998841226,1297.9827278000303,None,1.7523850998841226,1299.7662332998589,None,1300.2893932000734,None,1300.2893932000734,None,r,0.1977225998416543,1300.2893932000734,None,0.1977225998416543,,,63 Sing,001,2022_Oct_18_0852,ProdSingRedoBetween,2021.2.3,59.53543300939453,
,,,,23,0,23,0,,,,,,,,,,,,,,,,,,,,,,1305.186622899957,None,,,,,,,,,,,,,,,,,pattern,148,24,sing,new,null,1301.0519953998737,None,1301.0519953998737,None,5,3.322998399846256,1301.0519953998737,None,3.322998399846256,1304.4023780999705,None,1304.9088602000847,None,1304.9088602000847,None,r,0.25833990005776286,1304.9088602000847,None,0.25833990005776286,,,63 Sing,001,2022_Oct_18_0852,ProdSingRedoBetween,2021.2.3,59.53543300939453,
,,,,24,0,24,0,,,,,,,,,,,,,,,,,,,,,,1308.2061721999198,None,,,,,,,,,,,,,,,,,property,39,25,sing,old,blue,1305.697553299833,None,1305.697553299833,None,6,1.6615551002323627,1305.697553299833,None,1.6615551002323627,1307.3925028000958,None,1307.9099575998262,None,1307.9099575998262,None,r,0.26519820000976324,1307.9099575998262,None,0.26519820000976324,,,63 Sing,001,2022_Oct_18_0852,ProdSingRedoBetween,2021.2.3,59.53543300939453,
,,,,25,0,25,0,,,,,,,,,,,,,,,,,,,,,,1313.0276307999156,None,,,,,,,,,,,,,,,,,conference,4,26,sing,old,yellow,1308.71077110013,None,1308.71077110013,None,4,2.7283143997192383,1308.71077110013,None,2.7283143997192383,1311.4605573001318,None,1311.9639357998967,None,1311.9639357998967,None,r,1.0351975001394749,1311.9639357998967,None,1.0351975001394749,,,63 Sing,001,2022_Oct_18_0852,ProdSingRedoBetween,2021.2.3,59.53543300939453,
,,,,26,0,26,0,,,,,,,,,,,,,,,,,,,,,,1319.717599300202,None,,,,,,,,,,,,,,,,,grade,27,27,sing,old,yellow,1313.538119699806,None,1313.538119699806,None,6,1.396863100118935,1313.538119699806,None,1.396863100118935,1314.9627396999858,None,1315.469491300173,None,1315.469491300173,None,f,4.225699000060558,1315.469491300173,None,4.225699000060558,,,63 Sing,001,2022_Oct_18_0852,ProdSingRedoBetween,2021.2.3,59.53543300939453,
,,,,27,0,27,0,,,,,,,,,,,,,,,,,,,,,,1322.3382307998836,None,,,,,,,,,,,,,,,,,pancakes,164,28,sing,new,null,1320.2325458000414,None,1320.2325458000414,None,6,1.406571100000292,1320.2325458000414,None,1.406571100000292,1321.6802857997827,None,1322.1882342002355,None,1322.1882342002355,None,r,0.1308150002732873,1322.1882342002355,None,0.1308150002732873,,,63 Sing,001,2022_Oct_18_0852,ProdSingRedoBetween,2021.2.3,59.53543300939453,
,,,,28,0,28,0,,,,,,,,,,,,,,,,,,,,,,1325.0896347002126,None,,,,,,,,,,,,,,,,,damage,70,29,sing,old,red,1322.8405821002088,None,1322.8405821002088,None,6,1.6225339001975954,1322.8405821002088,None,1.6225339001975954,1324.4937979998067,None,1325.0063128001057,None,1325.0063128001057,None,r,0.06475620018318295,1325.0063128001057,None,0.06475620018318295,,,63 Sing,001,2022_Oct_18_0852,ProdSingRedoBetween,2021.2.3,59.53543300939453,
,,,,29,0,29,0,,,,,,,,,,,,,,,,,,,,,,1329.0611442001536,None,,,,,,,,,,,,,,,,,balance,11,30,sing,old,yellow,1325.5954624000005,None,1325.5954624000005,None,5,1.8114533997140825,1325.5954624000005,None,1.8114533997140825,1327.4262736998498,None,1327.9339099000208,None,1327.9339099000208,None,f,1.0972221000120044,1327.9339099000208,None,1.0972221000120044,,,63 Sing,001,2022_Oct_18_0852,ProdSingRedoBetween,2021.2.3,59.53543300939453,
,,,,30,0,30,0,,,,,,,,,,,,,,,,,,,,,,1332.31348539982,None,,,,,,,,,,,,,,,,,crowd,91,31,sing,new,null,1329.564987400081,None,1329.564987400081,None,5,1.9220459000207484,1329.564987400081,None,1.9220459000207484,1331.5172028997913,None,1332.0378391002305,None,1332.0378391002305,None,r,0.25710170017555356,1332.0378391002305,None,0.25710170017555356,,,63 Sing,001,2022_Oct_18_0852,ProdSingRedoBetween,2021.2.3,59.53543300939453,
,,,,31,0,31,0,,,,,,,,,,,,,,,,,,,,,,1335.9051274000667,None,,,,,,,,,,,,,,,,,scene,23,32,sing,old,yellow,1332.8221815000288,None,1332.8221815000288,None,4,2.3928299001418054,1332.8221815000288,None,2.3928299001418054,1335.2346429000609,None,1335.7558331000619,None,1335.7558331000619,None,f,0.11535860039293766,1335.7558331000619,None,0.11535860039293766,,,63 Sing,001,2022_Oct_18_0852,ProdSingRedoBetween,2021.2.3,59.53543300939453,
,,,,32,0,32,0,,,,,,,,,,,,,,,,,,,,,,1339.086997100152,None,,,,,,,,,,,,,,,,,waste,131,33,sing,new,null,1336.4201850998215,None,1336.4201850998215,None,4,1.795101399999112,1336.4201850998215,None,1.795101399999112,1338.2471019998193,None,1338.753326700069,None,1338.753326700069,None,f,0.3097947002388537,1338.753326700069,None,0.3097947002388537,,,63 Sing,001,2022_Oct_18_0852,ProdSingRedoBetween,2021.2.3,59.53543300939453,
,,,,33,0,33,0,,,,,,,,,,,,,,,,,,,,,,1341.9562442000024,None,,,,,,,,,,,,,,,,,count,95,34,sing,new,null,1339.5961593999527,None,1339.5961593999527,None,6,1.482871100306511,1339.5961593999527,None,1.482871100306511,1341.108659000136,None,1341.6227032998577,None,1341.6227032998577,None,r,0.3123335996642709,1341.6227032998577,None,0.3123335996642709,,,63 Sing,001,2022_Oct_18_0852,ProdSingRedoBetween,2021.2.3,59.53543300939453,
,,,,34,0,34,0,,,,,,,,,,,,,,,,,,,,,,1347.4118905998766,None,,,,,,,,,,,,,,,,,material,80,35,sing,old,red,1342.4591084001586,None,1342.4591084001586,None,6,3.9879622999578714,1342.4591084001586,None,3.9879622999578714,1346.4838661001995,None,1346.9980986998416,None,1346.9980986998416,None,r,0.3929419997148216,1346.9980986998416,None,0.3929419997148216,,,63 Sing,001,2022_Oct_18_0852,ProdSingRedoBetween,2021.2.3,59.53543300939453,
,,,,35,0,35,0,,,,,,,,,,,,,,,,,,,,,,1350.815066799987,None,,,,,,,,,,,,,,,,,cross,97,36,sing,new,null,1347.918913200032,None,1347.918913200032,None,4,2.056113100145012,1347.918913200032,None,2.056113100145012,1349.9978125002235,None,1350.501013299916,None,1350.501013299916,None,f,0.29003300005570054,1350.501013299916,None,0.29003300005570054,,,63 Sing,001,2022_Oct_18_0852,ProdSingRedoBetween,2021.2.3,59.53543300939453,
,,,,36,0,36,0,,,,,,,,,,,,,,,,,,,,,,1353.4348132000305,None,,,,,,,,,,,,,,,,,mayor,134,37,sing,new,null,1351.319549900014,None,1351.319549900014,None,6,1.4554653000086546,1351.319549900014,None,1.4554653000086546,1352.8044986999594,None,1353.3220048998483,None,1353.3220048998483,None,r,0.08488969970494509,1353.3220048998483,None,0.08488969970494509,,,63 Sing,001,2022_Oct_18_0852,ProdSingRedoBetween,2021.2.3,59.53543300939453,
,,,,37,0,37,0,,,,,,,,,,,,,,,,,,,,,,1355.8369327001274,None,,,,,,,,,,,,,,,,,travel,161,38,sing,new,null,1353.9371488001198,None,1353.9371488001198,None,6,1.2299354998394847,1353.9371488001198,None,1.2299354998394847,1355.188704200089,None,1355.7034984999336,None,1355.7034984999336,None,r,0.10347960004583001,1355.7034984999336,None,0.10347960004583001,,,63 Sing,001,2022_Oct_18_0852,ProdSingRedoBetween,2021.2.3,59.53543300939453,
,,,,38,0,38,0,,,,,,,,,,,,,,,,,,,,,,1358.6956251999363,None,,,,,,,,,,,,,,,,,science,15,39,sing,old,yellow,1356.346064100042,None,1356.346064100042,None,6,1.6769314999692142,1356.346064100042,None,1.6769314999692142,1358.043267800007,None,1358.5620539998636,None,1358.5620539998636,None,r,0.10095759993419051,1358.5620539998636,None,0.10095759993419051,,,63 Sing,001,2022_Oct_18_0852,ProdSingRedoBetween,2021.2.3,59.53543300939453,
,,,,39,0,39,0,,,,,,,,,,,,,,,,,,,,,,1363.0976368999109,None,,,,,,,,,,,,,,,,,accident,99,40,sing,new,null,1359.2109014000744,None,1359.2109014000744,None,4,2.5561139001511037,1359.2109014000744,None,2.5561139001511037,1361.793256700039,None,1362.3032594998367,None,1362.3032594998367,None,r,0.7756437002681196,1362.3032594998367,None,0.7756437002681196,,,63 Sing,001,2022_Oct_18_0852,ProdSingRedoBetween,2021.2.3,59.53543300939453,
,,,,40,0,40,0,,,,,,,,,,,,,,,,,,,,,,1369.41925359983,None,,,,,,,,,,,,,,,,,distance,96,41,sing,new,null,1363.613697099965,None,1363.613697099965,None,6,5.145419999957085,1363.613697099965,None,5.145419999957085,1368.7914292002097,None,1369.3061569998972,None,1369.3061569998972,None,r,0.09287649998441339,1369.3061569998972,None,0.09287649998441339,,,63 Sing,001,2022_Oct_18_0852,ProdSingRedoBetween,2021.2.3,59.53543300939453,
,,,,41,0,41,0,,,,,,,,,,,,,,,,,,,,,,1372.3888035002165,None,,,,,,,,,,,,,,,,,oxygen,7,42,sing,old,yellow,1369.9414663999341,None,1369.9414663999341,None,6,1.7615334000438452,1369.9414663999341,None,1.7615334000438452,1371.7211326002143,None,1372.240500799846,None,1372.240500799846,None,r,0.11856640037149191,1372.240500799846,None,0.11856640037149191,,,63 Sing,001,2022_Oct_18_0852,ProdSingRedoBetween,2021.2.3,59.53543300939453,
,,,,42,0,42,0,,,,,,,,,,,,,,,,,,,,,,1379.7634192002006,None,,,,,,,,,,,,,,,,,general,57,43,sing,old,blue,1372.909248500131,None,1372.909248500131,None,5,5.809724499937147,1372.909248500131,None,5.809724499937147,1378.7429227000102,None,1379.2476772000082,None,1379.2476772000082,None,f,0.48743849992752075,1379.2476772000082,None,0.48743849992752075,,,63 Sing,001,2022_Oct_18_0852,ProdSingRedoBetween,2021.2.3,59.53543300939453,
,,,,43,0,43,0,,,,,,,,,,,,,,,,,,,,,,1382.6995632001199,None,,,,,,,,,,,,,,,,,citizen,56,44,sing,old,blue,1380.286314399913,None,1380.286314399913,None,6,1.74466980015859,1380.286314399913,None,1.74466980015859,1382.0503066000529,None,1382.5653646001592,None,1382.5653646001592,None,r,0.10575899994000793,1382.5653646001592,None,0.10575899994000793,,,63 Sing,001,2022_Oct_18_0852,ProdSingRedoBetween,2021.2.3,59.53543300939453,
,,,,44,0,44,0,,,,,,,,,,,,,,,,,,,,,,1385.4831913001835,None,,,,,,,,,,,,,,,,,plane,38,45,sing,old,blue,1383.2165597998537,None,1383.2165597998537,None,6,1.6383571000769734,1383.2165597998537,None,1.6383571000769734,1384.8836787999608,None,1385.383294200059,None,1385.383294200059,None,r,0.07971129985526204,1385.383294200059,None,0.07971129985526204,,,63 Sing,001,2022_Oct_18_0852,ProdSingRedoBetween,2021.2.3,59.53543300939453,
,,,,45,0,45,0,,,,,,,,,,,,,,,,,,,,,,1387.668680800125,None,,,,,,,,,,,,,,,,,childhood,10,46,sing,old,yellow,1385.9837477998808,None,1385.9837477998808,None,6,1.0792204001918435,1385.9837477998808,None,1.0792204001918435,1387.0903868000023,None,1387.6047844998538,None,1387.6047844998538,None,r,0.034215799998492,1387.6047844998538,None,0.034215799998492,,,63 Sing,001,2022_Oct_18_0852,ProdSingRedoBetween,2021.2.3,59.53543300939453,
,,,,46,0,46,0,,,,,,,,,,,,,,,,,,,,,,1392.9403650998138,None,,,,,,,,,,,,,,,,,spoke,112,47,sing,new,null,1388.18576150015,None,1388.18576150015,None,6,2.461256000213325,1388.18576150015,None,2.461256000213325,1390.6736035002396,None,1391.1971502001397,None,1391.1971502001397,None,r,1.7217657999135554,1391.1971502001397,None,1.7217657999135554,,,63 Sing,001,2022_Oct_18_0852,ProdSingRedoBetween,2021.2.3,59.53543300939453,
,,,,47,0,47,0,,,,,,,,,,,,,,,,,,,,,,1396.177218500059,None,,,,,,,,,,,,,,,,,education,106,48,sing,new,null,1393.4452463001944,None,1393.4452463001944,None,6,1.1857660999521613,1393.4452463001944,None,1.1857660999521613,1394.6644529998302,None,1395.1763202999718,None,1395.1763202999718,None,r,0.9746328997425735,1395.1763202999718,None,0.9746328997425735,,,63 Sing,001,2022_Oct_18_0852,ProdSingRedoBetween,2021.2.3,59.53543300939453,
,,,,48,0,48,0,,,,,,,,,,,,,,,,,,,,,,1399.1300814999267,None,,,,,,,,,,,,,,,,,direction,5,49,sing,old,yellow,1396.6831360999495,None,1396.6831360999495,None,5,1.4678595000877976,1396.6831360999495,None,1.4678595000877976,1398.1830286001787,None,1398.6994431000203,None,1398.6994431000203,None,r,0.4114636001177132,1398.6994431000203,None,0.4114636001177132,,,63 Sing,001,2022_Oct_18_0852,ProdSingRedoBetween,2021.2.3,59.53543300939453,
,,,,49,0,49,0,,,,,,,,,,,,,,,,,,,,,,1403.6345882997848,None,,,,,,,,,,,,,,,,,fight,157,50,sing,new,null,1399.6383906998672,None,1399.6383906998672,None,5,3.0165349999442697,1399.6383906998672,None,3.0165349999442697,1402.6839693998918,None,1403.1875265999697,None,1403.1875265999697,None,r,0.42738519981503487,1403.1875265999697,None,0.42738519981503487,,,63 Sing,001,2022_Oct_18_0852,ProdSingRedoBetween,2021.2.3,59.53543300939453,
,,,,50,0,50,0,,,,,,,,,,,,,,,,,,,,,,1406.7877946002409,None,,,,,,,,,,,,,,,,,answer,125,51,sing,new,null,1404.142112699803,None,1404.142112699803,None,6,1.400809799786657,1404.142112699803,None,1.400809799786657,1405.5759223001078,None,1406.087160100229,None,1406.087160100229,None,r,0.6717676999978721,1406.087160100229,None,0.6717676999978721,,,63 Sing,001,2022_Oct_18_0852,ProdSingRedoBetween,2021.2.3,59.53543300939453,
,,,,51,0,51,0,,,,,,,,,,,,,,,,,,,,,,1410.3246229998767,None,,,,,,,,,,,,,,,,,series,145,52,sing,new,null,1407.2982581001706,None,1407.2982581001706,None,5,2.316630399785936,1407.2982581001706,None,2.316630399785936,1409.6420768001117,None,1410.1579354000278,None,1410.1579354000278,None,r,0.13706229999661446,1410.1579354000278,None,0.13706229999661446,,,63 Sing,001,2022_Oct_18_0852,ProdSingRedoBetween,2021.2.3,59.53543300939453,
,,,,52,0,52,0,,,,,,,,,,,,,,,,,,,,,,1413.0300632999279,None,,,,,,,,,,,,,,,,,dozen,77,53,sing,old,red,1410.8321639997885,None,1410.8321639997885,None,6,1.4627166003920138,1410.8321639997885,None,1.4627166003920138,1412.3134586000815,None,1412.8303459999152,None,1412.8303459999152,None,r,0.1767575996927917,1412.8303459999152,None,0.1767575996927917,,,63 Sing,001,2022_Oct_18_0852,ProdSingRedoBetween,2021.2.3,59.53543300939453,
,,,,53,0,53,0,,,,,,,,,,,,,,,,,,,,,,1417.5484913000837,None,,,,,,,,,,,,,,,,,volume,58,54,sing,old,blue,1413.5548546998762,None,1413.5548546998762,None,5,2.8361300001852214,1413.5548546998762,None,2.8361300001852214,1416.4253965998068,None,1416.935977499932,None,1416.935977499932,None,r,0.5829354003071785,1416.935977499932,None,0.5829354003071785,,,63 Sing,001,2022_Oct_18_0852,ProdSingRedoBetween,2021.2.3,59.53543300939453,
,,,,54,0,54,0,,,,,,,,,,,,,,,,,,,,,,1422.2531762002036,None,,,,,,,,,,,,,,,,,drama,142,55,sing,new,null,1418.0507026999258,None,1418.0507026999258,None,5,2.964207199867815,1418.0507026999258,None,2.964207199867815,1421.0377640998922,None,1421.5526549001224,None,1421.5526549001224,None,f,0.678222100250423,1421.5526549001224,None,0.678222100250423,,,63 Sing,001,2022_Oct_18_0852,ProdSingRedoBetween,2021.2.3,59.53543300939453,
,,,,55,0,55,0,,,,,,,,,,,,,,,,,,,,,,1425.1060514999554,None,,,,,,,,,,,,,,,,,working,165,56,sing,new,null,1422.7639905000106,None,1422.7639905000106,None,6,1.1467840000987053,1422.7639905000106,None,1.1467840000987053,1423.9440528000705,None,1424.4553287001327,None,1424.4553287001327,None,r,0.6235094000585377,1424.4553287001327,None,0.6235094000585377,,,63 Sing,001,2022_Oct_18_0852,ProdSingRedoBetween,2021.2.3,59.53543300939453,
,,,,56,0,56,0,,,,,,,,,,,,,,,,,,,,,,1427.8088163002394,None,,,,,,,,,,,,,,,,,equipment,86,57,sing,old,red,1425.6172595000826,None,1425.6172595000826,None,6,1.2055236999876797,1425.6172595000826,None,1.2055236999876797,1426.8442303999327,None,1427.3584413002245,None,1427.3584413002245,None,r,0.4323821999132633,1427.3584413002245,None,0.4323821999132633,,,63 Sing,001,2022_Oct_18_0852,ProdSingRedoBetween,2021.2.3,59.53543300939453,
,,,,57,0,57,0,,,,,,,,,,,,,,,,,,,,,,1430.7115604998544,None,,,,,,,,,,,,,,,,,interview,163,58,sing,new,null,1428.3202006001957,None,1428.3202006001957,None,6,1.2787149995565414,1428.3202006001957,None,1.2787149995565414,1429.6286635999568,None,1430.1286205998622,None,1430.1286205998622,None,r,0.5582862999290228,1430.1286205998622,None,0.5582862999290228,,,63 Sing,001,2022_Oct_18_0852,ProdSingRedoBetween,2021.2.3,59.53543300939453,
,,,,58,0,58,0,,,,,,,,,,,,,,,,,,,,,,1434.4364820001647,None,,,,,,,,,,,,,,,,,object,49,59,sing,old,blue,1431.2158266999759,None,1431.2158266999759,None,5,2.4469925998710096,1431.2158266999759,None,2.4469925998710096,1433.6845347001217,None,1434.2022065999918,None,1434.2022065999918,None,f,0.21280330000445247,1434.2022065999918,None,0.21280330000445247,,,63 Sing,001,2022_Oct_18_0852,ProdSingRedoBetween,2021.2.3,59.53543300939453,
,,,,59,0,59,0,,,,,,,,,,,,,,,,,,,,,,1438.1523918001913,None,,,,,,,,,,,,,,,,,addition,72,60,sing,old,red,1434.9617983000353,None,1434.9617983000353,None,6,1.9970291000790894,1434.9617983000353,None,1.9970291000790894,1436.9871856998652,None,1437.5043310001493,None,1437.5043310001493,None,r,0.6305843000300229,1437.5043310001493,None,0.6305843000300229,,,63 Sing,001,2022_Oct_18_0852,ProdSingRedoBetween,2021.2.3,59.53543300939453,
,,,,60,0,60,0,,,,,,,,,,,,,,,,,,,,,,1440.3378546000458,None,,,,,,,,,,,,,,,,,music,61,61,sing,old,red,1438.6631085001864,None,1438.6631085001864,None,6,0.9517561001703143,1438.6631085001864,None,0.9517561001703143,1439.6386802000925,None,1440.154454200063,None,1440.154454200063,None,r,0.1645109998062253,1440.154454200063,None,0.1645109998062253,,,63 Sing,001,2022_Oct_18_0852,ProdSingRedoBetween,2021.2.3,59.53543300939453,
,,,,61,0,61,0,,,,,,,,,,,,,,,,,,,,,,1446.0101808998734,None,,,,,,,,,,,,,,,,,block,151,62,sing,new,null,1440.8542520999908,None,1440.8542520999908,None,5,4.488624200224876,1440.8542520999908,None,4.488624200224876,1445.3594776000828,None,1445.8642998998985,None,1445.8642998998985,None,f,0.11847640015184879,1445.8642998998985,None,0.11847640015184879,,,63 Sing,001,2022_Oct_18_0852,ProdSingRedoBetween,2021.2.3,59.53543300939453,
,,,,62,0,62,0,,,,,,,,,,,,,,,,,,,,,,1448.6125602000393,None,,,,,,,,,,,,,,,,,mankind,73,63,sing,old,red,1446.5216493001208,None,1446.5216493001208,None,6,1.4372625998221338,1446.5216493001208,None,1.4372625998221338,1447.9847317999229,None,1448.4961188999005,None,1448.4961188999005,None,r,0.08682309975847602,1448.4961188999005,None,0.08682309975847602,,,63 Sing,001,2022_Oct_18_0852,ProdSingRedoBetween,2021.2.3,59.53543300939453,
,,,,63,0,63,0,,,,,,,,,,,,,,,,,,,,,,1451.765929600224,None,,,,,,,,,,,,,,,,,broad,169,64,sing,new,null,1449.1278518000618,None,1449.1278518000618,None,5,1.97514220001176,1449.1278518000618,None,1.97514220001176,1451.1367259998806,None,1451.6504349000752,None,1451.6504349000752,None,f,0.10044160019606352,1451.6504349000752,None,0.10044160019606352,,,63 Sing,001,2022_Oct_18_0852,ProdSingRedoBetween,2021.2.3,59.53543300939453,
,,,,64,0,64,0,,,,,,,,,,,,,,,,,,,,,,1455.4696530001238,None,,,,,,,,,,,,,,,,,congress,54,65,sing,old,blue,1452.2776294001378,None,1452.2776294001378,None,6,1.9052687999792397,1452.2776294001378,None,1.9052687999792397,1454.206701300107,None,1454.720759099815,None,1454.720759099815,None,f,0.7260672999545932,1454.720759099815,None,0.7260672999545932,,,63 Sing,001,2022_Oct_18_0852,ProdSingRedoBetween,2021.2.3,59.53543300939453,
,,,,65,0,65,0,,,,,,,,,,,,,,,,,,,,,,1458.839698900003,None,,,,,,,,,,,,,,,,,benefit,115,66,sing,new,null,1455.9786147000268,None,1455.9786147000268,None,6,2.0602726000361145,1455.9786147000268,None,2.0602726000361145,1458.0606292001903,None,1458.5804015002213,None,1458.5804015002213,None,r,0.23439829982817173,1458.5804015002213,None,0.23439829982817173,,,63 Sing,001,2022_Oct_18_0852,ProdSingRedoBetween,2021.2.3,59.53543300939453,
,,,,66,0,66,0,,,,,,,,,,,,,,,,,,,,,,1461.0252117002383,None,,,,,,,,,,,,,,,,,court,177,67,sing,new,null,1459.3555282000452,None,1459.3555282000452,None,6,0.9632723000831902,1459.3555282000452,None,0.9632723000831902,1460.343673299998,None,1460.8635988999158,None,1460.8635988999158,None,r,0.13527149986475706,1460.8635988999158,None,0.13527149986475706,,,63 Sing,001,2022_Oct_18_0852,ProdSingRedoBetween,2021.2.3,59.53543300939453,
,,,,67,0,67,0,,,,,,,,,,,,,,,,,,,,,,1463.3273546001874,None,,,,,,,,,,,,,,,,,entrance,172,68,sing,new,null,1461.5318444999866,None,1461.5318444999866,None,6,1.034886300098151,1461.5318444999866,None,1.034886300098151,1462.5934178000316,None,1463.0995331001468,None,1463.0995331001468,None,r,0.20324289985001087,1463.0995331001468,None,0.20324289985001087,,,63 Sing,001,2022_Oct_18_0852,ProdSingRedoBetween,2021.2.3,59.53543300939453,
,,,,68,0,68,0,,,,,,,,,,,,,,,,,,,,,,1465.7632471001707,None,,,,,,,,,,,,,,,,,incident,63,69,sing,old,red,1463.8353941999376,None,1463.8353941999376,None,6,1.251418299973011,1463.8353941999376,None,1.251418299973011,1465.1123576001264,None,1465.6139715998434,None,1465.6139715998434,None,r,0.12084400001913309,1465.6139715998434,None,0.12084400001913309,,,63 Sing,001,2022_Oct_18_0852,ProdSingRedoBetween,2021.2.3,59.53543300939453,
,,,,69,0,69,0,,,,,,,,,,,,,,,,,,,,,,1468.9664305001497,None,,,,,,,,,,,,,,,,,straight,171,70,sing,new,null,1466.272415699903,None,1466.272415699903,None,6,2.0223710001446307,1466.272415699903,None,2.0223710001446307,1468.3175277002156,None,1468.8372116000392,None,1468.8372116000392,None,r,0.09776310017332435,1468.8372116000392,None,0.09776310017332435,,,63 Sing,001,2022_Oct_18_0852,ProdSingRedoBetween,2021.2.3,59.53543300939453,
,,,,70,0,70,0,,,,,,,,,,,,,,,,,,,,,,1472.37051350018,None,,,,,,,,,,,,,,,,,bureau,71,71,sing,old,red,1469.4729855000041,None,1469.4729855000041,None,5,2.1338257999159396,1469.4729855000041,None,2.1338257999159396,1471.6355989999138,None,1472.143432199955,None,1472.143432199955,None,f,0.19957080017775297,1472.143432199955,None,0.19957080017775297,,,63 Sing,001,2022_Oct_18_0852,ProdSingRedoBetween,2021.2.3,59.53543300939453,
,,,,71,0,71,0,,,,,,,,,,,,,,,,,,,,,,1474.772177199833,None,,,,,,,,,,,,,,,,,color,179,72,sing,new,null,1472.8765096999705,None,1472.8765096999705,None,6,1.2742825001478195,1472.8765096999705,None,1.2742825001478195,1474.1717031002045,None,1474.6771271000616,None,1474.6771271000616,None,r,0.06570649985224009,1474.6771271000616,None,0.06570649985224009,,,63 Sing,001,2022_Oct_18_0852,ProdSingRedoBetween,2021.2.3,59.53543300939453,
,,,,72,0,72,0,,,,,,,,,,,,,,,,,,,,,,1477.5427576000802,None,,,,,,,,,,,,,,,,,route,82,73,sing,old,red,1475.2790215997957,None,1475.2790215997957,None,5,1.519884499721229,1475.2790215997957,None,1.519884499721229,1476.8253593002446,None,1477.333287099842,None,1477.333287099842,None,f,0.177519999910146,1477.333287099842,None,0.177519999910146,,,63 Sing,001,2022_Oct_18_0852,ProdSingRedoBetween,2021.2.3,59.53543300939453,
,,,,73,0,73,0,,,,,,,,,,,,,,,,,,,,,,1479.6771955001168,None,,,,,,,,,,,,,,,,,shape,160,74,sing,new,null,1478.0542243001983,None,1478.0542243001983,None,6,0.9925931999459863,1478.0542243001983,None,0.9925931999459863,1479.0800683000125,None,1479.5938121001236,None,1479.5938121001236,None,r,0.05296780029311776,1479.5938121001236,None,0.05296780029311776,,,63 Sing,001,2022_Oct_18_0852,ProdSingRedoBetween,2021.2.3,59.53543300939453,
,,,,74,0,74,0,,,,,,,,,,,,,,,,,,,,,,1482.0128286001272,None,,,,,,,,,,,,,,,,,interior,156,75,sing,new,null,1480.1873714998364,None,1480.1873714998364,None,6,1.2434719996526837,1480.1873714998364,None,1.2434719996526837,1481.4629309000447,None,1481.962840499822,None,1481.962840499822,None,r,0.01998370001092553,1481.962840499822,None,0.01998370001092553,,,63 Sing,001,2022_Oct_18_0852,ProdSingRedoBetween,2021.2.3,59.53543300939453,
,,,,75,0,75,0,,,,,,,,,,,,,,,,,,,,,,1484.0649136002176,None,,,,,,,,,,,,,,,,,beauty,153,76,sing,new,null,1482.5156990000978,None,1482.5156990000978,None,6,0.8511177999898791,1482.5156990000978,None,0.8511177999898791,1483.4058313998394,None,1483.9147303001955,None,1483.9147303001955,None,r,0.12395909987390041,1483.9147303001955,None,0.12395909987390041,,,63 Sing,001,2022_Oct_18_0852,ProdSingRedoBetween,2021.2.3,59.53543300939453,
,,,,76,0,76,0,,,,,,,,,,,,,,,,,,,,,,1488.4024936999194,None,,,,,,,,,,,,,,,,,discussion,26,77,sing,old,yellow,1484.5696435999125,None,1484.5696435999125,None,5,2.493141599930823,1484.5696435999125,None,2.493141599930823,1487.086372899823,None,1487.6094908001833,None,1487.6094908001833,None,r,0.7733046999201179,1487.6094908001833,None,0.7733046999201179,,,63 Sing,001,2022_Oct_18_0852,ProdSingRedoBetween,2021.2.3,59.53543300939453,
,,,,77,0,77,0,,,,,,,,,,,,,,,,,,,,,,1494.4752079001628,None,,,,,,,,,,,,,,,,,sleep,111,78,sing,new,null,1488.9072388000786,None,1488.9072388000786,None,6,3.731508900411427,1488.9072388000786,None,3.731508900411427,1492.6619735998102,None,1493.1793884998187,None,1493.1793884998187,None,r,1.2753671002574265,1493.1793884998187,None,1.2753671002574265,,,63 Sing,001,2022_Oct_18_0852,ProdSingRedoBetween,2021.2.3,59.53543300939453,
,,,,78,0,78,0,,,,,,,,,,,,,,,,,,,,,,1498.012067799922,None,,,,,,,,,,,,,,,,,speech,124,79,sing,new,null,1494.9803241002373,None,1494.9803241002373,None,4,2.1384258000180125,1494.9803241002373,None,2.1384258000180125,1497.1462427000515,None,1497.6670172000304,None,1497.6670172000304,None,r,0.32372470013797283,1497.6670172000304,None,0.32372470013797283,,,63 Sing,001,2022_Oct_18_0852,ProdSingRedoBetween,2021.2.3,59.53543300939453,
,,,,79,0,79,0,,,,,,,,,,,,,,,,,,,,,,1500.6314075002447,None,,,,,,,,,,,,,,,,,chief,22,80,sing,old,yellow,1498.5128652998246,None,1498.5128652998246,None,4,1.5498807998374104,1498.5128652998246,None,1.5498807998374104,1500.0830004001036,None,1500.6021622000262,None,1500.6021622000262,None,f,0.012693900149315596,1500.6021622000262,None,0.012693900149315596,,,63 Sing,001,2022_Oct_18_0852,ProdSingRedoBetween,2021.2.3,59.53543300939453,
,,,,80,0,80,0,,,,,,,,,,,,,,,,,,,,,,1505.0191036998294,None,,,,,,,,,,,,,,,,,income,102,81,sing,new,null,1501.14119330002,None,1501.14119330002,None,5,1.9375378000549972,1501.14119330002,None,1.9375378000549972,1503.101558700204,None,1503.601059800014,None,1503.601059800014,None,r,1.3978264001198113,1503.601059800014,None,1.3978264001198113,,,63 Sing,001,2022_Oct_18_0852,ProdSingRedoBetween,2021.2.3,59.53543300939453,
,,,,81,0,81,0,,,,,,,,,,,,,,,,,,,,,,1507.412752499804,None,,,,,,,,,,,,,,,,,exchange,122,82,sing,new,null,1505.5279735000804,None,1505.5279735000804,None,5,1.3107541999779642,1505.5279735000804,None,1.3107541999779642,1506.8571219998412,None,1507.3763371999376,None,1507.3763371999376,None,r,0.014675499871373177,1507.3763371999376,None,0.014675499871373177,,,63 Sing,001,2022_Oct_18_0852,ProdSingRedoBetween,2021.2.3,59.53543300939453,
,,,,82,0,82,0,,,,,,,,,,,,,,,,,,,,,,1517.3505930998363,None,,,,,,,,,,,,,,,,,solution,136,83,sing,new,null,1507.9303079000674,None,1507.9303079000674,None,5,8.764402499888092,1507.9303079000674,None,8.764402499888092,1516.7156010000035,None,1517.2340560001321,None,1517.2340560001321,None,r,0.09290389996021986,1517.2340560001321,None,0.09290389996021986,,,63 Sing,001,2022_Oct_18_0852,ProdSingRedoBetween,2021.2.3,59.53543300939453,
,,,,83,0,83,0,,,,,,,,,,,,,,,,,,,,,,1520.9016145002097,None,,,,,,,,,,,,,,,,,majority,36,84,sing,old,blue,1517.8683119998313,None,1517.8683119998313,None,6,2.402413100004196,1517.8683119998313,None,2.402413100004196,1520.3032570998184,None,1520.8183189001866,None,1520.8183189001866,None,r,0.06038529984652996,1520.8183189001866,None,0.06038529984652996,,,63 Sing,001,2022_Oct_18_0852,ProdSingRedoBetween,2021.2.3,59.53543300939453,
,,,,84,0,84,0,,,,,,,,,,,,,,,,,,,,,,1523.4373479001224,None,,,,,,,,,,,,,,,,,testimony,173,85,sing,new,null,1521.4118413999677,None,1521.4118413999677,None,6,1.442874699831009,1521.4118413999677,None,1.442874699831009,1522.8733304999769,None,1523.389323899988,None,1523.389323899988,None,r,0.025388799607753754,1523.389323899988,None,0.025388799607753754,,,63 Sing,001,2022_Oct_18_0852,ProdSingRedoBetween,2021.2.3,59.53543300939453,
,,,,85,0,85,0,,,,,,,,,,,,,,,,,,,,,,1525.806452000048,None,,,,,,,,,,,,,,,,,murder,66,86,sing,old,red,1523.9494734001346,None,1523.9494734001346,None,6,1.265200300142169,1523.9494734001346,None,1.265200300142169,1525.2458840999752,None,1525.7583189997822,None,1525.7583189997822,None,r,0.03232960030436516,1525.7583189997822,None,0.03232960030436516,,,63 Sing,001,2022_Oct_18_0852,ProdSingRedoBetween,2021.2.3,59.53543300939453,
,,,,86,0,86,0,,,,,,,,,,,,,,,,,,,,,,1529.244820300024,None,,,,,,,,,,,,,,,,,sweet,103,87,sing,new,null,1526.3071317002177,None,1526.3071317002177,None,6,1.4516012999229133,1526.3071317002177,None,1.4516012999229133,1527.7753711999394,None,1528.2804082999937,None,1528.2804082999937,None,r,0.9423962999135256,1528.2804082999937,None,0.9423962999135256,,,63 Sing,001,2022_Oct_18_0852,ProdSingRedoBetween,2021.2.3,59.53543300939453,
,,,,87,0,87,0,,,,,,,,,,,,,,,,,,,,,,1532.796886399854,None,,,,,,,,,,,,,,,,,whole,92,88,sing,new,null,1529.7726042000577,None,1529.7726042000577,None,6,1.0661145001649857,1529.7726042000577,None,1.0661145001649857,1530.863164999988,None,1531.37887590006,None,1531.37887590006,None,r,1.3958167000673711,1531.37887590006,None,1.3958167000673711,,,63 Sing,001,2022_Oct_18_0852,ProdSingRedoBetween,2021.2.3,59.53543300939453,
,,,,88,0,88,0,,,,,,,,,,,,,,,,,,,,,,1537.4845521999523,None,,,,,,,,,,,,,,,,,principal,33,89,sing,old,blue,1533.310601899866,None,1533.310601899866,None,5,2.7680791998282075,1533.310601899866,None,2.7680791998282075,1536.1015264000744,None,1536.617315299809,None,1536.617315299809,None,f,0.8375752000138164,1536.617315299809,None,0.8375752000138164,,,63 Sing,001,2022_Oct_18_0852,ProdSingRedoBetween,2021.2.3,59.53543300939453,
,,,,89,0,89,0,,,,,,,,,,,,,,,,,,,,,,1542.674693999812,None,,,,,,,,,,,,,,,,,pretty,28,90,sing,old,yellow,1537.9921483001672,None,1537.9921483001672,None,5,1.9505005003884435,1537.9921483001672,None,1.9505005003884435,1539.9719273000956,None,1540.4775387002155,None,1540.4775387002155,None,f,2.1771770999766886,1540.4775387002155,None,2.1771770999766886,,,63 Sing,001,2022_Oct_18_0852,ProdSingRedoBetween,2021.2.3,59.53543300939453,
,,,,90,0,90,0,,,,,,,,,,,,,,,,,,,,,,1545.5261960998178,None,,,,,,,,,,,,,,,,,partner,2,91,sing,old,yellow,1543.177426500246,None,1543.177426500246,None,5,1.6612263000570238,1543.177426500246,None,1.6612263000570238,1544.860050899908,None,1545.3595552998595,None,1545.3595552998595,None,f,0.15112659987062216,1545.3595552998595,None,0.15112659987062216,,,63 Sing,001,2022_Oct_18_0852,ProdSingRedoBetween,2021.2.3,59.53543300939453,
,,,,91,0,91,0,,,,,,,,,,,,,,,,,,,,,,1548.7793529001065,None,,,,,,,,,,,,,,,,,rapid,9,92,sing,old,yellow,1546.0335208000615,None,1546.0335208000615,None,6,1.3652277998626232,1546.0335208000615,None,1.3652277998626232,1547.4292624001391,None,1547.9324520998634,None,1547.9324520998634,None,r,0.8182308999821544,1547.9324520998634,None,0.8182308999821544,,,63 Sing,001,2022_Oct_18_0852,ProdSingRedoBetween,2021.2.3,59.53543300939453,
,,,,92,0,92,0,,,,,,,,,,,,,,,,,,,,,,1551.4354725000449,None,,,,,,,,,,,,,,,,,minute,76,93,sing,old,red,1549.2825123001821,None,1549.2825123001821,None,6,1.252182099968195,1549.2825123001821,None,1.252182099968195,1550.5685852998868,None,1551.0818325998262,None,1551.0818325998262,None,r,0.3329576998949051,1551.0818325998262,None,0.3329576998949051,,,63 Sing,001,2022_Oct_18_0852,ProdSingRedoBetween,2021.2.3,59.53543300939453,
,,,,93,0,93,0,,,,,,,,,,,,,,,,,,,,,,1553.5340982000344,None,,,,,,,,,,,,,,,,,public,137,94,sing,new,null,1551.9605371002108,None,1551.9605371002108,None,6,0.9821828003041446,1551.9605371002108,None,0.9821828003041446,1552.976542599965,None,1553.492571100127,None,1553.492571100127,None,r,0.01811539987102151,1553.492571100127,None,0.01811539987102151,,,63 Sing,001,2022_Oct_18_0852,ProdSingRedoBetween,2021.2.3,59.53543300939453,
,,,,94,0,94,0,,,,,,,,,,,,,,,,,,,,,,1555.507086200174,None,,,,,,,,,,,,,,,,,alert,51,95,sing,old,blue,1554.0377636998892,None,1554.0377636998892,None,6,0.6568622998893261,1554.0377636998892,None,0.6568622998893261,1554.7212360999547,None,1555.2360045001842,None,1555.2360045001842,None,r,0.2505931998603046,1555.2360045001842,None,0.2505931998603046,,,63 Sing,001,2022_Oct_18_0852,ProdSingRedoBetween,2021.2.3,59.53543300939453,
,,,,95,0,95,0,,,,,,,,,,,,,,,,,,,,,,1557.654901099857,None,,,,,,,,,,,,,,,,,author,141,96,sing,new,null,1556.0243865000084,None,1556.0243865000084,None,5,0.8062595003284514,1556.0243865000084,None,0.8062595003284514,1556.8567118998617,None,1557.3714473000728,None,1557.3714473000728,None,r,0.26716209994629025,1557.3714473000728,None,0.26716209994629025,,,63 Sing,001,2022_Oct_18_0852,ProdSingRedoBetween,2021.2.3,59.53543300939453,
,,,,96,0,96,0,,,,,,,,,,,,,,,,,,,,,,1559.9906338001601,None,,,,,,,,,,,,,,,,,leader,13,97,sing,old,yellow,1558.1749208997935,None,1558.1749208997935,None,5,1.0077200001105666,1558.1749208997935,None,1.0077200001105666,1559.2074004001915,None,1559.7098918999545,None,1559.7098918999545,None,r,0.25669809989631176,1559.7098918999545,None,0.25669809989631176,,,63 Sing,001,2022_Oct_18_0852,ProdSingRedoBetween,2021.2.3,59.53543300939453,
,,,,97,0,97,0,,,,,,,,,,,,,,,,,,,,,,1562.159402700141,None,,,,,,,,,,,,,,,,,scale,25,98,sing,old,yellow,1560.4966823998839,None,1560.4966823998839,None,5,0.9099799999967217,1560.4966823998839,None,0.9099799999967217,1561.4279824001715,None,1561.947039199993,None,1561.947039199993,None,r,0.18763309996575117,1561.947039199993,None,0.18763309996575117,,,63 Sing,001,2022_Oct_18_0852,ProdSingRedoBetween,2021.2.3,59.53543300939453,
,,,,98,0,98,0,,,,,,,,,,,,,,,,,,,,,,1566.5304002999328,None,,,,,,,,,,,,,,,,,appeal,62,99,sing,old,red,1562.6780790002085,None,1562.6780790002085,None,5,3.0965297003276646,1562.6780790002085,None,3.0965297003276646,1565.7978269997984,None,1566.3022201000713,None,1566.3022201000713,None,f,0.200339799746871,1566.3022201000713,None,0.200339799746871,,,63 Sing,001,2022_Oct_18_0852,ProdSingRedoBetween,2021.2.3,59.53543300939453,
,,,,99,0,99,0,,,,,,,,,,,,,,,,,,,,,,1568.7824280001223,None,,,,,,,,,,,,,,,,,quick,152,100,sing,new,null,1567.038002999965,None,1567.038002999965,None,5,1.1446957997977734,1567.038002999965,None,1.1446957997977734,1568.2026006998494,None,1568.7190231001005,None,1568.7190231001005,None,r,0.0397449997253716,1568.7190231001005,None,0.0397449997253716,,,63 Sing,001,2022_Oct_18_0852,ProdSingRedoBetween,2021.2.3,59.53543300939453,
,,,,100,0,100,0,,,,,,,,,,,,,,,,,,,,,,1577.6762899998575,None,,,,,,,,,,,,,,,,,charter,20,101,sing,old,yellow,1569.2859616000205,None,1569.2859616000205,None,1,6.2886569001711905,1569.2859616000205,None,6.2886569001711905,1575.5904104998335,None,1576.093328199815,None,1576.093328199815,None,n,1.561471600085497,1576.093328199815,None,1.561471600085497,,,63 Sing,001,2022_Oct_18_0852,ProdSingRedoBetween,2021.2.3,59.53543300939453,
,,,,101,0,101,0,,,,,,,,,,,,,,,,,,,,,,1580.0442558000796,None,,,,,,,,,,,,,,,,,discovery,167,102,sing,new,null,1578.1971895000897,None,1578.1971895000897,None,6,1.2896439000032842,1578.1971895000897,None,1.2896439000032842,1579.517743700184,None,1580.0273672002368,None,1580.0273672002368,None,r,0.0031961998902261257,1580.0273672002368,None,0.0031961998902261257,,,63 Sing,001,2022_Oct_18_0852,ProdSingRedoBetween,2021.2.3,59.53543300939453,
,,,,102,0,102,0,,,,,,,,,,,,,,,,,,,,,,1582.3673140001483,None,,,,,,,,,,,,,,,,,weather,74,103,sing,old,red,1580.5477384999394,None,1580.5477384999394,None,6,1.178931700065732,1580.5477384999394,None,1.178931700065732,1581.7471537999809,None,1582.2703717001714,None,1582.2703717001714,None,r,0.064325500279665,1582.2703717001714,None,0.064325500279665,,,63 Sing,001,2022_Oct_18_0852,ProdSingRedoBetween,2021.2.3,59.53543300939453,
,,,,103,0,103,0,,,,,,,,,,,,,,,,,,,,,,1584.398225300014,None,,,,,,,,,,,,,,,,,fashion,67,104,sing,old,red,1582.8889220999554,None,1582.8889220999554,None,6,0.6377301001921296,1582.8889220999554,None,0.6377301001921296,1583.5526271001436,None,1584.0658829999156,None,1584.0658829999156,None,r,0.316656700335443,1584.0658829999156,None,0.316656700335443,,,63 Sing,001,2022_Oct_18_0852,ProdSingRedoBetween,2021.2.3,59.53543300939453,
,,,,104,0,104,0,,,,,,,,,,,,,,,,,,,,,,1587.5876246998087,None,,,,,,,,,,,,,,,,,swift,30,105,sing,old,blue,1584.9091555001214,None,1584.9091555001214,None,4,1.9776019002310932,1584.9091555001214,None,1.9776019002310932,1586.9261898999102,None,1587.439825499896,None,1587.439825499896,None,f,0.1269358997233212,1587.439825499896,None,0.1269358997233212,,,63 Sing,001,2022_Oct_18_0852,ProdSingRedoBetween,2021.2.3,59.53543300939453,
,,,,105,0,105,0,,,,,,,,,,,,,,,,,,,,,,1590.2707068999298,None,,,,,,,,,,,,,,,,,brief,94,106,sing,new,null,1588.103491799906,None,1588.103491799906,None,5,1.5990113001316786,1588.103491799906,None,1.5990113001316786,1589.7314813002013,None,1590.2419205000624,None,1590.2419205000624,None,f,0.01272499980404973,1590.2419205000624,None,0.01272499980404973,,,63 Sing,001,2022_Oct_18_0852,ProdSingRedoBetween,2021.2.3,59.53543300939453,
,,,,106,0,106,0,,,,,,,,,,,,,,,,,,,,,,1592.8799914000556,None,,,,,,,,,,,,,,,,,guide,98,107,sing,new,null,1590.7775865001604,None,1590.7775865001604,None,6,1.5330150998197496,1590.7775865001604,None,1.5330150998197496,1592.3395197000355,None,1592.8436874998733,None,1592.8436874998733,None,r,0.011133499909192324,1592.8436874998733,None,0.011133499909192324,,,63 Sing,001,2022_Oct_18_0852,ProdSingRedoBetween,2021.2.3,59.53543300939453,
,,,,107,0,107,0,,,,,,,,,,,,,,,,,,,,,,1594.958584799897,None,,,,,,,,,,,,,,,,,title,108,108,sing,new,null,1593.4047526000068,None,1593.4047526000068,None,5,0.937831399962306,1593.4047526000068,None,0.937831399962306,1594.3592929001898,None,1594.8638586997986,None,1594.8638586997986,None,r,0.07861110009253025,1594.8638586997986,None,0.07861110009253025,,,63 Sing,001,2022_Oct_18_0852,ProdSingRedoBetween,2021.2.3,59.53543300939453,
,,,,108,0,108,0,,,,,,,,,,,,,,,,,,,,,,1599.1962867002003,None,,,,,,,,,,,,,,,,,short,18,109,sing,old,yellow,1595.4604464001022,None,1595.4604464001022,None,5,1.562166300136596,1595.4604464001022,None,1.562166300136596,1597.0471119000576,None,1597.5670483000576,None,1597.5670483000576,None,r,1.6075816000811756,1597.5670483000576,None,1.6075816000811756,,,63 Sing,001,2022_Oct_18_0852,ProdSingRedoBetween,2021.2.3,59.53543300939453,
,,,,109,0,109,0,,,,,,,,,,,,,,,,,,,,,,1601.415095999837,None,,,,,,,,,,,,,,,,,school,127,110,sing,new,null,1599.6968395002186,None,1599.6968395002186,None,6,1.1657390999607742,1599.6968395002186,None,1.1657390999607742,1600.8827595999464,None,1601.381928099785,None,1601.381928099785,None,r,0.008733799681067467,1601.381928099785,None,0.008733799681067467,,,63 Sing,001,2022_Oct_18_0852,ProdSingRedoBetween,2021.2.3,59.53543300939453,
,,,,110,0,110,0,,,,,,,,,,,,,,,,,,,,,,1604.2016580998898,None,,,,,,,,,,,,,,,,,estate,79,111,sing,old,red,1601.9236050001346,None,1601.9236050001346,None,5,1.6429031998850405,1601.9236050001346,None,1.6429031998850405,1603.5879552001134,None,1604.1011394001544,None,1604.1011394001544,None,f,0.073316500056535,1604.1011394001544,None,0.073316500056535,,,63 Sing,001,2022_Oct_18_0852,ProdSingRedoBetween,2021.2.3,59.53543300939453,
,,,,111,0,111,0,,,,,,,,,,,,,,,,,,,,,,1607.6217227000743,None,,,,,,,,,,,,,,,,,relation,47,112,sing,old,blue,1604.7073297998868,None,1604.7073297998868,None,5,1.9552964000031352,1604.7073297998868,None,1.9552964000031352,1606.6882238998078,None,1607.1920071002096,None,1607.1920071002096,None,f,0.4145426996983588,1607.1920071002096,None,0.4145426996983588,,,63 Sing,001,2022_Oct_18_0852,ProdSingRedoBetween,2021.2.3,59.53543300939453,
,,,,112,0,112,0,,,,,,,,,,,,,,,,,,,,,,1610.1739106001332,None,,,,,,,,,,,,,,,,,gesture,40,113,sing,old,blue,1608.1280991001986,None,1608.1280991001986,None,6,1.0944320997223258,1608.1280991001986,None,1.0944320997223258,1609.2409947002307,None,1609.7402733000927,None,1609.7402733000927,None,r,0.4023369001224637,1609.7402733000927,None,0.4023369001224637,,,63 Sing,001,2022_Oct_18_0852,ProdSingRedoBetween,2021.2.3,59.53543300939453,
,,,,113,0,113,0,,,,,,,,,,,,,,,,,,,,,,1614.0118892998435,None,,,,,,,,,,,,,,,,,generation,174,114,sing,new,null,1610.6846392001025,None,1610.6846392001025,None,6,1.1620140001177788,1610.6846392001025,None,1.1620140001177788,1611.8779748999514,None,1612.3951766001992,None,1612.3951766001992,None,r,1.5874617998488247,1612.3951766001992,None,1.5874617998488247,,,63 Sing,001,2022_Oct_18_0852,ProdSingRedoBetween,2021.2.3,59.53543300939453,
,,,,114,0,114,0,,,,,,,,,,,,,,,,,,,,,,1616.7804996999912,None,,,,,,,,,,,,,,,,,weight,55,115,sing,old,blue,1614.5180747997947,None,1614.5180747997947,None,6,1.5843964000232518,1614.5180747997947,None,1.5843964000232518,1616.130970099941,None,1616.6367985000834,None,1616.6367985000834,None,r,0.12180629977956414,1616.6367985000834,None,0.12180629977956414,,,63 Sing,001,2022_Oct_18_0852,ProdSingRedoBetween,2021.2.3,59.53543300939453,
,,,,115,0,115,0,,,,,,,,,,,,,,,,,,,,,,1619.8188411998563,None,,,,,,,,,,,,,,,,,period,68,116,sing,old,red,1617.2841960000806,None,1617.2841960000806,None,6,1.7464537997730076,1617.2841960000806,None,1.7464537997730076,1619.0562334000133,None,1619.5667674001306,None,1619.5667674001306,None,r,0.2317968998104334,1619.5667674001306,None,0.2317968998104334,,,63 Sing,001,2022_Oct_18_0852,ProdSingRedoBetween,2021.2.3,59.53543300939453,
,,,,116,0,116,0,,,,,,,,,,,,,,,,,,,,,,1622.9532658997923,None,,,,,,,,,,,,,,,,,burden,75,117,sing,old,red,1620.3352671000175,None,1620.3352671000175,None,5,1.2232196000404656,1620.3352671000175,None,1.2232196000404656,1621.5859693000093,None,1622.090028999839,None,1622.090028999839,None,r,0.8446026998572052,1622.090028999839,None,0.8446026998572052,,,63 Sing,001,2022_Oct_18_0852,ProdSingRedoBetween,2021.2.3,59.53543300939453,
,,,,117,0,117,0,,,,,,,,,,,,,,,,,,,,,,1624.8956283000298,None,,,,,,,,,,,,,,,,,stranger,17,118,sing,old,yellow,1623.4685706999153,None,1623.4685706999153,None,6,0.8739695996046066,1623.4685706999153,None,0.8739695996046066,1624.3724748999812,None,1624.8762767999433,None,1624.8762767999433,None,r,0.002436900045722723,1624.8762767999433,None,0.002436900045722723,,,63 Sing,001,2022_Oct_18_0852,ProdSingRedoBetween,2021.2.3,59.53543300939453,
,,,,118,0,118,0,,,,,,,,,,,,,,,,,,,,,,1626.9907308002003,None,,,,,,,,,,,,,,,,,clean,44,119,sing,old,blue,1625.417333099991,None,1625.417333099991,None,6,0.9411168997175992,1625.417333099991,None,0.9411168997175992,1626.3900439999998,None,1626.8931673001498,None,1626.8931673001498,None,r,0.08121699979528785,1626.8931673001498,None,0.08121699979528785,,,63 Sing,001,2022_Oct_18_0852,ProdSingRedoBetween,2021.2.3,59.53543300939453,
,,,,119,0,119,0,,,,,,,,,,,,,,,,,,,,,,1629.1595935998484,None,,,,,,,,,,,,,,,,,front,105,120,sing,new,null,1627.5041899001226,None,1627.5041899001226,None,6,1.0063498001545668,1627.5041899001226,None,1.0063498001545668,1628.531373000238,None,1629.0453415000811,None,1629.0453415000811,None,r,0.09719280013814569,1629.0453415000811,None,0.09719280013814569,,,63 Sing,001,2022_Oct_18_0852,ProdSingRedoBetween,2021.2.3,59.53543300939453,
,,,,120,0,120,0,,,,,,,,,,,,,,,,,,,,,,1632.229198299814,None,,,,,,,,,,,,,,,,,division,110,121,sing,new,null,1629.6658406001516,None,1629.6658406001516,None,5,1.5568822999484837,1629.6658406001516,None,1.5568822999484837,1631.2516912999563,None,1631.762310499791,None,1631.762310499791,None,f,0.44421029975637794,1631.762310499791,None,0.44421029975637794,,,63 Sing,001,2022_Oct_18_0852,ProdSingRedoBetween,2021.2.3,59.53543300939453,
,,,,121,0,121,0,,,,,,,,,,,,,,,,,,,,,,1637.0173671999946,None,,,,,,,,,,,,,,,,,column,90,122,sing,new,null,1632.7410861002281,None,1632.7410861002281,None,5,2.8653656002134085,1632.7410861002281,None,2.8653656002134085,1635.6337113999762,None,1636.1332495999523,None,1636.1332495999523,None,f,0.8571989997290075,1636.1332495999523,None,0.8571989997290075,,,63 Sing,001,2022_Oct_18_0852,ProdSingRedoBetween,2021.2.3,59.53543300939453,
,,,,122,0,122,0,,,,,,,,,,,,,,,,,,,,,,1639.3903101999313,None,,,,,,,,,,,,,,,,,voice,21,123,sing,old,yellow,1637.5255670999177,None,1637.5255670999177,None,6,1.2889375002123415,1637.5255670999177,None,1.2889375002123415,1638.837151200045,None,1639.3408630997874,None,1639.3408630997874,None,r,0.017789300065487623,1639.3408630997874,None,0.017789300065487623,,,63 Sing,001,2022_Oct_18_0852,ProdSingRedoBetween,2021.2.3,59.53543300939453,
,,,,123,0,123,0,,,,,,,,,,,,,,,,,,,,,,1641.5572357000783,None,,,,,,,,,,,,,,,,,territory,31,124,sing,old,blue,1639.9096463001333,None,1639.9096463001333,None,6,1.0650782003067434,1639.9096463001333,None,1.0650782003067434,1641.0046597002074,None,1641.5081687998027,None,1641.5081687998027,None,r,0.026445400435477495,1641.5081687998027,None,0.026445400435477495,,,63 Sing,001,2022_Oct_18_0852,ProdSingRedoBetween,2021.2.3,59.53543300939453,
,,,,124,0,124,0,,,,,,,,,,,,,,,,,,,,,,1643.807558900211,None,,,,,,,,,,,,,,,,,length,121,125,sing,new,null,1642.0769990999252,None,1642.0769990999252,None,6,0.8735343003645539,1642.0769990999252,None,0.8735343003645539,1642.9732205001637,None,1643.4801245001145,None,1643.4801245001145,None,r,0.3103332999162376,1643.4801245001145,None,0.3103332999162376,,,63 Sing,001,2022_Oct_18_0852,ProdSingRedoBetween,2021.2.3,59.53543300939453,
,,,,125,0,125,0,,,,,,,,,,,,,,,,,,,,,,1645.9327100999653,None,,,,,,,,,,,,,,,,,instrument,8,126,sing,old,yellow,1644.3079376001842,None,1644.3079376001842,None,6,0.9786764997988939,1644.3079376001842,None,0.9786764997988939,1645.3166898000054,None,1645.8299050000496,None,1645.8299050000496,None,r,0.07280050031840801,1645.8299050000496,None,0.07280050031840801,,,63 Sing,001,2022_Oct_18_0852,ProdSingRedoBetween,2021.2.3,59.53543300939453,
,,,,126,0,126,0,,,,,,,,,,,,,,,,,,,,,,1649.0958604002371,None,,,,,,,,,,,,,,,,,edition,119,127,sing,new,null,1646.447740800213,None,1646.447740800213,None,5,1.8788068001158535,1646.447740800213,None,1.8788068001158535,1648.3450782001019,None,1648.8459517001174,None,1648.8459517001174,None,r,0.22462749993428588,1648.8459517001174,None,0.22462749993428588,,,63 Sing,001,2022_Oct_18_0852,ProdSingRedoBetween,2021.2.3,59.53543300939453,
,,,,127,0,127,0,,,,,,,,,,,,,,,,,,,,,,1658.555488999933,None,,,,,,,,,,,,,,,,,junior,178,128,sing,new,null,1649.6061956002377,None,1649.6061956002377,None,5,2.4883217001333833,1649.6061956002377,None,2.4883217001333833,1652.124507999979,None,1652.6329001998529,None,1652.6329001998529,None,f,5.893585199955851,1652.6329001998529,None,5.893585199955851,,,63 Sing,001,2022_Oct_18_0852,ProdSingRedoBetween,2021.2.3,59.53543300939453,
,,,,128,0,128,0,,,,,,,,,,,,,,,,,,,,,,1662.409382100217,None,,,,,,,,,,,,,,,,,symbol,83,129,sing,old,red,1659.0645429999568,None,1659.0645429999568,None,6,1.3019465999677777,1659.0645429999568,None,1.3019465999677777,1660.401575199794,None,1660.917613899801,None,1660.917613899801,None,r,1.472921899985522,1660.917613899801,None,1.472921899985522,,,63 Sing,001,2022_Oct_18_0852,ProdSingRedoBetween,2021.2.3,59.53543300939453,
,,,,129,0,129,0,,,,,,,,,,,,,,,,,,,,,,1669.2677894001827,None,,,,,,,,,,,,,,,,,rough,130,130,sing,new,null,1662.9162353998981,None,1662.9162353998981,None,6,5.09819190017879,1662.9162353998981,None,5.09819190017879,1668.0329343997873,None,1668.5386955998838,None,1668.5386955998838,None,r,0.6997680999338627,1668.5386955998838,None,0.6997680999338627,,,63 Sing,001,2022_Oct_18_0852,ProdSingRedoBetween,2021.2.3,59.53543300939453,
,,,,130,0,130,0,,,,,,,,,,,,,,,,,,,,,,1676.7737520998344,None,,,,,,,,,,,,,,,,,comfort,16,131,sing,old,yellow,1669.7859272998758,None,1669.7859272998758,None,6,5.660462100058794,1669.7859272998758,None,5.660462100058794,1675.4738417998888,None,1675.9895405001007,None,1675.9895405001007,None,r,0.7609415003098547,1675.9895405001007,None,0.7609415003098547,,,63 Sing,001,2022_Oct_18_0852,ProdSingRedoBetween,2021.2.3,59.53543300939453,
,,,,131,0,131,0,,,,,,,,,,,,,,,,,,,,,,1679.2094426001422,None,,,,,,,,,,,,,,,,,background,123,132,sing,new,null,1677.2792525999248,None,1677.2792525999248,None,6,1.031181899830699,1677.2792525999248,None,1.031181899830699,1678.3274206998758,None,1678.847779000178,None,1678.847779000178,None,r,0.33461220003664494,1678.847779000178,None,0.33461220003664494,,,63 Sing,001,2022_Oct_18_0852,ProdSingRedoBetween,2021.2.3,59.53543300939453,
,,,,132,0,132,0,,,,,,,,,,,,,,,,,,,,,,1680.884933100082,None,,,,,,,,,,,,,,,,,people,59,133,sing,old,yellow,1679.7182427998632,None,1679.7182427998632,None,6,0.592265899758786,1679.7182427998632,None,0.592265899758786,1680.3322481000796,None,1680.8494937000796,None,1680.8494937000796,None,r,0.01323329983279109,1680.8494937000796,None,0.01323329983279109,,,63 Sing,001,2022_Oct_18_0852,ProdSingRedoBetween,2021.2.3,59.53543300939453,
,,,,133,0,133,0,,,,,,,,,,,,,,,,,,,,,,1682.9131590002216,None,,,,,,,,,,,,,,,,,poetry,140,134,sing,new,null,1681.3984028999694,None,1681.3984028999694,None,6,0.8720272998325527,1681.3984028999694,None,0.8720272998325527,1682.297156699933,None,1682.800831799861,None,1682.800831799861,None,r,0.08551699994131923,1682.800831799861,None,0.08551699994131923,,,63 Sing,001,2022_Oct_18_0852,ProdSingRedoBetween,2021.2.3,59.53543300939453,
,,,,134,0,134,0,,,,,,,,,,,,,,,,,,,,,,1685.6666823001578,None,,,,,,,,,,,,,,,,,reach,34,135,sing,old,blue,1683.4212421001866,None,1683.4212421001866,None,5,1.0491100000217557,1683.4212421001866,None,1.0491100000217557,1684.499014900066,None,1685.0018535000272,None,1685.0018535000272,None,r,0.6366106001660228,1685.0018535000272,None,0.6366106001660228,,,63 Sing,001,2022_Oct_18_0852,ProdSingRedoBetween,2021.2.3,59.53543300939453,
,,,,135,0,135,0,,,,,,,,,,,,,,,,,,,,,,1691.5384014998563,None,,,,,,,,,,,,,,,,,order,120,136,sing,new,null,1686.166280800011,None,1686.166280800011,None,5,4.120160900056362,1686.166280800011,None,4.120160900056362,1690.3049527001567,None,1690.8093754001893,None,1690.8093754001893,None,r,0.7090333998203278,1690.8093754001893,None,0.7090333998203278,,,63 Sing,001,2022_Oct_18_0852,ProdSingRedoBetween,2021.2.3,59.53543300939453,
,,,,136,0,136,0,,,,,,,,,,,,,,,,,,,,,,1693.8905190001242,None,,,,,,,,,,,,,,,,,clear,128,137,sing,new,null,1692.0442663999274,None,1692.0442663999274,None,5,1.138134399894625,1692.0442663999274,None,1.138134399894625,1693.207889100071,None,1693.7070538001135,None,1693.7070538001135,None,r,0.16327880043536425,1693.7070538001135,None,0.16327880043536425,,,63 Sing,001,2022_Oct_18_0852,ProdSingRedoBetween,2021.2.3,59.53543300939453,
,,,,137,0,137,0,,,,,,,,,,,,,,,,,,,,,,1696.0762772001326,None,,,,,,,,,,,,,,,,,payment,154,138,sing,new,null,1694.3936339002103,None,1694.3936339002103,None,6,1.0687720999121666,1694.3936339002103,None,1.0687720999121666,1695.493586299941,None,1695.9972052001394,None,1695.9972052001394,None,r,0.05717540020123124,1695.9972052001394,None,0.05717540020123124,,,63 Sing,001,2022_Oct_18_0852,ProdSingRedoBetween,2021.2.3,59.53543300939453,
,,,,138,0,138,0,,,,,,,,,,,,,,,,,,,,,,1698.1282961000688,None,,,,,,,,,,,,,,,,,defeat,155,139,sing,new,null,1696.586921500042,None,1696.586921500042,None,6,0.9635304999537766,1696.586921500042,None,0.9635304999537766,1697.5840205000713,None,1698.1014505000785,None,1698.1014505000785,None,r,0.008870000019669533,1698.1014505000785,None,0.008870000019669533,,,63 Sing,001,2022_Oct_18_0852,ProdSingRedoBetween,2021.2.3,59.53543300939453,
,,,,139,0,139,0,,,,,,,,,,,,,,,,,,,,,,1700.3472146000713,None,,,,,,,,,,,,,,,,,election,143,140,sing,new,null,1698.6342156999744,None,1698.6342156999744,None,5,1.0441481997258961,1698.6342156999744,None,1.0441481997258961,1699.6983485999517,None,1700.2157029998489,None,1700.2157029998489,None,r,0.10270440019667149,1700.2157029998489,None,0.10270440019667149,,,63 Sing,001,2022_Oct_18_0852,ProdSingRedoBetween,2021.2.3,59.53543300939453,
,,,,140,0,140,0,,,,,,,,,,,,,,,,,,,,,,1704.267692899797,None,,,,,,,,,,,,,,,,,trial,42,141,sing,old,blue,1700.851146100089,None,1700.851146100089,None,6,1.3312488002702594,1700.851146100089,None,1.3312488002702594,1702.200452200137,None,1702.7044068998657,None,1702.7044068998657,None,r,1.5419696001335979,1702.7044068998657,None,1.5419696001335979,,,63 Sing,001,2022_Oct_18_0852,ProdSingRedoBetween,2021.2.3,59.53543300939453,
,,,,141,0,141,0,,,,,,,,,,,,,,,,,,,,,,1707.6377078997903,None,,,,,,,,,,,,,,,,,tragedy,168,142,sing,new,null,1704.7750996998511,None,1704.7750996998511,None,5,2.087347300257534,1704.7750996998511,None,2.087347300257534,1706.8966772002168,None,1707.4041042998433,None,1707.4041042998433,None,f,0.2023730999790132,1707.4041042998433,None,0.2023730999790132,,,63 Sing,001,2022_Oct_18_0852,ProdSingRedoBetween,2021.2.3,59.53543300939453,
,,,,142,0,142,0,,,,,,,,,,,,,,,,,,,,,,1713.0264718001708,None,,,,,,,,,,,,,,,,,management,129,143,sing,new,null,1708.1527006998658,None,1708.1527006998658,None,5,2.077579400036484,1708.1527006998658,None,2.077579400036484,1710.2656856998801,None,1710.7745835999958,None,1710.7745835999958,None,r,2.2238245997577906,1710.7745835999958,None,2.2238245997577906,,,63 Sing,001,2022_Oct_18_0852,ProdSingRedoBetween,2021.2.3,59.53543300939453,
,,,,143,0,143,0,,,,,,,,,,,,,,,,,,,,,,1719.2493890998885,None,,,,,,,,,,,,,,,,,threat,158,144,sing,new,null,1713.5350505998358,None,1713.5350505998358,None,5,4.711267200298607,1713.5350505998358,None,4.711267200298607,1718.2678106999956,None,1718.7823168998584,None,1718.7823168998584,None,r,0.44808389991521835,1718.7823168998584,None,0.44808389991521835,,,63 Sing,001,2022_Oct_18_0852,ProdSingRedoBetween,2021.2.3,59.53543300939453,
,,,,144,0,144,0,,,,,,,,,,,,,,,,,,,,,,1722.5526334000751,None,,,,,,,,,,,,,,,,,error,88,145,sing,old,red,1719.750543499831,None,1719.750543499831,None,5,1.2557962001301348,1719.750543499831,None,1.2557962001301348,1721.0344928000122,None,1721.5388262001798,None,1721.5388262001798,None,r,0.9874958000145853,1721.5388262001798,None,0.9874958000145853,,,63 Sing,001,2022_Oct_18_0852,ProdSingRedoBetween,2021.2.3,59.53543300939453,
,,,,145,0,145,0,,,,,,,,,,,,,,,,,,,,,,1725.7058768998832,None,,,,,,,,,,,,,,,,,attack,3,146,sing,old,yellow,1723.0622744001448,None,1723.0622744001448,None,6,1.0240746000781655,1723.0622744001448,None,1.0240746000781655,1724.105248699896,None,1724.6197355999611,None,1724.6197355999611,None,r,1.0584809998981655,1724.6197355999611,None,1.0584809998981655,,,63 Sing,001,2022_Oct_18_0852,ProdSingRedoBetween,2021.2.3,59.53543300939453,
,,,,146,0,146,0,,,,,,,,,,,,,,,,,,,,,,1729.1798605998047,None,,,,,,,,,,,,,,,,,union,52,147,sing,old,blue,1726.2138526001945,None,1726.2138526001945,None,5,2.3125197999179363,1726.2138526001945,None,2.3125197999179363,1728.5443819002248,None,1729.0629715002142,None,1729.0629715002142,None,f,0.08755329996347427,1729.0629715002142,None,0.08755329996347427,,,63 Sing,001,2022_Oct_18_0852,ProdSingRedoBetween,2021.2.3,59.53543300939453,
,,,,147,0,147,0,,,,,,,,,,,,,,,,,,,,,,1731.8452963000163,None,,,,,,,,,,,,,,,,,state,113,148,sing,new,null,1729.695879700128,None,1729.695879700128,None,5,1.2625198001042008,1729.695879700128,None,1.2625198001042008,1730.981667399872,None,1731.4950107000768,None,1731.4950107000768,None,r,0.3353540999814868,1731.4950107000768,None,0.3353540999814868,,,63 Sing,001,2022_Oct_18_0852,ProdSingRedoBetween,2021.2.3,59.53543300939453,
,,,,148,0,148,0,,,,,,,,,,,,,,,,,,,,,,1735.1985949999653,None,,,,,,,,,,,,,,,,,produce,64,149,sing,old,red,1732.349257600028,None,1732.349257600028,None,5,1.121182500384748,1732.349257600028,None,1.121182500384748,1733.5080776000395,None,1734.0152432001196,None,1734.0152432001196,None,r,1.1592875001952052,1734.0152432001196,None,1.1592875001952052,,,63 Sing,001,2022_Oct_18_0852,ProdSingRedoBetween,2021.2.3,59.53543300939453,
,,,,149,0,149,0,,,,,,,,,,,,,,,,,,,,,,1736.9667974999174,None,,,,,,,,,,,,,,,,,month,89,150,sing,old,red,1735.7030099001713,None,1735.7030099001713,None,6,0.5992990997619927,1735.7030099001713,None,0.5992990997619927,1736.3330669999123,None,1736.8337035002187,None,1736.8337035002187,None,r,0.10865129996091127,1736.8337035002187,None,0.10865129996091127,,,63 Sing,001,2022_Oct_18_0852,ProdSingRedoBetween,2021.2.3,59.53543300939453,
,,,,150,0,150,0,,,,,,,,,,,,,,,,,,,,,,1739.4528823997825,None,,,,,,,,,,,,,,,,,display,35,151,sing,old,blue,1737.4709240999073,None,1737.4709240999073,None,6,1.3834759998135269,1737.4709240999073,None,1.3834759998135269,1738.8865976999514,None,1739.393891000189,None,1739.393891000189,None,r,0.036508699879050255,1739.393891000189,None,0.036508699879050255,,,63 Sing,001,2022_Oct_18_0852,ProdSingRedoBetween,2021.2.3,59.53543300939453,
,,,,151,0,151,0,,,,,,,,,,,,,,,,,,,,,,1741.3713416000828,None,,,,,,,,,,,,,,,,,trash,135,152,sing,new,null,1739.9599294001237,None,1739.9599294001237,None,6,0.7104000998660922,1739.9599294001237,None,0.7104000998660922,1740.6996446000412,None,1741.204689499922,None,1741.204689499922,None,r,0.13771079992875457,1741.204689499922,None,0.13771079992875457,,,63 Sing,001,2022_Oct_18_0852,ProdSingRedoBetween,2021.2.3,59.53543300939453,
,,,,152,0,152,0,,,,,,,,,,,,,,,,,,,,,,1743.9094969998114,None,,,,,,,,,,,,,,,,,group,84,153,sing,old,red,1741.8806163999252,None,1741.8806163999252,None,6,0.6057012998498976,1741.8806163999252,None,0.6057012998498976,1742.508688800037,None,1743.0314059001394,None,1743.0314059001394,None,r,0.8549683000892401,1743.0314059001394,None,0.8549683000892401,,,63 Sing,001,2022_Oct_18_0852,ProdSingRedoBetween,2021.2.3,59.53543300939453,
,,,,153,0,153,0,,,,,,,,,,,,,,,,,,,,,,1747.0604707999155,None,,,,,,,,,,,,,,,,,drink,166,154,sing,new,null,1744.4386518001556,None,1744.4386518001556,None,6,1.9837858001701534,1744.4386518001556,None,1.9837858001701534,1746.4443842000328,None,1746.9437461001799,None,1746.9437461001799,None,r,0.0866855001077056,1746.9437461001799,None,0.0866855001077056,,,63 Sing,001,2022_Oct_18_0852,ProdSingRedoBetween,2021.2.3,59.53543300939453,
,,,,154,0,154,0,,,,,,,,,,,,,,,,,,,,,,1750.3022945998237,None,,,,,,,,,,,,,,,,,narrow,139,155,sing,new,null,1747.5692707998678,None,1747.5692707998678,None,5,1.3970270003192127,1747.5692707998678,None,1.3970270003192127,1748.998617600184,None,1749.523408100009,None,1749.523408100009,None,f,0.7549649998545647,1749.523408100009,None,0.7549649998545647,,,63 Sing,001,2022_Oct_18_0852,ProdSingRedoBetween,2021.2.3,59.53543300939453,
,,,,155,0,155,0,,,,,,,,,,,,,,,,,,,,,,1752.3787909001112,None,,,,,,,,,,,,,,,,,minor,65,156,sing,old,red,1750.8177816998214,None,1750.8177816998214,None,6,1.0044379997998476,1750.8177816998214,None,1.0044379997998476,1751.8483318998478,None,1752.3551280000247,None,1752.3551280000247,None,r,0.0036678998731076717,1752.3551280000247,None,0.0036678998731076717,,,63 Sing,001,2022_Oct_18_0852,ProdSingRedoBetween,2021.2.3,59.53543300939453,
,,,,156,0,156,0,,,,,,,,,,,,,,,,,,,,,,1754.8849654002115,None,,,,,,,,,,,,,,,,,foundation,93,157,sing,new,null,1752.8864951999858,None,1752.8864951999858,None,5,1.2799779996275902,1752.8864951999858,None,1.2799779996275902,1754.1894034999423,None,1754.7025609002449,None,1754.7025609002449,None,f,0.15966599993407726,1754.7025609002449,None,0.15966599993407726,,,63 Sing,001,2022_Oct_18_0852,ProdSingRedoBetween,2021.2.3,59.53543300939453,
,,,,157,0,157,0,,,,,,,,,,,,,,,,,,,,,,1756.970070200041,None,,,,,,,,,,,,,,,,,opening,146,158,sing,new,null,1755.395253200084,None,1755.395253200084,None,5,0.9390478003770113,1755.395253200084,None,0.9390478003770113,1756.354733500164,None,1756.8734428999014,None,1756.8734428999014,None,f,0.07689610030502081,1756.8734428999014,None,0.07689610030502081,,,63 Sing,001,2022_Oct_18_0852,ProdSingRedoBetween,2021.2.3,59.53543300939453,
,,,,158,0,158,0,,,,,,,,,,,,,,,,,,,,,,1759.3057458000258,None,,,,,,,,,,,,,,,,,listen,116,159,sing,new,null,1757.4766913000494,None,1757.4766913000494,None,6,1.2176031996496022,1757.4766913000494,None,1.2176031996496022,1758.7254180000164,None,1759.2393298000097,None,1759.2393298000097,None,r,0.04703589994460344,1759.2393298000097,None,0.04703589994460344,,,63 Sing,001,2022_Oct_18_0852,ProdSingRedoBetween,2021.2.3,59.53543300939453,
,,,,159,0,159,0,,,,,,,,,,,,,,,,,,,,,,1762.8595341001637,None,,,,,,,,,,,,,,,,,community,149,160,sing,new,null,1759.81000269996,None,1759.81000269996,None,6,1.7162461997941136,1759.81000269996,None,1.7162461997941136,1761.5423702998087,None,1762.0509000001475,None,1762.0509000001475,None,r,0.7794325998984277,1762.0509000001475,None,0.7794325998984277,,,63 Sing,001,2022_Oct_18_0852,ProdSingRedoBetween,2021.2.3,59.53543300939453,
,,,,160,0,160,0,,,,,,,,,,,,,,,,,,,,,,1764.9616156001575,None,,,,,,,,,,,,,,,,,hearing,118,161,sing,new,null,1763.367937200237,None,1763.367937200237,None,6,0.9745145998895168,1763.367937200237,None,0.9745145998895168,1764.3691028999165,None,1764.878209200222,None,1764.878209200222,None,r,0.056006299797445536,1764.878209200222,None,0.056006299797445536,,,63 Sing,001,2022_Oct_18_0852,ProdSingRedoBetween,2021.2.3,59.53543300939453,
,,,,161,0,161,0,,,,,,,,,,,,,,,,,,,,,,1774.1374413999729,None,,,,,,,,,,,,,,,,,government,32,162,sing,old,blue,1765.4782909001224,None,1765.4782909001224,None,6,7.087967199739069,1765.4782909001224,None,7.087967199739069,1772.587095099967,None,1773.0924745998345,None,1773.0924745998345,None,r,1.0177191998809576,1773.0924745998345,None,1.0177191998809576,,,63 Sing,001,2022_Oct_18_0852,ProdSingRedoBetween,2021.2.3,59.53543300939453,
,,,,162,0,162,0,,,,,,,,,,,,,,,,,,,,,,1781.7117244000547,None,,,,,,,,,,,,,,,,,nation,104,163,sing,new,null,1774.648279900197,None,1774.648279900197,None,5,1.933976599946618,1774.648279900197,None,1.933976599946618,1776.608247200027,None,1777.128481300082,None,1777.128481300082,None,f,4.565754599869251,1777.128481300082,None,4.565754599869251,,,63 Sing,001,2022_Oct_18_0852,ProdSingRedoBetween,2021.2.3,59.53543300939453,
,,,,163,0,163,0,,,,,,,,,,,,,,,,,,,,,,1784.7814376000315,None,,,,,,,,,,,,,,,,,strain,53,164,sing,old,blue,1782.2226917999797,None,1782.2226917999797,None,5,1.3594683003611863,1782.2226917999797,None,1.3594683003611863,1783.6200382001698,None,1784.1308522000909,None,1784.1308522000909,None,f,0.635419299826026,1784.1308522000909,None,0.635419299826026,,,63 Sing,001,2022_Oct_18_0852,ProdSingRedoBetween,2021.2.3,59.53543300939453,
,,,,164,0,164,0,,,,,,,,,,,,,,,,,,,,,,1788.6849926002324,None,,,,,,,,,,,,,,,,,concern,159,165,sing,new,null,1785.2887586997822,None,1785.2887586997822,None,6,1.925497599877417,1785.2887586997822,None,1.925497599877417,1787.2365198000334,None,1787.7528241998516,None,1787.7528241998516,None,r,0.9176012999378145,1787.7528241998516,None,0.9176012999378145,,,63 Sing,001,2022_Oct_18_0852,ProdSingRedoBetween,2021.2.3,59.53543300939453,
,,,,165,0,165,0,,,,,,,,,,,,,,,,,,,,,,1791.522379099857,None,,,,,,,,,,,,,,,,,agency,19,166,sing,old,yellow,1789.1966987000778,None,1789.1966987000778,None,5,1.2415282996371388,1789.1966987000778,None,1.2415282996371388,1790.4554594000801,None,1790.9719436001033,None,1790.9719436001033,None,f,0.5223887003958225,1790.9719436001033,None,0.5223887003958225,,,63 Sing,001,2022_Oct_18_0852,ProdSingRedoBetween,2021.2.3,59.53543300939453,
,,,,166,0,166,0,,,,,,,,,,,,,,,,,,,,,,1793.6577666001394,None,,,,,,,,,,,,,,,,,judge,117,167,sing,new,null,1792.0327598000877,None,1792.0327598000877,None,6,0.9174965000711381,1792.0327598000877,None,0.9174965000711381,1792.9746457999572,None,1793.4968485999852,None,1793.4968485999852,None,r,0.14150629984214902,1793.4968485999852,None,0.14150629984214902,,,63 Sing,001,2022_Oct_18_0852,ProdSingRedoBetween,2021.2.3,59.53543300939453,
,,,,167,0,167,0,,,,,,,,,,,,,,,,,,,,,,1795.5298040998168,None,,,,,,,,,,,,,,,,,society,85,168,sing,old,red,1794.1594126001,None,1794.1594126001,None,6,0.7829744000919163,1794.1594126001,None,0.7829744000919163,1794.964407000225,None,1795.475576700177,None,1795.475576700177,None,r,0.03474299982190132,1795.475576700177,None,0.03474299982190132,,,63 Sing,001,2022_Oct_18_0852,ProdSingRedoBetween,2021.2.3,59.53543300939453,
,,,,168,0,168,0,,,,,,,,,,,,,,,,,,,,,,1798.0627565998584,None,,,,,,,,,,,,,,,,,angle,29,169,sing,old,blue,1796.0492417998612,None,1796.0492417998612,None,5,1.365074200090021,1796.0492417998612,None,1.365074200090021,1797.444081199821,None,1797.948334599845,None,1797.948334599845,None,f,0.08202489977702498,1797.948334599845,None,0.08202489977702498,,,63 Sing,001,2022_Oct_18_0852,ProdSingRedoBetween,2021.2.3,59.53543300939453,
,,,,169,0,169,0,,,,,,,,,,,,,,,,,,,,,,1800.2488059001043,None,,,,,,,,,,,,,,,,,quantity,144,170,sing,new,null,1798.5726275001653,None,1798.5726275001653,None,6,1.0816691000945866,1798.5726275001653,None,1.0816691000945866,1799.6881033000536,None,1800.1969666001387,None,1800.1969666001387,None,r,0.0253027998842299,1800.1969666001387,None,0.0253027998842299,,,63 Sing,001,2022_Oct_18_0852,ProdSingRedoBetween,2021.2.3,59.53543300939453,
,,,,170,0,170,0,,,,,,,,,,,,,,,,,,,,,,1803.4666845002212,None,,,,,,,,,,,,,,,,,portion,138,171,sing,new,null,1800.766534099821,None,1800.766534099821,None,6,0.6157379997894168,1800.766534099821,None,0.6157379997894168,1801.4020778001286,None,1801.9152156999335,None,1801.9152156999335,None,r,1.523038299754262,1801.9152156999335,None,1.523038299754262,,,63 Sing,001,2022_Oct_18_0852,ProdSingRedoBetween,2021.2.3,59.53543300939453,
,,,,171,0,171,0,,,,,,,,,,,,,,,,,,,,,,1806.2195049999282,None,,,,,,,,,,,,,,,,,breath,162,172,sing,new,null,1803.9754075999372,None,1803.9754075999372,None,6,1.4308624002151191,1803.9754075999372,None,1.4308624002151191,1805.435303799808,None,1805.9359603999183,None,1805.9359603999183,None,r,0.2624475001357496,1805.9359603999183,None,0.2624475001357496,,,63 Sing,001,2022_Oct_18_0852,ProdSingRedoBetween,2021.2.3,59.53543300939453,
,,,,172,0,172,0,,,,,,,,,,,,,,,,,,,,,,1808.571738900151,None,,,,,,,,,,,,,,,,,shock,45,173,sing,old,blue,1806.722744599916,None,1806.722744599916,None,6,0.9954917998984456,1806.722744599916,None,0.9954917998984456,1807.7382828001864,None,1808.2382187000476,None,1808.2382187000476,None,r,0.3040877999737859,1808.2382187000476,None,0.3040877999737859,,,63 Sing,001,2022_Oct_18_0852,ProdSingRedoBetween,2021.2.3,59.53543300939453,
,,,,173,0,173,0,,,,,,,,,,,,,,,,,,,,,,1811.4246164001524,None,,,,,,,,,,,,,,,,,population,6,174,sing,old,yellow,1809.0789144001901,None,1809.0789144001901,None,6,1.583222800400108,1809.0789144001901,None,1.583222800400108,1810.6904611000791,None,1811.1912087998353,None,1811.1912087998353,None,r,0.21497749956324697,1811.1912087998353,None,0.21497749956324697,,,63 Sing,001,2022_Oct_18_0852,ProdSingRedoBetween,2021.2.3,59.53543300939453,
,,,,174,0,174,0,,,,,,,,,,,,,,,,,,,,,,1813.9270426998846,None,,,,,,,,,,,,,,,,,review,175,175,sing,new,null,1811.9404226997867,None,1811.9404226997867,None,5,0.8097471999935806,1811.9404226997867,None,0.8097471999935806,1812.7822707998566,None,1813.2939654001966,None,1813.2939654001966,None,r,0.6161632998846471,1813.2939654001966,None,0.6161632998846471,,,63 Sing,001,2022_Oct_18_0852,ProdSingRedoBetween,2021.2.3,59.53543300939453,
,,,,175,0,175,0,,,,,,,,,,,,,,,,,,,,,,1815.5975783998147,None,,,,,,,,,,,,,,,,,command,87,176,sing,old,red,1814.42773139989,None,1814.42773139989,None,5,0.5305101000703871,1814.42773139989,None,0.5305101000703871,1814.9781607999466,None,1815.4832045999356,None,1815.4832045999356,None,r,0.09105839999392629,1815.4832045999356,None,0.09105839999392629,,,63 Sing,001,2022_Oct_18_0852,ProdSingRedoBetween,2021.2.3,59.53543300939453,
