StudyLoop.thisRepN,StudyLoop.thisTrialN,StudyLoop.thisN,StudyLoop.thisIndex,TestLoop.thisRepN,TestLoop.thisTrialN,TestLoop.thisN,TestLoop.thisIndex,textCondition.started,textCondition.stopped,keyCondition.keys,keyCondition.rt,keyCondition.started,keyCondition.stopped,Condition,textWelcome.started,textWelcome.stopped,keyWelcome.keys,keyWelcome.rt,keyWelcome.started,keyWelcome.stopped,textAloud.started,textAloud.stopped,textSilent.started,textSilent.stopped,textSing.started,textSing.stopped,conditional_text.started,conditional_text.stopped,textBlank500.started,textBlank500.stopped,study_word,study_num,study_order,study_type,word_color,textStudy.started,textStudy.stopped,keyStudy.keys,keyStudy.started,keyStudy.stopped,textTestInstructions.started,textTestInstructions.stopped,key_resp_3.keys,key_resp_3.rt,key_resp_3.started,key_resp_3.stopped,test_word,test_num,test_order,test_condition,old_new_test,test_word_original_color,textConf.started,textConf.stopped,textConfScale.started,textConfScale.stopped,keyConf.keys,keyConf.rt,keyConf.started,keyConf.stopped,confidence response time,textTestBlank.started,textTestBlank.stopped,textRKN.started,textRKN.stopped,textRKNScale.started,textRKNScale.stopped,keyRKN.keys,keyRKN.rt,keyRKN.started,keyRKN.stopped,rkn response time,textEnd.started,textEnd.stopped,participant,session,date,expName,psychopyVersion,frameRate,
,,,,,,,,35.161068100016564,None,c,8.217222299892455,35.161068100016564,None,,,,,,,,,,,,,,,,,,,,,,,,,,,,,,,,,,,,,,,,,,,,,,,,,,,,,,,,,,,,,,66 Sing,001,2022_Oct_25_1457,ProdSingRedoBetween,2021.2.3,59.414246872427526,
,,,,,,,,,,,,,,SingTest,43.442980099935085,None,space,5849.216102200095,43.442980099935085,None,,,,,,,,,,,,,,,,,,,,,,,,,,,,,,,,,,,,,,,,,,,,,,,,,,,,,,,66 Sing,001,2022_Oct_25_1457,ProdSingRedoBetween,2021.2.3,59.414246872427526,
0,0,0,0,,,,,,,,,,,,,,,,,,43.442980099935085,None,43.442980099935085,None,43.442980099935085,None,43.442980099935085,None,5895.204113299958,None,express,61,1,sing,red,5893.200070399791,None,None,5893.200070399791,None,,,,,,,,,,,,,,,,,,,,,,,,,,,,,,,,,,,66 Sing,001,2022_Oct_25_1457,ProdSingRedoBetween,2021.2.3,59.414246872427526,
1,0,1,0,,,,,,,,,,,,,,,,,,,,,,,,,,5897.723291799892,None,bicycle,1,2,sing,yellow,5895.709580599796,None,None,5895.709580599796,None,,,,,,,,,,,,,,,,,,,,,,,,,,,,,,,,,,,66 Sing,001,2022_Oct_25_1457,ProdSingRedoBetween,2021.2.3,59.414246872427526,
2,0,2,0,,,,,,,,,,,,,,,,,,,,,,,,,,5900.225622300059,None,afternoon,41,3,sing,blue,5898.223747400101,None,None,5898.223747400101,None,,,,,,,,,,,,,,,,,,,,,,,,,,,,,,,,,,,66 Sing,001,2022_Oct_25_1457,ProdSingRedoBetween,2021.2.3,59.414246872427526,
3,0,3,0,,,,,,,,,,,,,,,,,,,,,,,,,,5902.744724799879,None,private,74,4,sing,red,5900.736702799797,None,None,5900.736702799797,None,,,,,,,,,,,,,,,,,,,,,,,,,,,,,,,,,,,66 Sing,001,2022_Oct_25_1457,ProdSingRedoBetween,2021.2.3,59.414246872427526,
4,0,4,0,,,,,,,,,,,,,,,,,,,,,,,,,,5905.263820299879,None,estate,8,5,sing,yellow,5903.2501384001225,None,None,5903.2501384001225,None,,,,,,,,,,,,,,,,,,,,,,,,,,,,,,,,,,,66 Sing,001,2022_Oct_25_1457,ProdSingRedoBetween,2021.2.3,59.414246872427526,
5,0,5,0,,,,,,,,,,,,,,,,,,,,,,,,,,5907.782854000106,None,people,18,6,sing,yellow,5905.767641199753,None,None,5905.767641199753,None,,,,,,,,,,,,,,,,,,,,,,,,,,,,,,,,,,,66 Sing,001,2022_Oct_25_1457,ProdSingRedoBetween,2021.2.3,59.414246872427526,
6,0,6,0,,,,,,,,,,,,,,,,,,,,,,,,,,5910.302439999767,None,worker,76,7,sing,red,5908.291160199791,None,None,5908.291160199791,None,,,,,,,,,,,,,,,,,,,,,,,,,,,,,,,,,,,66 Sing,001,2022_Oct_25_1457,ProdSingRedoBetween,2021.2.3,59.414246872427526,
7,0,7,0,,,,,,,,,,,,,,,,,,,,,,,,,,5912.821694700047,None,pancakes,77,8,sing,red,5910.807322799694,None,None,5910.807322799694,None,,,,,,,,,,,,,,,,,,,,,,,,,,,,,,,,,,,66 Sing,001,2022_Oct_25_1457,ProdSingRedoBetween,2021.2.3,59.414246872427526,
8,0,8,0,,,,,,,,,,,,,,,,,,,,,,,,,,5915.34075899981,None,second,9,9,sing,yellow,5913.331447599921,None,None,5913.331447599921,None,,,,,,,,,,,,,,,,,,,,,,,,,,,,,,,,,,,66 Sing,001,2022_Oct_25_1457,ProdSingRedoBetween,2021.2.3,59.414246872427526,
9,0,9,0,,,,,,,,,,,,,,,,,,,,,,,,,,5917.843278000131,None,alert,45,10,sing,blue,5915.841070499737,None,None,5915.841070499737,None,,,,,,,,,,,,,,,,,,,,,,,,,,,,,,,,,,,66 Sing,001,2022_Oct_25_1457,ProdSingRedoBetween,2021.2.3,59.414246872427526,
10,0,10,0,,,,,,,,,,,,,,,,,,,,,,,,,,5920.345701899845,None,damage,17,11,sing,yellow,5918.34383209981,None,None,5918.34383209981,None,,,,,,,,,,,,,,,,,,,,,,,,,,,,,,,,,,,66 Sing,001,2022_Oct_25_1457,ProdSingRedoBetween,2021.2.3,59.414246872427526,
11,0,11,0,,,,,,,,,,,,,,,,,,,,,,,,,,5922.848264799919,None,sound,13,12,sing,yellow,5920.8462477996945,None,None,5920.8462477996945,None,,,,,,,,,,,,,,,,,,,,,,,,,,,,,,,,,,,66 Sing,001,2022_Oct_25_1457,ProdSingRedoBetween,2021.2.3,59.414246872427526,
12,0,12,0,,,,,,,,,,,,,,,,,,,,,,,,,,5925.350762600079,None,portion,0,13,sing,yellow,5923.349937600084,None,None,5923.349937600084,None,,,,,,,,,,,,,,,,,,,,,,,,,,,,,,,,,,,66 Sing,001,2022_Oct_25_1457,ProdSingRedoBetween,2021.2.3,59.414246872427526,
13,0,13,0,,,,,,,,,,,,,,,,,,,,,,,,,,5927.853320199996,None,nation,48,14,sing,blue,5925.851327399723,None,None,5925.851327399723,None,,,,,,,,,,,,,,,,,,,,,,,,,,,,,,,,,,,66 Sing,001,2022_Oct_25_1457,ProdSingRedoBetween,2021.2.3,59.414246872427526,
14,0,14,0,,,,,,,,,,,,,,,,,,,,,,,,,,5930.3721718997695,None,thing,56,15,sing,blue,5928.3569804998115,None,None,5928.3569804998115,None,,,,,,,,,,,,,,,,,,,,,,,,,,,,,,,,,,,66 Sing,001,2022_Oct_25_1457,ProdSingRedoBetween,2021.2.3,59.414246872427526,
15,0,15,0,,,,,,,,,,,,,,,,,,,,,,,,,,5932.87467420008,None,collection,35,16,sing,blue,5930.872955299914,None,None,5930.872955299914,None,,,,,,,,,,,,,,,,,,,,,,,,,,,,,,,,,,,66 Sing,001,2022_Oct_25_1457,ProdSingRedoBetween,2021.2.3,59.414246872427526,
16,0,16,0,,,,,,,,,,,,,,,,,,,,,,,,,,5935.377468899824,None,figure,88,17,sing,red,5933.375484599732,None,None,5933.375484599732,None,,,,,,,,,,,,,,,,,,,,,,,,,,,,,,,,,,,66 Sing,001,2022_Oct_25_1457,ProdSingRedoBetween,2021.2.3,59.414246872427526,
17,0,17,0,,,,,,,,,,,,,,,,,,,,,,,,,,5937.896473099943,None,graduate,20,18,sing,yellow,5935.883624199778,None,None,5935.883624199778,None,,,,,,,,,,,,,,,,,,,,,,,,,,,,,,,,,,,66 Sing,001,2022_Oct_25_1457,ProdSingRedoBetween,2021.2.3,59.414246872427526,
18,0,18,0,,,,,,,,,,,,,,,,,,,,,,,,,,5940.399121399969,None,background,31,19,sing,blue,5938.397104499862,None,None,5938.397104499862,None,,,,,,,,,,,,,,,,,,,,,,,,,,,,,,,,,,,66 Sing,001,2022_Oct_25_1457,ProdSingRedoBetween,2021.2.3,59.414246872427526,
19,0,19,0,,,,,,,,,,,,,,,,,,,,,,,,,,5942.901432899758,None,colonel,16,20,sing,yellow,5940.90151009988,None,None,5940.90151009988,None,,,,,,,,,,,,,,,,,,,,,,,,,,,,,,,,,,,66 Sing,001,2022_Oct_25_1457,ProdSingRedoBetween,2021.2.3,59.414246872427526,
20,0,20,0,,,,,,,,,,,,,,,,,,,,,,,,,,5945.40385890007,None,principal,32,21,sing,blue,5943.402089099865,None,None,5943.402089099865,None,,,,,,,,,,,,,,,,,,,,,,,,,,,,,,,,,,,66 Sing,001,2022_Oct_25_1457,ProdSingRedoBetween,2021.2.3,59.414246872427526,
21,0,21,0,,,,,,,,,,,,,,,,,,,,,,,,,,5947.923292200081,None,crisis,37,22,sing,blue,5945.913313699886,None,None,5945.913313699886,None,,,,,,,,,,,,,,,,,,,,,,,,,,,,,,,,,,,66 Sing,001,2022_Oct_25_1457,ProdSingRedoBetween,2021.2.3,59.414246872427526,
22,0,22,0,,,,,,,,,,,,,,,,,,,,,,,,,,5950.425674099941,None,number,83,23,sing,red,5948.425011300016,None,None,5948.425011300016,None,,,,,,,,,,,,,,,,,,,,,,,,,,,,,,,,,,,66 Sing,001,2022_Oct_25_1457,ProdSingRedoBetween,2021.2.3,59.414246872427526,
23,0,23,0,,,,,,,,,,,,,,,,,,,,,,,,,,5952.944868799765,None,period,78,24,sing,red,5950.929819599725,None,None,5950.929819599725,None,,,,,,,,,,,,,,,,,,,,,,,,,,,,,,,,,,,66 Sing,001,2022_Oct_25_1457,ProdSingRedoBetween,2021.2.3,59.414246872427526,
24,0,24,0,,,,,,,,,,,,,,,,,,,,,,,,,,5955.4474419998005,None,angle,80,25,sing,red,5953.447032299824,None,None,5953.447032299824,None,,,,,,,,,,,,,,,,,,,,,,,,,,,,,,,,,,,66 Sing,001,2022_Oct_25_1457,ProdSingRedoBetween,2021.2.3,59.414246872427526,
25,0,25,0,,,,,,,,,,,,,,,,,,,,,,,,,,5957.949882199988,None,object,69,26,sing,red,5955.950930099934,None,None,5955.950930099934,None,,,,,,,,,,,,,,,,,,,,,,,,,,,,,,,,,,,66 Sing,001,2022_Oct_25_1457,ProdSingRedoBetween,2021.2.3,59.414246872427526,
26,0,26,0,,,,,,,,,,,,,,,,,,,,,,,,,,5960.468963199761,None,detective,7,27,sing,yellow,5958.45738440007,None,None,5958.45738440007,None,,,,,,,,,,,,,,,,,,,,,,,,,,,,,,,,,,,66 Sing,001,2022_Oct_25_1457,ProdSingRedoBetween,2021.2.3,59.414246872427526,
27,0,27,0,,,,,,,,,,,,,,,,,,,,,,,,,,5962.972749299835,None,couch,64,28,sing,red,5960.971580899786,None,None,5960.971580899786,None,,,,,,,,,,,,,,,,,,,,,,,,,,,,,,,,,,,66 Sing,001,2022_Oct_25_1457,ProdSingRedoBetween,2021.2.3,59.414246872427526,
28,0,28,0,,,,,,,,,,,,,,,,,,,,,,,,,,5965.490596899763,None,school,23,29,sing,yellow,5963.476995099802,None,None,5963.476995099802,None,,,,,,,,,,,,,,,,,,,,,,,,,,,,,,,,,,,66 Sing,001,2022_Oct_25_1457,ProdSingRedoBetween,2021.2.3,59.414246872427526,
29,0,29,0,,,,,,,,,,,,,,,,,,,,,,,,,,5967.993404899724,None,committee,3,30,sing,yellow,5965.99130159989,None,None,5965.99130159989,None,,,,,,,,,,,,,,,,,,,,,,,,,,,,,,,,,,,66 Sing,001,2022_Oct_25_1457,ProdSingRedoBetween,2021.2.3,59.414246872427526,
30,0,30,0,,,,,,,,,,,,,,,,,,,,,,,,,,5970.512497500051,None,dispute,71,31,sing,red,5968.499782199971,None,None,5968.499782199971,None,,,,,,,,,,,,,,,,,,,,,,,,,,,,,,,,,,,66 Sing,001,2022_Oct_25_1457,ProdSingRedoBetween,2021.2.3,59.414246872427526,
31,0,31,0,,,,,,,,,,,,,,,,,,,,,,,,,,5973.0149094997905,None,point,14,32,sing,yellow,5971.014420200139,None,None,5971.014420200139,None,,,,,,,,,,,,,,,,,,,,,,,,,,,,,,,,,,,66 Sing,001,2022_Oct_25_1457,ProdSingRedoBetween,2021.2.3,59.414246872427526,
32,0,32,0,,,,,,,,,,,,,,,,,,,,,,,,,,5975.517489099875,None,business,19,33,sing,yellow,5973.518538000062,None,None,5973.518538000062,None,,,,,,,,,,,,,,,,,,,,,,,,,,,,,,,,,,,66 Sing,001,2022_Oct_25_1457,ProdSingRedoBetween,2021.2.3,59.414246872427526,
33,0,33,0,,,,,,,,,,,,,,,,,,,,,,,,,,5978.036639699712,None,military,70,34,sing,red,5976.026634499896,None,None,5976.026634499896,None,,,,,,,,,,,,,,,,,,,,,,,,,,,,,,,,,,,66 Sing,001,2022_Oct_25_1457,ProdSingRedoBetween,2021.2.3,59.414246872427526,
34,0,34,0,,,,,,,,,,,,,,,,,,,,,,,,,,5980.538929299917,None,mechanical,27,35,sing,yellow,5978.536895100027,None,None,5978.536895100027,None,,,,,,,,,,,,,,,,,,,,,,,,,,,,,,,,,,,66 Sing,001,2022_Oct_25_1457,ProdSingRedoBetween,2021.2.3,59.414246872427526,
35,0,35,0,,,,,,,,,,,,,,,,,,,,,,,,,,5983.058177600149,None,plane,68,36,sing,red,5981.045484900009,None,None,5981.045484900009,None,,,,,,,,,,,,,,,,,,,,,,,,,,,,,,,,,,,66 Sing,001,2022_Oct_25_1457,ProdSingRedoBetween,2021.2.3,59.414246872427526,
36,0,36,0,,,,,,,,,,,,,,,,,,,,,,,,,,5985.560902699828,None,member,46,37,sing,blue,5983.561746200081,None,None,5983.561746200081,None,,,,,,,,,,,,,,,,,,,,,,,,,,,,,,,,,,,66 Sing,001,2022_Oct_25_1457,ProdSingRedoBetween,2021.2.3,59.414246872427526,
37,0,37,0,,,,,,,,,,,,,,,,,,,,,,,,,,5988.063008700032,None,resistance,84,38,sing,red,5986.060855600052,None,None,5986.060855600052,None,,,,,,,,,,,,,,,,,,,,,,,,,,,,,,,,,,,66 Sing,001,2022_Oct_25_1457,ProdSingRedoBetween,2021.2.3,59.414246872427526,
38,0,38,0,,,,,,,,,,,,,,,,,,,,,,,,,,5990.5658410000615,None,congress,36,39,sing,blue,5988.564917500131,None,None,5988.564917500131,None,,,,,,,,,,,,,,,,,,,,,,,,,,,,,,,,,,,66 Sing,001,2022_Oct_25_1457,ProdSingRedoBetween,2021.2.3,59.414246872427526,
39,0,39,0,,,,,,,,,,,,,,,,,,,,,,,,,,5993.0849513998255,None,straight,49,40,sing,blue,5991.071659800131,None,None,5991.071659800131,None,,,,,,,,,,,,,,,,,,,,,,,,,,,,,,,,,,,66 Sing,001,2022_Oct_25_1457,ProdSingRedoBetween,2021.2.3,59.414246872427526,
40,0,40,0,,,,,,,,,,,,,,,,,,,,,,,,,,5995.603932399768,None,course,86,41,sing,red,5993.589924099855,None,None,5993.589924099855,None,,,,,,,,,,,,,,,,,,,,,,,,,,,,,,,,,,,66 Sing,001,2022_Oct_25_1457,ProdSingRedoBetween,2021.2.3,59.414246872427526,
41,0,41,0,,,,,,,,,,,,,,,,,,,,,,,,,,5998.123307500035,None,report,11,42,sing,yellow,5996.110263200011,None,None,5996.110263200011,None,,,,,,,,,,,,,,,,,,,,,,,,,,,,,,,,,,,66 Sing,001,2022_Oct_25_1457,ProdSingRedoBetween,2021.2.3,59.414246872427526,
42,0,42,0,,,,,,,,,,,,,,,,,,,,,,,,,,6000.625757500064,None,machinery,51,43,sing,blue,5998.623943599872,None,None,5998.623943599872,None,,,,,,,,,,,,,,,,,,,,,,,,,,,,,,,,,,,66 Sing,001,2022_Oct_25_1457,ProdSingRedoBetween,2021.2.3,59.414246872427526,
43,0,43,0,,,,,,,,,,,,,,,,,,,,,,,,,,6003.1284107998945,None,century,5,44,sing,yellow,6001.129446200095,None,None,6001.129446200095,None,,,,,,,,,,,,,,,,,,,,,,,,,,,,,,,,,,,66 Sing,001,2022_Oct_25_1457,ProdSingRedoBetween,2021.2.3,59.414246872427526,
44,0,44,0,,,,,,,,,,,,,,,,,,,,,,,,,,6005.647539199796,None,sunset,10,45,sing,yellow,6003.633084400091,None,None,6003.633084400091,None,,,,,,,,,,,,,,,,,,,,,,,,,,,,,,,,,,,66 Sing,001,2022_Oct_25_1457,ProdSingRedoBetween,2021.2.3,59.414246872427526,
45,0,45,0,,,,,,,,,,,,,,,,,,,,,,,,,,6008.15003670007,None,welcome,38,46,sing,blue,6006.147757099941,None,None,6006.147757099941,None,,,,,,,,,,,,,,,,,,,,,,,,,,,,,,,,,,,66 Sing,001,2022_Oct_25_1457,ProdSingRedoBetween,2021.2.3,59.414246872427526,
46,0,46,0,,,,,,,,,,,,,,,,,,,,,,,,,,6010.669160800055,None,dance,60,47,sing,red,6008.654004899785,None,None,6008.654004899785,None,,,,,,,,,,,,,,,,,,,,,,,,,,,,,,,,,,,66 Sing,001,2022_Oct_25_1457,ProdSingRedoBetween,2021.2.3,59.414246872427526,
47,0,47,0,,,,,,,,,,,,,,,,,,,,,,,,,,6013.188239799812,None,vision,65,48,sing,red,6011.176660500001,None,None,6011.176660500001,None,,,,,,,,,,,,,,,,,,,,,,,,,,,,,,,,,,,66 Sing,001,2022_Oct_25_1457,ProdSingRedoBetween,2021.2.3,59.414246872427526,
48,0,48,0,,,,,,,,,,,,,,,,,,,,,,,,,,6015.690881900024,None,reach,54,49,sing,blue,6013.691746199969,None,None,6013.691746199969,None,,,,,,,,,,,,,,,,,,,,,,,,,,,,,,,,,,,66 Sing,001,2022_Oct_25_1457,ProdSingRedoBetween,2021.2.3,59.414246872427526,
49,0,49,0,,,,,,,,,,,,,,,,,,,,,,,,,,6018.209989000112,None,review,6,50,sing,yellow,6016.195896899793,None,None,6016.195896899793,None,,,,,,,,,,,,,,,,,,,,,,,,,,,,,,,,,,,66 Sing,001,2022_Oct_25_1457,ProdSingRedoBetween,2021.2.3,59.414246872427526,
50,0,50,0,,,,,,,,,,,,,,,,,,,,,,,,,,6020.712291199714,None,cross,63,51,sing,red,6018.7131807999685,None,None,6018.7131807999685,None,,,,,,,,,,,,,,,,,,,,,,,,,,,,,,,,,,,66 Sing,001,2022_Oct_25_1457,ProdSingRedoBetween,2021.2.3,59.414246872427526,
51,0,51,0,,,,,,,,,,,,,,,,,,,,,,,,,,6023.231537499931,None,prime,75,52,sing,red,6021.219066999853,None,None,6021.219066999853,None,,,,,,,,,,,,,,,,,,,,,,,,,,,,,,,,,,,66 Sing,001,2022_Oct_25_1457,ProdSingRedoBetween,2021.2.3,59.414246872427526,
52,0,52,0,,,,,,,,,,,,,,,,,,,,,,,,,,6025.750911700074,None,republic,58,53,sing,blue,6023.737391400151,None,None,6023.737391400151,None,,,,,,,,,,,,,,,,,,,,,,,,,,,,,,,,,,,66 Sing,001,2022_Oct_25_1457,ProdSingRedoBetween,2021.2.3,59.414246872427526,
53,0,53,0,,,,,,,,,,,,,,,,,,,,,,,,,,6028.270091400016,None,harmony,87,54,sing,red,6026.255009099841,None,None,6026.255009099841,None,,,,,,,,,,,,,,,,,,,,,,,,,,,,,,,,,,,66 Sing,001,2022_Oct_25_1457,ProdSingRedoBetween,2021.2.3,59.414246872427526,
54,0,54,0,,,,,,,,,,,,,,,,,,,,,,,,,,6030.772519099992,None,character,72,55,sing,red,6028.771838999819,None,None,6028.771838999819,None,,,,,,,,,,,,,,,,,,,,,,,,,,,,,,,,,,,66 Sing,001,2022_Oct_25_1457,ProdSingRedoBetween,2021.2.3,59.414246872427526,
55,0,55,0,,,,,,,,,,,,,,,,,,,,,,,,,,6033.291736399755,None,whole,79,56,sing,red,6031.276665399782,None,None,6031.276665399782,None,,,,,,,,,,,,,,,,,,,,,,,,,,,,,,,,,,,66 Sing,001,2022_Oct_25_1457,ProdSingRedoBetween,2021.2.3,59.414246872427526,
56,0,56,0,,,,,,,,,,,,,,,,,,,,,,,,,,6035.794244300108,None,testimony,59,57,sing,yellow,6033.79224949982,None,None,6033.79224949982,None,,,,,,,,,,,,,,,,,,,,,,,,,,,,,,,,,,,66 Sing,001,2022_Oct_25_1457,ProdSingRedoBetween,2021.2.3,59.414246872427526,
57,0,57,0,,,,,,,,,,,,,,,,,,,,,,,,,,6038.313436000142,None,novel,24,58,sing,yellow,6036.302177600097,None,None,6036.302177600097,None,,,,,,,,,,,,,,,,,,,,,,,,,,,,,,,,,,,66 Sing,001,2022_Oct_25_1457,ProdSingRedoBetween,2021.2.3,59.414246872427526,
58,0,58,0,,,,,,,,,,,,,,,,,,,,,,,,,,6040.832378999796,None,goose,73,59,sing,red,6038.8204986001365,None,None,6038.8204986001365,None,,,,,,,,,,,,,,,,,,,,,,,,,,,,,,,,,,,66 Sing,001,2022_Oct_25_1457,ProdSingRedoBetween,2021.2.3,59.414246872427526,
59,0,59,0,,,,,,,,,,,,,,,,,,,,,,,,,,6043.335171199869,None,force,62,60,sing,red,6041.333083999809,None,None,6041.333083999809,None,,,,,,,,,,,,,,,,,,,,,,,,,,,,,,,,,,,66 Sing,001,2022_Oct_25_1457,ProdSingRedoBetween,2021.2.3,59.414246872427526,
60,0,60,0,,,,,,,,,,,,,,,,,,,,,,,,,,6045.837616699748,None,appearance,25,61,sing,yellow,6043.836372399703,None,None,6043.836372399703,None,,,,,,,,,,,,,,,,,,,,,,,,,,,,,,,,,,,66 Sing,001,2022_Oct_25_1457,ProdSingRedoBetween,2021.2.3,59.414246872427526,
61,0,61,0,,,,,,,,,,,,,,,,,,,,,,,,,,6048.356720800046,None,scene,12,62,sing,yellow,6046.341473999899,None,None,6046.341473999899,None,,,,,,,,,,,,,,,,,,,,,,,,,,,,,,,,,,,66 Sing,001,2022_Oct_25_1457,ProdSingRedoBetween,2021.2.3,59.414246872427526,
62,0,62,0,,,,,,,,,,,,,,,,,,,,,,,,,,6050.87590730004,None,spoke,28,63,sing,yellow,6048.863765299786,None,None,6048.863765299786,None,,,,,,,,,,,,,,,,,,,,,,,,,,,,,,,,,,,66 Sing,001,2022_Oct_25_1457,ProdSingRedoBetween,2021.2.3,59.414246872427526,
63,0,63,0,,,,,,,,,,,,,,,,,,,,,,,,,,6053.378384300042,None,sight,26,64,sing,yellow,6051.376442399807,None,None,6051.376442399807,None,,,,,,,,,,,,,,,,,,,,,,,,,,,,,,,,,,,66 Sing,001,2022_Oct_25_1457,ProdSingRedoBetween,2021.2.3,59.414246872427526,
64,0,64,0,,,,,,,,,,,,,,,,,,,,,,,,,,6055.880823600106,None,clear,15,65,sing,yellow,6053.879018099979,None,None,6053.879018099979,None,,,,,,,,,,,,,,,,,,,,,,,,,,,,,,,,,,,66 Sing,001,2022_Oct_25_1457,ProdSingRedoBetween,2021.2.3,59.414246872427526,
65,0,65,0,,,,,,,,,,,,,,,,,,,,,,,,,,6058.400216599926,None,direction,33,66,sing,blue,6056.389621799812,None,None,6056.389621799812,None,,,,,,,,,,,,,,,,,,,,,,,,,,,,,,,,,,,66 Sing,001,2022_Oct_25_1457,ProdSingRedoBetween,2021.2.3,59.414246872427526,
66,0,66,0,,,,,,,,,,,,,,,,,,,,,,,,,,6060.919242300093,None,growth,42,67,sing,blue,6058.904582600109,None,None,6058.904582600109,None,,,,,,,,,,,,,,,,,,,,,,,,,,,,,,,,,,,66 Sing,001,2022_Oct_25_1457,ProdSingRedoBetween,2021.2.3,59.414246872427526,
67,0,67,0,,,,,,,,,,,,,,,,,,,,,,,,,,6063.438501799945,None,session,89,68,sing,red,6061.430490599945,None,None,6061.430490599945,None,,,,,,,,,,,,,,,,,,,,,,,,,,,,,,,,,,,66 Sing,001,2022_Oct_25_1457,ProdSingRedoBetween,2021.2.3,59.414246872427526,
68,0,68,0,,,,,,,,,,,,,,,,,,,,,,,,,,6065.940787800122,None,still,2,69,sing,yellow,6063.938786900137,None,None,6063.938786900137,None,,,,,,,,,,,,,,,,,,,,,,,,,,,,,,,,,,,66 Sing,001,2022_Oct_25_1457,ProdSingRedoBetween,2021.2.3,59.414246872427526,
69,0,69,0,,,,,,,,,,,,,,,,,,,,,,,,,,6068.46016549971,None,guide,57,70,sing,blue,6066.445010100026,None,None,6066.445010100026,None,,,,,,,,,,,,,,,,,,,,,,,,,,,,,,,,,,,66 Sing,001,2022_Oct_25_1457,ProdSingRedoBetween,2021.2.3,59.414246872427526,
70,0,70,0,,,,,,,,,,,,,,,,,,,,,,,,,,6070.979385399725,None,revolution,22,71,sing,yellow,6068.971209699754,None,None,6068.971209699754,None,,,,,,,,,,,,,,,,,,,,,,,,,,,,,,,,,,,66 Sing,001,2022_Oct_25_1457,ProdSingRedoBetween,2021.2.3,59.414246872427526,
71,0,71,0,,,,,,,,,,,,,,,,,,,,,,,,,,6073.48186849989,None,treatment,30,72,sing,blue,6071.482714999933,None,None,6071.482714999933,None,,,,,,,,,,,,,,,,,,,,,,,,,,,,,,,,,,,66 Sing,001,2022_Oct_25_1457,ProdSingRedoBetween,2021.2.3,59.414246872427526,
72,0,72,0,,,,,,,,,,,,,,,,,,,,,,,,,,6075.984249199741,None,sweet,21,73,sing,yellow,6073.983292299788,None,None,6073.983292299788,None,,,,,,,,,,,,,,,,,,,,,,,,,,,,,,,,,,,66 Sing,001,2022_Oct_25_1457,ProdSingRedoBetween,2021.2.3,59.414246872427526,
73,0,73,0,,,,,,,,,,,,,,,,,,,,,,,,,,6078.486684800126,None,sleep,29,74,sing,blue,6076.485601699911,None,None,6076.485601699911,None,,,,,,,,,,,,,,,,,,,,,,,,,,,,,,,,,,,66 Sing,001,2022_Oct_25_1457,ProdSingRedoBetween,2021.2.3,59.414246872427526,
74,0,74,0,,,,,,,,,,,,,,,,,,,,,,,,,,6080.98926119972,None,weather,55,75,sing,blue,6078.98738289997,None,None,6078.98738289997,None,,,,,,,,,,,,,,,,,,,,,,,,,,,,,,,,,,,66 Sing,001,2022_Oct_25_1457,ProdSingRedoBetween,2021.2.3,59.414246872427526,
75,0,75,0,,,,,,,,,,,,,,,,,,,,,,,,,,6083.508437899873,None,touch,44,76,sing,blue,6081.495962999761,None,None,6081.495962999761,None,,,,,,,,,,,,,,,,,,,,,,,,,,,,,,,,,,,66 Sing,001,2022_Oct_25_1457,ProdSingRedoBetween,2021.2.3,59.414246872427526,
76,0,76,0,,,,,,,,,,,,,,,,,,,,,,,,,,6086.0276663000695,None,raise,66,77,sing,red,6084.013290799689,None,None,6084.013290799689,None,,,,,,,,,,,,,,,,,,,,,,,,,,,,,,,,,,,66 Sing,001,2022_Oct_25_1457,ProdSingRedoBetween,2021.2.3,59.414246872427526,
77,0,77,0,,,,,,,,,,,,,,,,,,,,,,,,,,6088.530183599796,None,material,4,78,sing,yellow,6086.527858399786,None,None,6086.527858399786,None,,,,,,,,,,,,,,,,,,,,,,,,,,,,,,,,,,,66 Sing,001,2022_Oct_25_1457,ProdSingRedoBetween,2021.2.3,59.414246872427526,
78,0,78,0,,,,,,,,,,,,,,,,,,,,,,,,,,6091.032684199978,None,music,50,79,sing,blue,6089.0331478999,None,None,6089.0331478999,None,,,,,,,,,,,,,,,,,,,,,,,,,,,,,,,,,,,66 Sing,001,2022_Oct_25_1457,ProdSingRedoBetween,2021.2.3,59.414246872427526,
79,0,79,0,,,,,,,,,,,,,,,,,,,,,,,,,,6093.55179349985,None,passage,39,80,sing,blue,6091.538396299817,None,None,6091.538396299817,None,,,,,,,,,,,,,,,,,,,,,,,,,,,,,,,,,,,66 Sing,001,2022_Oct_25_1457,ProdSingRedoBetween,2021.2.3,59.414246872427526,
80,0,80,0,,,,,,,,,,,,,,,,,,,,,,,,,,6096.05426990008,None,concern,53,81,sing,blue,6094.052595300134,None,None,6094.052595300134,None,,,,,,,,,,,,,,,,,,,,,,,,,,,,,,,,,,,66 Sing,001,2022_Oct_25_1457,ProdSingRedoBetween,2021.2.3,59.414246872427526,
81,0,81,0,,,,,,,,,,,,,,,,,,,,,,,,,,6098.573537299875,None,split,34,82,sing,blue,6096.559220999945,None,None,6096.559220999945,None,,,,,,,,,,,,,,,,,,,,,,,,,,,,,,,,,,,66 Sing,001,2022_Oct_25_1457,ProdSingRedoBetween,2021.2.3,59.414246872427526,
82,0,82,0,,,,,,,,,,,,,,,,,,,,,,,,,,6101.092675699852,None,cover,43,83,sing,blue,6099.080318799708,None,None,6099.080318799708,None,,,,,,,,,,,,,,,,,,,,,,,,,,,,,,,,,,,66 Sing,001,2022_Oct_25_1457,ProdSingRedoBetween,2021.2.3,59.414246872427526,
83,0,83,0,,,,,,,,,,,,,,,,,,,,,,,,,,6103.611887299921,None,government,67,84,sing,red,6101.602149199694,None,None,6101.602149199694,None,,,,,,,,,,,,,,,,,,,,,,,,,,,,,,,,,,,66 Sing,001,2022_Oct_25_1457,ProdSingRedoBetween,2021.2.3,59.414246872427526,
84,0,84,0,,,,,,,,,,,,,,,,,,,,,,,,,,6106.114303399809,None,listen,52,85,sing,blue,6104.114064299967,None,None,6104.114064299967,None,,,,,,,,,,,,,,,,,,,,,,,,,,,,,,,,,,,66 Sing,001,2022_Oct_25_1457,ProdSingRedoBetween,2021.2.3,59.414246872427526,
85,0,85,0,,,,,,,,,,,,,,,,,,,,,,,,,,6108.616803700104,None,debate,82,86,sing,red,6106.614705299959,None,None,6106.614705299959,None,,,,,,,,,,,,,,,,,,,,,,,,,,,,,,,,,,,66 Sing,001,2022_Oct_25_1457,ProdSingRedoBetween,2021.2.3,59.414246872427526,
86,0,86,0,,,,,,,,,,,,,,,,,,,,,,,,,,6111.1193105001,None,story,40,87,sing,blue,6109.1181986997835,None,None,6109.1181986997835,None,,,,,,,,,,,,,,,,,,,,,,,,,,,,,,,,,,,66 Sing,001,2022_Oct_25_1457,ProdSingRedoBetween,2021.2.3,59.414246872427526,
87,0,87,0,,,,,,,,,,,,,,,,,,,,,,,,,,6113.621833699755,None,smooth,47,88,sing,blue,6111.619931499939,None,None,6111.619931499939,None,,,,,,,,,,,,,,,,,,,,,,,,,,,,,,,,,,,66 Sing,001,2022_Oct_25_1457,ProdSingRedoBetween,2021.2.3,59.414246872427526,
88,0,88,0,,,,,,,,,,,,,,,,,,,,,,,,,,6116.124345100019,None,interior,81,89,sing,red,6114.122187799774,None,None,6114.122187799774,None,,,,,,,,,,,,,,,,,,,,,,,,,,,,,,,,,,,66 Sing,001,2022_Oct_25_1457,ProdSingRedoBetween,2021.2.3,59.414246872427526,
89,0,89,0,,,,,,,,,,,,,,,,,,,,,,,,,,6118.626654599793,None,crime,85,90,sing,red,6116.627074399963,None,None,6116.627074399963,None,,,,,,,,,,,,,,,,,,,,,,,,,,,,,,,,,,,66 Sing,001,2022_Oct_25_1457,ProdSingRedoBetween,2021.2.3,59.414246872427526,
,,,,,,,,,,,,,,,,,,,,,,,,,,,,,,,,,,,,,,,,,6119.127620599698,None,k,234.37876019999385,6119.127620599698,None,,,,,,,,,,,,,,,,,,,,,,,,,,,,,66 Sing,001,2022_Oct_25_1457,ProdSingRedoBetween,2021.2.3,59.414246872427526,
,,,,0,0,0,0,,,,,,,,,,,,,,,,,,,,,,6365.857101999689,None,,,,,,,,,,,,,,,,,author,163,1,sing,new,null,6354.0381515999325,None,6354.0381515999325,None,6,5.276190500240773,6354.0381515999325,None,5.276190500240773,6359.334499000106,None,6359.839851299766,None,6359.839851299766,None,r,5.994391900021583,6359.839851299766,None,5.994391900021583,,,66 Sing,001,2022_Oct_25_1457,ProdSingRedoBetween,2021.2.3,59.414246872427526,
,,,,1,0,1,0,,,,,,,,,,,,,,,,,,,,,,6371.4956959998235,None,,,,,,,,,,,,,,,,,scene,12,2,sing,old,yellow,6366.357076599728,None,6366.357076599728,None,6,2.44524580007419,6366.357076599728,None,2.44524580007419,6368.827798000071,None,6369.3327128998935,None,6369.3327128998935,None,f,2.1336014000698924,6369.3327128998935,None,2.1336014000698924,,,66 Sing,001,2022_Oct_25_1457,ProdSingRedoBetween,2021.2.3,59.414246872427526,
,,,,2,0,2,0,,,,,,,,,,,,,,,,,,,,,,6377.37181549985,None,,,,,,,,,,,,,,,,,management,98,3,sing,new,null,6372.004851299804,None,6372.004851299804,None,6,2.853452999610454,6372.004851299804,None,2.853452999610454,6374.883355699945,None,6375.382762699854,None,6375.382762699854,None,r,1.9636480999179184,6375.382762699854,None,1.9636480999179184,,,66 Sing,001,2022_Oct_25_1457,ProdSingRedoBetween,2021.2.3,59.414246872427526,
,,,,3,0,3,0,,,,,,,,,,,,,,,,,,,,,,6383.757883399725,None,,,,,,,,,,,,,,,,,passage,39,4,sing,old,blue,6377.893019899726,None,6377.893019899726,None,5,3.0211942000314593,6377.893019899726,None,3.0211942000314593,6380.9384340997785,None,6381.444436799735,None,6381.444436799735,None,f,2.2858223002403975,6381.444436799735,None,2.2858223002403975,,,66 Sing,001,2022_Oct_25_1457,ProdSingRedoBetween,2021.2.3,59.414246872427526,
,,,,4,0,4,0,,,,,,,,,,,,,,,,,,,,,,6388.147113400046,None,,,,,,,,,,,,,,,,,sunset,10,5,sing,old,yellow,6384.266899100039,None,6384.266899100039,None,6,1.7034001997672021,6384.266899100039,None,1.7034001997672021,6385.995364800096,None,6386.513423100114,None,6386.513423100114,None,r,1.6011208998970687,6386.513423100114,None,1.6011208998970687,,,66 Sing,001,2022_Oct_25_1457,ProdSingRedoBetween,2021.2.3,59.414246872427526,
,,,,5,0,5,0,,,,,,,,,,,,,,,,,,,,,,6395.1859520999715,None,,,,,,,,,,,,,,,,,republic,58,6,sing,old,blue,6388.653665499762,None,6388.653665499762,None,4,3.6287083998322487,6388.653665499762,None,3.6287083998322487,6392.301120900083,None,6392.806509399787,None,6392.806509399787,None,f,2.363770700059831,6392.806509399787,None,2.363770700059831,,,66 Sing,001,2022_Oct_25_1457,ProdSingRedoBetween,2021.2.3,59.414246872427526,
,,,,6,0,6,0,,,,,,,,,,,,,,,,,,,,,,6400.257698599715,None,,,,,,,,,,,,,,,,,substance,141,7,sing,new,null,6395.69278859999,None,6395.69278859999,None,5,2.045455700252205,6395.69278859999,None,2.045455700252205,6397.757217499893,None,6398.279030200094,None,6398.279030200094,None,f,1.9552408000454307,6398.279030200094,None,1.9552408000454307,,,66 Sing,001,2022_Oct_25_1457,ProdSingRedoBetween,2021.2.3,59.414246872427526,
,,,,7,0,7,0,,,,,,,,,,,,,,,,,,,,,,6404.628715099767,None,,,,,,,,,,,,,,,,,weather,55,8,sing,old,blue,6400.77052909974,None,6400.77052909974,None,6,1.6717002000659704,6400.77052909974,None,1.6717002000659704,6402.4629766000435,None,6402.981347199995,None,6402.981347199995,None,r,1.628911199979484,6402.981347199995,None,1.628911199979484,,,66 Sing,001,2022_Oct_25_1457,ProdSingRedoBetween,2021.2.3,59.414246872427526,
,,,,8,0,8,0,,,,,,,,,,,,,,,,,,,,,,6410.6871482999995,None,,,,,,,,,,,,,,,,,block,176,9,sing,new,null,6405.140855900012,None,6405.140855900012,None,6,3.861323300283402,6405.140855900012,None,3.861323300283402,6409.03431210015,None,6409.538871800061,None,6409.538871800061,None,r,1.1273981998674572,6409.538871800061,None,1.1273981998674572,,,66 Sing,001,2022_Oct_25_1457,ProdSingRedoBetween,2021.2.3,59.414246872427526,
,,,,9,0,9,0,,,,,,,,,,,,,,,,,,,,,,6415.40609479975,None,,,,,,,,,,,,,,,,,quantity,111,10,sing,new,null,6411.212096800096,None,6411.212096800096,None,6,2.046364000067115,6411.212096800096,None,2.046364000067115,6413.297305900138,None,6413.811594699975,None,6413.811594699975,None,f,1.5666249999776483,6413.811594699975,None,1.5666249999776483,,,66 Sing,001,2022_Oct_25_1457,ProdSingRedoBetween,2021.2.3,59.414246872427526,
,,,,10,0,10,0,,,,,,,,,,,,,,,,,,,,,,6420.577895299997,None,,,,,,,,,,,,,,,,,review,6,11,sing,old,yellow,6415.9158402998,None,6415.9158402998,None,5,2.070394200272858,6415.9158402998,None,2.070394200272858,6418.013718199916,None,6418.52601689985,None,6418.52601689985,None,r,2.0362428999505937,6418.52601689985,None,2.0362428999505937,,,66 Sing,001,2022_Oct_25_1457,ProdSingRedoBetween,2021.2.3,59.414246872427526,
,,,,11,0,11,0,,,,,,,,,,,,,,,,,,,,,,6427.501203400083,None,,,,,,,,,,,,,,,,,split,34,12,sing,old,blue,6421.080969099887,None,6421.080969099887,None,5,1.9612802998162806,6421.080969099887,None,1.9612802998162806,6423.063994700089,None,6423.564200100023,None,6423.564200100023,None,f,3.909908500034362,6423.564200100023,None,3.909908500034362,,,66 Sing,001,2022_Oct_25_1457,ProdSingRedoBetween,2021.2.3,59.414246872427526,
,,,,12,0,12,0,,,,,,,,,,,,,,,,,,,,,,6431.255141600035,None,,,,,,,,,,,,,,,,,platform,158,13,sing,new,null,6428.00211329991,None,6428.00211329991,None,6,1.624044000171125,6428.00211329991,None,1.624044000171125,6429.654880799819,None,6430.1595433000475,None,6430.1595433000475,None,r,1.0747050000354648,6430.1595433000475,None,1.0747050000354648,,,66 Sing,001,2022_Oct_25_1457,ProdSingRedoBetween,2021.2.3,59.414246872427526,
,,,,13,0,13,0,,,,,,,,,,,,,,,,,,,,,,6435.059107800014,None,,,,,,,,,,,,,,,,,dream,153,14,sing,new,null,6431.762217599899,None,6431.762217599899,None,6,1.5760635999031365,6431.762217599899,None,1.5760635999031365,6433.357347599696,None,6433.862509099767,None,6433.862509099767,None,r,1.171744399704039,6433.862509099767,None,1.171744399704039,,,66 Sing,001,2022_Oct_25_1457,ProdSingRedoBetween,2021.2.3,59.414246872427526,
,,,,14,0,14,0,,,,,,,,,,,,,,,,,,,,,,6439.163209800143,None,,,,,,,,,,,,,,,,,commercial,142,15,sing,new,null,6435.569563999772,None,6435.569563999772,None,5,1.8166792001575232,6435.569563999772,None,1.8166792001575232,6437.412584600039,None,6437.915783499833,None,6437.915783499833,None,r,1.2224591998383403,6437.915783499833,None,1.2224591998383403,,,66 Sing,001,2022_Oct_25_1457,ProdSingRedoBetween,2021.2.3,59.414246872427526,
,,,,15,0,15,0,,,,,,,,,,,,,,,,,,,,,,6443.551056199707,None,,,,,,,,,,,,,,,,,native,125,16,sing,new,null,6439.672021999955,None,6439.672021999955,None,6,1.4982042000629008,6439.672021999955,None,1.4982042000629008,6441.199994000141,None,6441.7051762999035,None,6441.7051762999035,None,f,1.824913500342518,6441.7051762999035,None,1.824913500342518,,,66 Sing,001,2022_Oct_25_1457,ProdSingRedoBetween,2021.2.3,59.414246872427526,
,,,,16,0,16,0,,,,,,,,,,,,,,,,,,,,,,6447.354745400138,None,,,,,,,,,,,,,,,,,revolution,22,17,sing,old,yellow,6444.059985700063,None,6444.059985700063,None,5,1.486209999769926,6444.059985700063,None,1.486209999769926,6445.571488100104,None,6446.093097599689,None,6446.093097599689,None,f,1.237023000139743,6446.093097599689,None,1.237023000139743,,,66 Sing,001,2022_Oct_25_1457,ProdSingRedoBetween,2021.2.3,59.414246872427526,
,,,,17,0,17,0,,,,,,,,,,,,,,,,,,,,,,6451.35861320002,None,,,,,,,,,,,,,,,,,interview,110,18,sing,new,null,6447.870880799834,None,6447.870880799834,None,6,1.7713724998757243,6447.870880799834,None,1.7713724998757243,6449.678223100025,None,6450.198751099873,None,6450.198751099873,None,r,1.1314904000610113,6450.198751099873,None,1.1314904000610113,,,66 Sing,001,2022_Oct_25_1457,ProdSingRedoBetween,2021.2.3,59.414246872427526,
,,,,18,0,18,0,,,,,,,,,,,,,,,,,,,,,,6455.329225599766,None,,,,,,,,,,,,,,,,,worker,76,19,sing,old,red,6451.862439800054,None,6451.862439800054,None,6,1.419763999991119,6451.862439800054,None,1.419763999991119,6453.313922199886,None,6453.827676599845,None,6453.827676599845,None,f,1.48650970030576,6453.827676599845,None,1.48650970030576,,,66 Sing,001,2022_Oct_25_1457,ProdSingRedoBetween,2021.2.3,59.414246872427526,
,,,,19,0,19,0,,,,,,,,,,,,,,,,,,,,,,6460.723570799921,None,,,,,,,,,,,,,,,,,light,174,20,sing,new,null,6455.836438199971,None,6455.836438199971,None,6,1.781774700153619,6455.836438199971,None,1.781774700153619,6457.650860799942,None,6458.165525199845,None,6458.165525199845,None,r,2.5327498000115156,6458.165525199845,None,2.5327498000115156,,,66 Sing,001,2022_Oct_25_1457,ProdSingRedoBetween,2021.2.3,59.414246872427526,
,,,,20,0,20,0,,,,,,,,,,,,,,,,,,,,,,6464.892706300132,None,,,,,,,,,,,,,,,,,crisis,37,21,sing,old,blue,6461.242054400034,None,6461.242054400034,None,6,2.0960510997101665,6461.242054400034,None,2.0960510997101665,6463.3554535000585,None,6463.860363099724,None,6463.860363099724,None,r,0.9978873003274202,6463.860363099724,None,0.9978873003274202,,,66 Sing,001,2022_Oct_25_1457,ProdSingRedoBetween,2021.2.3,59.414246872427526,
,,,,21,0,21,0,,,,,,,,,,,,,,,,,,,,,,6470.845673399977,None,,,,,,,,,,,,,,,,,touch,44,22,sing,old,blue,6465.406399399973,None,6465.406399399973,None,6,3.6277793999761343,6465.406399399973,None,3.6277793999761343,6469.061378600076,None,6469.576932800002,None,6469.576932800002,None,r,1.2413302003405988,6469.576932800002,None,1.2413302003405988,,,66 Sing,001,2022_Oct_25_1457,ProdSingRedoBetween,2021.2.3,59.414246872427526,
,,,,22,0,22,0,,,,,,,,,,,,,,,,,,,,,,6474.815429700073,None,,,,,,,,,,,,,,,,,leader,140,23,sing,new,null,6471.351087799761,None,6471.351087799761,None,6,1.5390456998720765,6471.351087799761,None,1.5390456998720765,6472.9132290999405,None,6473.4182064998895,None,6473.4182064998895,None,f,1.368024599738419,6473.4182064998895,None,1.368024599738419,,,66 Sing,001,2022_Oct_25_1457,ProdSingRedoBetween,2021.2.3,59.414246872427526,
,,,,23,0,23,0,,,,,,,,,,,,,,,,,,,,,,6478.118651399855,None,,,,,,,,,,,,,,,,,damage,17,24,sing,old,yellow,6475.323194100056,None,6475.323194100056,None,6,1.4469063999131322,6475.323194100056,None,1.4469063999131322,6476.806315999944,None,6477.317943200003,None,6477.317943200003,None,r,0.7801935002207756,6477.317943200003,None,0.7801935002207756,,,66 Sing,001,2022_Oct_25_1457,ProdSingRedoBetween,2021.2.3,59.414246872427526,
,,,,24,0,24,0,,,,,,,,,,,,,,,,,,,,,,6483.257078499999,None,,,,,,,,,,,,,,,,,turkey,133,25,sing,new,null,6478.626961799804,None,6478.626961799804,None,6,1.623269600328058,6478.626961799804,None,1.623269600328058,6480.27702589985,None,6480.788078399841,None,6480.788078399841,None,r,2.4462143001146615,6480.788078399841,None,2.4462143001146615,,,66 Sing,001,2022_Oct_25_1457,ProdSingRedoBetween,2021.2.3,59.414246872427526,
,,,,25,0,25,0,,,,,,,,,,,,,,,,,,,,,,6488.833989299834,None,,,,,,,,,,,,,,,,,course,86,26,sing,old,red,6483.760449799709,None,6483.760449799709,None,4,2.617673400323838,6483.760449799709,None,2.617673400323838,6486.395123099908,None,6486.902245400008,None,6486.902245400008,None,n,1.8998314002528787,6486.902245400008,None,1.8998314002528787,,,66 Sing,001,2022_Oct_25_1457,ProdSingRedoBetween,2021.2.3,59.414246872427526,
,,,,26,0,26,0,,,,,,,,,,,,,,,,,,,,,,6492.334032499697,None,,,,,,,,,,,,,,,,,music,50,27,sing,old,blue,6489.346625499893,None,6489.346625499893,None,6,1.6154045998118818,6489.346625499893,None,1.6154045998118818,6490.998973200098,None,6491.50145420013,None,6491.50145420013,None,r,0.8127616001293063,6491.50145420013,None,0.8127616001293063,,,66 Sing,001,2022_Oct_25_1457,ProdSingRedoBetween,2021.2.3,59.414246872427526,
,,,,27,0,27,0,,,,,,,,,,,,,,,,,,,,,,6496.687155500054,None,,,,,,,,,,,,,,,,,income,151,28,sing,new,null,6492.835524899885,None,6492.835524899885,None,6,1.3025560001842678,6492.835524899885,None,1.3025560001842678,6494.168548899703,None,6494.681667299941,None,6494.681667299941,None,r,1.9764804001897573,6494.681667299941,None,1.9764804001897573,,,66 Sing,001,2022_Oct_25_1457,ProdSingRedoBetween,2021.2.3,59.414246872427526,
,,,,28,0,28,0,,,,,,,,,,,,,,,,,,,,,,6500.74119939981,None,,,,,,,,,,,,,,,,,brief,99,29,sing,new,null,6497.1961679998785,None,6497.1961679998785,None,5,1.677892199717462,6497.1961679998785,None,1.677892199717462,6498.891020500101,None,6499.393294800073,None,6499.393294800073,None,r,1.3287959001027048,6499.393294800073,None,1.3287959001027048,,,66 Sing,001,2022_Oct_25_1457,ProdSingRedoBetween,2021.2.3,59.414246872427526,
,,,,29,0,29,0,,,,,,,,,,,,,,,,,,,,,,6504.895131200086,None,,,,,,,,,,,,,,,,,clean,120,30,sing,new,null,6501.244203899987,None,6501.244203899987,None,5,2.03788820002228,6501.244203899987,None,2.03788820002228,6503.316895099822,None,6503.828863899689,None,6503.828863899689,None,r,1.0452799000777304,6503.828863899689,None,1.0452799000777304,,,66 Sing,001,2022_Oct_25_1457,ProdSingRedoBetween,2021.2.3,59.414246872427526,
,,,,30,0,30,0,,,,,,,,,,,,,,,,,,,,,,6508.500381200109,None,,,,,,,,,,,,,,,,,still,2,31,sing,old,yellow,6505.3984408001415,None,6505.3984408001415,None,6,1.5555603997781873,6505.3984408001415,None,1.5555603997781873,6506.98614409985,None,6507.497938599903,None,6507.497938599903,None,f,0.9845258998684585,6507.497938599903,None,0.9845258998684585,,,66 Sing,001,2022_Oct_25_1457,ProdSingRedoBetween,2021.2.3,59.414246872427526,
,,,,31,0,31,0,,,,,,,,,,,,,,,,,,,,,,6512.653070599772,None,,,,,,,,,,,,,,,,,empty,127,32,sing,new,null,6509.004803299904,None,6509.004803299904,None,6,1.6212813002057374,6509.004803299904,None,1.6212813002057374,6510.652503800113,None,6511.15871049976,None,6511.15871049976,None,r,1.4672802002169192,6511.15871049976,None,1.4672802002169192,,,66 Sing,001,2022_Oct_25_1457,ProdSingRedoBetween,2021.2.3,59.414246872427526,
,,,,32,0,32,0,,,,,,,,,,,,,,,,,,,,,,6515.956972999964,None,,,,,,,,,,,,,,,,,medicine,178,33,sing,new,null,6513.15618930012,None,6513.15618930012,None,6,1.445870699826628,6513.15618930012,None,1.445870699826628,6514.621520599816,None,6515.1350858998485,None,6515.1350858998485,None,r,0.794949600007385,6515.1350858998485,None,0.794949600007385,,,66 Sing,001,2022_Oct_25_1457,ProdSingRedoBetween,2021.2.3,59.414246872427526,
,,,,33,0,33,0,,,,,,,,,,,,,,,,,,,,,,6521.1448739999905,None,,,,,,,,,,,,,,,,,search,156,34,sing,new,null,6516.474232299719,None,6516.474232299719,None,6,2.6556983003392816,6516.474232299719,None,2.6556983003392816,6519.159515699837,None,6519.660101199988,None,6519.660101199988,None,r,1.4699630001559854,6519.660101199988,None,1.4699630001559854,,,66 Sing,001,2022_Oct_25_1457,ProdSingRedoBetween,2021.2.3,59.414246872427526,
,,,,34,0,34,0,,,,,,,,,,,,,,,,,,,,,,6524.264694499783,None,,,,,,,,,,,,,,,,,write,164,35,sing,new,null,6521.657090600114,None,6521.657090600114,None,6,1.064982600044459,6521.657090600114,None,1.064982600044459,6522.749853899702,None,6523.266428699717,None,6523.266428699717,None,r,0.975760200060904,6523.266428699717,None,0.975760200060904,,,66 Sing,001,2022_Oct_25_1457,ProdSingRedoBetween,2021.2.3,59.414246872427526,
,,,,35,0,35,0,,,,,,,,,,,,,,,,,,,,,,6527.851371800061,None,,,,,,,,,,,,,,,,,portion,0,36,sing,old,yellow,6524.77330989996,None,6524.77330989996,None,5,1.476794899906963,6524.77330989996,None,1.476794899906963,6526.270184699912,None,6526.7839870997705,None,6526.7839870997705,None,r,1.0420623999089003,6526.7839870997705,None,1.0420623999089003,,,66 Sing,001,2022_Oct_25_1457,ProdSingRedoBetween,2021.2.3,59.414246872427526,
,,,,36,0,36,0,,,,,,,,,,,,,,,,,,,,,,6533.307028700132,None,,,,,,,,,,,,,,,,,watch,129,37,sing,new,null,6528.354551599827,None,6528.354551599827,None,5,1.9674706999212503,6528.354551599827,None,1.9674706999212503,6530.338693100028,None,6530.845870099962,None,6530.845870099962,None,f,2.44409570004791,6530.845870099962,None,2.44409570004791,,,66 Sing,001,2022_Oct_25_1457,ProdSingRedoBetween,2021.2.3,59.414246872427526,
,,,,37,0,37,0,,,,,,,,,,,,,,,,,,,,,,6536.810546599794,None,,,,,,,,,,,,,,,,,surprise,101,38,sing,new,null,6533.8129586,None,6533.8129586,None,5,1.8690462000668049,6533.8129586,None,1.8690462000668049,6535.711727099959,None,6536.231722400058,None,6536.231722400058,None,f,0.5622328999452293,6536.231722400058,None,0.5622328999452293,,,66 Sing,001,2022_Oct_25_1457,ProdSingRedoBetween,2021.2.3,59.414246872427526,
,,,,38,0,38,0,,,,,,,,,,,,,,,,,,,,,,6540.047937999945,None,,,,,,,,,,,,,,,,,front,179,39,sing,new,null,6537.311640100088,None,6537.311640100088,None,6,1.1944019999355078,6537.311640100088,None,1.1944019999355078,6538.5304461997,None,6539.033981800079,None,6539.033981800079,None,r,0.9842145000584424,6539.033981800079,None,0.9842145000584424,,,66 Sing,001,2022_Oct_25_1457,ProdSingRedoBetween,2021.2.3,59.414246872427526,
,,,,39,0,39,0,,,,,,,,,,,,,,,,,,,,,,6543.533689300064,None,,,,,,,,,,,,,,,,,force,62,40,sing,old,red,6540.558607599698,None,6540.558607599698,None,6,2.0354066002182662,6540.558607599698,None,2.0354066002182662,6542.617693699896,None,6543.121957399882,None,6543.121957399882,None,f,0.3920976002700627,6543.121957399882,None,0.3920976002700627,,,66 Sing,001,2022_Oct_25_1457,ProdSingRedoBetween,2021.2.3,59.414246872427526,
,,,,40,0,40,0,,,,,,,,,,,,,,,,,,,,,,6546.720338399988,None,,,,,,,,,,,,,,,,,series,91,41,sing,new,null,6544.036652599927,None,6544.036652599927,None,6,1.717337400186807,6544.036652599927,None,1.717337400186807,6545.770588699728,None,6546.270049399696,None,6546.270049399696,None,r,0.42816250026226044,6546.270049399696,None,0.42816250026226044,,,66 Sing,001,2022_Oct_25_1457,ProdSingRedoBetween,2021.2.3,59.414246872427526,
,,,,41,0,41,0,,,,,,,,,,,,,,,,,,,,,,6549.656676500104,None,,,,,,,,,,,,,,,,,account,150,42,sing,new,null,6547.2238320996985,None,6547.2238320996985,None,6,1.3703136998228729,6547.2238320996985,None,1.3703136998228729,6548.629236499779,None,6549.1457613999955,None,6549.1457613999955,None,r,0.4801179002970457,6549.1457613999955,None,0.4801179002970457,,,66 Sing,001,2022_Oct_25_1457,ProdSingRedoBetween,2021.2.3,59.414246872427526,
,,,,42,0,42,0,,,,,,,,,,,,,,,,,,,,,,6554.094481099863,None,,,,,,,,,,,,,,,,,appearance,25,43,sing,old,yellow,6550.159481399693,None,6550.159481399693,None,6,2.082496500108391,6550.159481399693,None,2.082496500108391,6552.260826699901,None,6552.770141299814,None,6552.770141299814,None,r,1.3038456998765469,6552.770141299814,None,1.3038456998765469,,,66 Sing,001,2022_Oct_25_1457,ProdSingRedoBetween,2021.2.3,59.414246872427526,
,,,,43,0,43,0,,,,,,,,,,,,,,,,,,,,,,6557.89818280004,None,,,,,,,,,,,,,,,,,design,134,44,sing,new,null,6554.609210100025,None,6554.609210100025,None,5,1.4568634000606835,6554.609210100025,None,1.4568634000606835,6556.096418399829,None,6556.600870300084,None,6556.600870300084,None,f,1.2732906001619995,6556.600870300084,None,1.2732906001619995,,,66 Sing,001,2022_Oct_25_1457,ProdSingRedoBetween,2021.2.3,59.414246872427526,
,,,,44,0,44,0,,,,,,,,,,,,,,,,,,,,,,6561.86891430011,None,,,,,,,,,,,,,,,,,sound,13,45,sing,old,yellow,6558.409316199832,None,6558.409316199832,None,6,1.5606708000414073,6558.409316199832,None,1.5606708000414073,6560.002252399921,None,6560.5176002997905,None,6560.5176002997905,None,r,1.3244847999885678,6560.5176002997905,None,1.3244847999885678,,,66 Sing,001,2022_Oct_25_1457,ProdSingRedoBetween,2021.2.3,59.414246872427526,
,,,,45,0,45,0,,,,,,,,,,,,,,,,,,,,,,6566.173140199855,None,,,,,,,,,,,,,,,,,shear,116,46,sing,new,null,6562.375689799897,None,6562.375689799897,None,5,2.3941904003731906,6562.375689799897,None,2.3941904003731906,6564.789818000048,None,6565.290292299818,None,6565.290292299818,None,f,0.8637027000077069,6565.290292299818,None,0.8637027000077069,,,66 Sing,001,2022_Oct_25_1457,ProdSingRedoBetween,2021.2.3,59.414246872427526,
,,,,46,0,46,0,,,,,,,,,,,,,,,,,,,,,,6569.7765879998915,None,,,,,,,,,,,,,,,,,congress,36,47,sing,old,blue,6566.678192699794,None,6566.678192699794,None,5,1.4597848998382688,6566.678192699794,None,1.4597848998382688,6568.16010749992,None,6568.666064799763,None,6568.666064799763,None,f,1.0959286000579596,6568.666064799763,None,1.0959286000579596,,,66 Sing,001,2022_Oct_25_1457,ProdSingRedoBetween,2021.2.3,59.414246872427526,
,,,,47,0,47,0,,,,,,,,,,,,,,,,,,,,,,6574.3646475998685,None,,,,,,,,,,,,,,,,,express,61,48,sing,old,red,6570.284742000047,None,6570.284742000047,None,5,2.421224999707192,6570.284742000047,None,2.421224999707192,6572.731337899808,None,6573.23689669976,None,6573.23689669976,None,f,1.1010115002281964,6573.23689669976,None,1.1010115002281964,,,66 Sing,001,2022_Oct_25_1457,ProdSingRedoBetween,2021.2.3,59.414246872427526,
,,,,48,0,48,0,,,,,,,,,,,,,,,,,,,,,,6578.812562299892,None,,,,,,,,,,,,,,,,,government,67,49,sing,old,red,6574.876923900098,None,6574.876923900098,None,6,2.8530399999581277,6574.876923900098,None,2.8530399999581277,6577.752861000132,None,6578.25621030014,None,6578.25621030014,None,r,0.5216771997511387,6578.25621030014,None,0.5216771997511387,,,66 Sing,001,2022_Oct_25_1457,ProdSingRedoBetween,2021.2.3,59.414246872427526,
,,,,49,0,49,0,,,,,,,,,,,,,,,,,,,,,,6582.2572570000775,None,,,,,,,,,,,,,,,,,tennis,90,50,sing,new,null,6579.324553399812,None,6579.324553399812,None,6,1.2935016001574695,6579.324553399812,None,1.2935016001574695,6580.645110900048,None,6581.154879000038,None,6581.154879000038,None,f,1.079101599752903,6581.154879000038,None,1.079101599752903,,,66 Sing,001,2022_Oct_25_1457,ProdSingRedoBetween,2021.2.3,59.414246872427526,
,,,,50,0,50,0,,,,,,,,,,,,,,,,,,,,,,6586.259899899829,None,,,,,,,,,,,,,,,,,cross,63,51,sing,old,red,6582.761440599803,None,6582.761440599803,None,5,2.2565081999637187,6582.761440599803,None,2.2565081999637187,6585.043690700084,None,6585.548396799713,None,6585.548396799713,None,f,0.6934838001616299,6585.548396799713,None,0.6934838001616299,,,66 Sing,001,2022_Oct_25_1457,ProdSingRedoBetween,2021.2.3,59.414246872427526,
,,,,51,0,51,0,,,,,,,,,,,,,,,,,,,,,,6589.613145099953,None,,,,,,,,,,,,,,,,,broad,169,52,sing,new,null,6586.765901399776,None,6586.765901399776,None,6,1.4761010999791324,6586.765901399776,None,1.4761010999791324,6588.26504800003,None,6588.7807907001115,None,6588.7807907001115,None,f,0.8051145998761058,6588.7807907001115,None,0.8051145998761058,,,66 Sing,001,2022_Oct_25_1457,ProdSingRedoBetween,2021.2.3,59.414246872427526,
,,,,52,0,52,0,,,,,,,,,,,,,,,,,,,,,,6593.467106199823,None,,,,,,,,,,,,,,,,,figure,88,53,sing,old,red,6590.123250799719,None,6590.123250799719,None,6,1.76670530019328,6590.123250799719,None,1.76670530019328,6591.916924399789,None,6592.424690600019,None,6592.424690600019,None,f,1.0172475003637373,6592.424690600019,None,1.0172475003637373,,,66 Sing,001,2022_Oct_25_1457,ProdSingRedoBetween,2021.2.3,59.414246872427526,
,,,,53,0,53,0,,,,,,,,,,,,,,,,,,,,,,6596.469858400058,None,,,,,,,,,,,,,,,,,election,95,54,sing,new,null,6593.973993800115,None,6593.973993800115,None,6,1.1959620998241007,6593.973993800115,None,1.1959620998241007,6595.189775200095,None,6595.702547799796,None,6595.702547799796,None,r,0.747251299675554,6595.702547799796,None,0.747251299675554,,,66 Sing,001,2022_Oct_25_1457,ProdSingRedoBetween,2021.2.3,59.414246872427526,
,,,,54,0,54,0,,,,,,,,,,,,,,,,,,,,,,6601.992360699922,None,,,,,,,,,,,,,,,,,cover,43,55,sing,old,blue,6596.974877499975,None,6596.974877499975,None,4,2.9469830999150872,6596.974877499975,None,2.9469830999150872,6599.942305400036,None,6600.469971599989,None,6600.469971599989,None,f,1.4919378003105521,6600.469971599989,None,1.4919378003105521,,,66 Sing,001,2022_Oct_25_1457,ProdSingRedoBetween,2021.2.3,59.414246872427526,
,,,,55,0,55,0,,,,,,,,,,,,,,,,,,,,,,6605.846099500079,None,,,,,,,,,,,,,,,,,majority,109,56,sing,new,null,6602.505527199712,None,6602.505527199712,None,6,1.8803920997306705,6602.505527199712,None,1.8803920997306705,6604.414099100046,None,6604.936287499964,None,6604.936287499964,None,r,0.8896294999867678,6604.936287499964,None,0.8896294999867678,,,66 Sing,001,2022_Oct_25_1457,ProdSingRedoBetween,2021.2.3,59.414246872427526,
,,,,56,0,56,0,,,,,,,,,,,,,,,,,,,,,,6609.466302999761,None,,,,,,,,,,,,,,,,,welcome,38,57,sing,old,blue,6606.357417199761,None,6606.357417199761,None,6,1.3644385002553463,6606.357417199761,None,1.3644385002553463,6607.749487000052,None,6608.252693200018,None,6608.252693200018,None,f,1.1892487001605332,6608.252693200018,None,1.1892487001605332,,,66 Sing,001,2022_Oct_25_1457,ProdSingRedoBetween,2021.2.3,59.414246872427526,
,,,,57,0,57,0,,,,,,,,,,,,,,,,,,,,,,6613.804008000065,None,,,,,,,,,,,,,,,,,reach,54,58,sing,old,blue,6609.975241799839,None,6609.975241799839,None,6,2.4507574001327157,6609.975241799839,None,2.4507574001327157,6612.456012899987,None,6612.970509999897,None,6612.970509999897,None,f,0.8072802997194231,6612.970509999897,None,0.8072802997194231,,,66 Sing,001,2022_Oct_25_1457,ProdSingRedoBetween,2021.2.3,59.414246872427526,
,,,,58,0,58,0,,,,,,,,,,,,,,,,,,,,,,6619.092550799716,None,,,,,,,,,,,,,,,,,charter,172,59,sing,new,null,6614.313596399967,None,6614.313596399967,None,4,2.4965480999089777,6614.313596399967,None,2.4965480999089777,6616.849748299923,None,6617.360690900125,None,6617.360690900125,None,n,1.7051658001728356,6617.360690900125,None,1.7051658001728356,,,66 Sing,001,2022_Oct_25_1457,ProdSingRedoBetween,2021.2.3,59.414246872427526,
,,,,59,0,59,0,,,,,,,,,,,,,,,,,,,,,,6623.613745300099,None,,,,,,,,,,,,,,,,,audience,124,60,sing,new,null,6619.593322999775,None,6619.593322999775,None,6,2.6165725998580456,6619.593322999775,None,2.6165725998580456,6622.230111300014,None,6622.734784499742,None,6622.734784499742,None,r,0.8590975999832153,6622.734784499742,None,0.8590975999832153,,,66 Sing,001,2022_Oct_25_1457,ProdSingRedoBetween,2021.2.3,59.414246872427526,
,,,,60,0,60,0,,,,,,,,,,,,,,,,,,,,,,6627.134008000139,None,,,,,,,,,,,,,,,,,general,123,61,sing,new,null,6624.117819199804,None,6624.117819199804,None,5,1.9480270999483764,6624.117819199804,None,1.9480270999483764,6626.084733199794,None,6626.600081299897,None,6626.600081299897,None,f,0.5137159996666014,6626.600081299897,None,0.5137159996666014,,,66 Sing,001,2022_Oct_25_1457,ProdSingRedoBetween,2021.2.3,59.414246872427526,
,,,,61,0,61,0,,,,,,,,,,,,,,,,,,,,,,6632.289119299967,None,,,,,,,,,,,,,,,,,murder,107,62,sing,new,null,6627.636682800017,None,6627.636682800017,None,5,2.845185600221157,6627.636682800017,None,2.845185600221157,6630.505219699815,None,6631.009302099701,None,6631.009302099701,None,n,1.248631099704653,6631.009302099701,None,1.248631099704653,,,66 Sing,001,2022_Oct_25_1457,ProdSingRedoBetween,2021.2.3,59.414246872427526,
,,,,62,0,62,0,,,,,,,,,,,,,,,,,,,,,,6637.594357700087,None,,,,,,,,,,,,,,,,,thing,56,63,sing,old,blue,6632.796398499981,None,6632.796398499981,None,5,3.397454099729657,6632.796398499981,None,3.397454099729657,6636.209383899812,None,6636.712207799777,None,6636.712207799777,None,r,0.8577253995463252,6636.712207799777,None,0.8577253995463252,,,66 Sing,001,2022_Oct_25_1457,ProdSingRedoBetween,2021.2.3,59.414246872427526,
,,,,63,0,63,0,,,,,,,,,,,,,,,,,,,,,,6641.766308899969,None,,,,,,,,,,,,,,,,,universal,130,64,sing,new,null,6638.099057199899,None,6638.099057199899,None,6,1.7827920001000166,6638.099057199899,None,1.7827920001000166,6639.899513499811,None,6640.418211099692,None,6640.418211099692,None,f,1.3197421999648213,6640.418211099692,None,1.3197421999648213,,,66 Sing,001,2022_Oct_25_1457,ProdSingRedoBetween,2021.2.3,59.414246872427526,
,,,,64,0,64,0,,,,,,,,,,,,,,,,,,,,,,6644.821631299797,None,,,,,,,,,,,,,,,,,rough,128,65,sing,new,null,6642.273658900056,None,6642.273658900056,None,6,1.2642309996299446,6642.273658900056,None,1.2642309996299446,6643.568408799823,None,6644.07310950011,None,6644.07310950011,None,r,0.7287877001799643,6644.07310950011,None,0.7287877001799643,,,66 Sing,001,2022_Oct_25_1457,ProdSingRedoBetween,2021.2.3,59.414246872427526,
,,,,65,0,65,0,,,,,,,,,,,,,,,,,,,,,,6651.574807500001,None,,,,,,,,,,,,,,,,,material,4,66,sing,old,yellow,6645.345230999868,None,6645.345230999868,None,5,4.168519999831915,6645.345230999868,None,4.168519999831915,6649.54307470005,None,6650.056890400127,None,6650.056890400127,None,r,1.4890006999485195,6650.056890400127,None,1.4890006999485195,,,66 Sing,001,2022_Oct_25_1457,ProdSingRedoBetween,2021.2.3,59.414246872427526,
,,,,66,0,66,0,,,,,,,,,,,,,,,,,,,,,,6656.2964031999,None,,,,,,,,,,,,,,,,,clear,15,67,sing,old,yellow,6652.087253499776,None,6652.087253499776,None,5,2.2745408001355827,6652.087253499776,None,2.2745408001355827,6654.386664499994,None,6654.894917699974,None,6654.894917699974,None,r,1.370897900313139,6654.894917699974,None,1.370897900313139,,,66 Sing,001,2022_Oct_25_1457,ProdSingRedoBetween,2021.2.3,59.414246872427526,
,,,,67,0,67,0,,,,,,,,,,,,,,,,,,,,,,6660.133415099699,None,,,,,,,,,,,,,,,,,resistance,84,68,sing,old,red,6656.796844100114,None,6656.796844100114,None,5,1.2529008002020419,6656.796844100114,None,1.2529008002020419,6658.065336599946,None,6658.565535099711,None,6658.565535099711,None,f,1.5482000997290015,6658.565535099711,None,1.5482000997290015,,,66 Sing,001,2022_Oct_25_1457,ProdSingRedoBetween,2021.2.3,59.414246872427526,
,,,,68,0,68,0,,,,,,,,,,,,,,,,,,,,,,6663.336715199985,None,,,,,,,,,,,,,,,,,goose,73,69,sing,old,red,6660.6444242997095,None,6660.6444242997095,None,5,1.181404999922961,6660.6444242997095,None,1.181404999922961,6661.859568200074,None,6662.3733858997,None,6662.3733858997,None,r,0.9484043000265956,6662.3733858997,None,0.9484043000265956,,,66 Sing,001,2022_Oct_25_1457,ProdSingRedoBetween,2021.2.3,59.414246872427526,
,,,,69,0,69,0,,,,,,,,,,,,,,,,,,,,,,6666.656669399701,None,,,,,,,,,,,,,,,,,pancakes,77,70,sing,old,red,6663.837425899692,None,6663.837425899692,None,6,1.1645027003251016,6663.837425899692,None,1.1645027003251016,6665.02670980012,None,6665.54074080009,None,6665.54074080009,None,r,1.0930734002031386,6665.54074080009,None,1.0930734002031386,,,66 Sing,001,2022_Oct_25_1457,ProdSingRedoBetween,2021.2.3,59.414246872427526,
,,,,70,0,70,0,,,,,,,,,,,,,,,,,,,,,,6672.679424799979,None,,,,,,,,,,,,,,,,,finance,160,71,sing,new,null,6667.169928299729,None,6667.169928299729,None,5,3.6799215003848076,6667.169928299729,None,3.6799215003848076,6670.883661899716,None,6671.394899299834,None,6671.394899299834,None,r,1.2628905000165105,6671.394899299834,None,1.2628905000165105,,,66 Sing,001,2022_Oct_25_1457,ProdSingRedoBetween,2021.2.3,59.414246872427526,
,,,,71,0,71,0,,,,,,,,,,,,,,,,,,,,,,6677.117115200032,None,,,,,,,,,,,,,,,,,detective,7,72,sing,old,yellow,6673.1821730998345,None,6673.1821730998345,None,6,1.9956228998489678,6673.1821730998345,None,1.9956228998489678,6675.200074499939,None,6675.706830499694,None,6675.706830499694,None,f,1.3909753002226353,6675.706830499694,None,1.3909753002226353,,,66 Sing,001,2022_Oct_25_1457,ProdSingRedoBetween,2021.2.3,59.414246872427526,
,,,,72,0,72,0,,,,,,,,,,,,,,,,,,,,,,6680.236891400069,None,,,,,,,,,,,,,,,,,military,70,73,sing,old,red,6677.619645299856,None,6677.619645299856,None,6,1.2783106002025306,6677.619645299856,None,1.2783106002025306,6678.919629999902,None,6679.419544499833,None,6679.419544499833,None,r,0.798246200196445,6679.419544499833,None,0.798246200196445,,,66 Sing,001,2022_Oct_25_1457,ProdSingRedoBetween,2021.2.3,59.414246872427526,
,,,,73,0,73,0,,,,,,,,,,,,,,,,,,,,,,6683.239888699725,None,,,,,,,,,,,,,,,,,recall,92,74,sing,new,null,6680.74071589997,None,6680.74071589997,None,6,1.1810265998356044,6680.74071589997,None,1.1810265998356044,6681.938612899743,None,6682.440037900116,None,6682.440037900116,None,r,0.7697647996246815,6682.440037900116,None,0.7697647996246815,,,66 Sing,001,2022_Oct_25_1457,ProdSingRedoBetween,2021.2.3,59.414246872427526,
,,,,74,0,74,0,,,,,,,,,,,,,,,,,,,,,,6687.076866699848,None,,,,,,,,,,,,,,,,,interior,81,75,sing,old,red,6683.740581799764,None,6683.740581799764,None,6,1.965192399919033,6683.740581799764,None,1.965192399919033,6685.726932500023,None,6686.22766229976,None,6686.22766229976,None,f,0.8300069998949766,6686.22766229976,None,0.8300069998949766,,,66 Sing,001,2022_Oct_25_1457,ProdSingRedoBetween,2021.2.3,59.414246872427526,
,,,,75,0,75,0,,,,,,,,,,,,,,,,,,,,,,6690.986381500028,None,,,,,,,,,,,,,,,,,report,11,76,sing,old,yellow,6687.579469799995,None,6687.579469799995,None,5,1.7263418002985418,6687.579469799995,None,1.7263418002985418,6689.3293046001345,None,6689.836012199987,None,6689.836012199987,None,r,1.1260226997546852,6689.836012199987,None,1.1260226997546852,,,66 Sing,001,2022_Oct_25_1457,ProdSingRedoBetween,2021.2.3,59.414246872427526,
,,,,76,0,76,0,,,,,,,,,,,,,,,,,,,,,,6694.200781799853,None,,,,,,,,,,,,,,,,,treatment,30,77,sing,old,blue,6691.498294699937,None,6691.498294699937,None,6,1.4234033999964595,6691.498294699937,None,1.4234033999964595,6692.949595199898,None,6693.449945800006,None,6693.449945800006,None,r,0.7198228002525866,6693.449945800006,None,0.7198228002525866,,,66 Sing,001,2022_Oct_25_1457,ProdSingRedoBetween,2021.2.3,59.414246872427526,
,,,,77,0,77,0,,,,,,,,,,,,,,,,,,,,,,6698.471626699902,None,,,,,,,,,,,,,,,,,carry,171,78,sing,new,null,6694.714490999933,None,6694.714490999933,None,6,1.087253499776125,6694.714490999933,None,1.087253499776125,6695.820397899952,None,6696.329832499847,None,6696.329832499847,None,r,2.111893500201404,6696.329832499847,None,2.111893500201404,,,66 Sing,001,2022_Oct_25_1457,ProdSingRedoBetween,2021.2.3,59.414246872427526,
,,,,78,0,78,0,,,,,,,,,,,,,,,,,,,,,,6701.458105599973,None,,,,,,,,,,,,,,,,,dance,60,79,sing,old,red,6698.973002600018,None,6698.973002600018,None,6,1.2846853998489678,6698.973002600018,None,1.2846853998489678,6700.2746127997525,None,6700.7783818999305,None,6700.7783818999305,None,r,0.6633450002409518,6700.7783818999305,None,0.6633450002409518,,,66 Sing,001,2022_Oct_25_1457,ProdSingRedoBetween,2021.2.3,59.414246872427526,
,,,,79,0,79,0,,,,,,,,,,,,,,,,,,,,,,6704.230942099821,None,,,,,,,,,,,,,,,,,motion,175,80,sing,new,null,6701.966068199836,None,6701.966068199836,None,6,1.1397029999643564,6701.966068199836,None,1.1397029999643564,6703.1273622997105,None,6703.630663599819,None,6703.630663599819,None,r,0.5712327999062836,6703.630663599819,None,0.5712327999062836,,,66 Sing,001,2022_Oct_25_1457,ProdSingRedoBetween,2021.2.3,59.414246872427526,
,,,,80,0,80,0,,,,,,,,,,,,,,,,,,,,,,6707.080353099853,None,,,,,,,,,,,,,,,,,bicycle,1,81,sing,old,yellow,6704.765240599867,None,6704.765240599867,None,6,1.1484770001843572,6704.765240599867,None,1.1484770001843572,6705.935374099761,None,6706.449281299952,None,6706.449281299952,None,r,0.6004852000623941,6706.449281299952,None,0.6004852000623941,,,66 Sing,001,2022_Oct_25_1457,ProdSingRedoBetween,2021.2.3,59.414246872427526,
,,,,81,0,81,0,,,,,,,,,,,,,,,,,,,,,,6710.717273199931,None,,,,,,,,,,,,,,,,,harmony,87,82,sing,old,red,6707.591750499792,None,6707.591750499792,None,6,1.7699886001646519,6707.591750499792,None,1.7699886001646519,6709.386701599695,None,6709.899901899975,None,6709.899901899975,None,f,0.7897617998532951,6709.899901899975,None,0.7897617998532951,,,66 Sing,001,2022_Oct_25_1457,ProdSingRedoBetween,2021.2.3,59.414246872427526,
,,,,82,0,82,0,,,,,,,,,,,,,,,,,,,,,,6715.2717442000285,None,,,,,,,,,,,,,,,,,burden,137,83,sing,new,null,6711.220874299761,None,6711.220874299761,None,6,2.6448492002673447,6711.220874299761,None,2.6448492002673447,6713.888088699896,None,6714.3876892998815,None,6714.3876892998815,None,r,0.8541371002793312,6714.3876892998815,None,0.8541371002793312,,,66 Sing,001,2022_Oct_25_1457,ProdSingRedoBetween,2021.2.3,59.414246872427526,
,,,,83,0,83,0,,,,,,,,,,,,,,,,,,,,,,6718.8420266001485,None,,,,,,,,,,,,,,,,,graduate,20,84,sing,old,yellow,6715.778802100103,None,6715.778802100103,None,5,1.9749106001108885,6715.778802100103,None,1.9749106001108885,6717.775444299914,None,6718.278896300122,None,6718.278896300122,None,f,0.5467194002121687,6718.278896300122,None,0.5467194002121687,,,66 Sing,001,2022_Oct_25_1457,ProdSingRedoBetween,2021.2.3,59.414246872427526,
,,,,84,0,84,0,,,,,,,,,,,,,,,,,,,,,,6722.829120699782,None,,,,,,,,,,,,,,,,,color,144,85,sing,new,null,6719.348929000087,None,6719.348929000087,None,6,2.1248110001906753,6719.348929000087,None,2.1248110001906753,6721.496830000076,None,6722.011991499923,None,6722.011991499923,None,r,0.7977781998924911,6722.011991499923,None,0.7977781998924911,,,66 Sing,001,2022_Oct_25_1457,ProdSingRedoBetween,2021.2.3,59.414246872427526,
,,,,85,0,85,0,,,,,,,,,,,,,,,,,,,,,,6725.415402499959,None,,,,,,,,,,,,,,,,,disease,117,86,sing,new,null,6723.341398899909,None,6723.341398899909,None,6,1.1643133000470698,6723.341398899909,None,1.1643133000470698,6724.531580399722,None,6725.036868199706,None,6725.036868199706,None,r,0.35675990022718906,6725.036868199706,None,0.35675990022718906,,,66 Sing,001,2022_Oct_25_1457,ProdSingRedoBetween,2021.2.3,59.414246872427526,
,,,,86,0,86,0,,,,,,,,,,,,,,,,,,,,,,6729.185661599971,None,,,,,,,,,,,,,,,,,smooth,47,87,sing,old,blue,6725.915755299851,None,6725.915755299851,None,6,1.1421274999156594,6725.915755299851,None,1.1421274999156594,6727.090255300049,None,6727.605852100067,None,6727.605852100067,None,r,1.555840500164777,6727.605852100067,None,1.555840500164777,,,66 Sing,001,2022_Oct_25_1457,ProdSingRedoBetween,2021.2.3,59.414246872427526,
,,,,87,0,87,0,,,,,,,,,,,,,,,,,,,,,,6734.340791299939,None,,,,,,,,,,,,,,,,,produce,165,88,sing,new,null,6729.690806100145,None,6729.690806100145,None,6,3.102967099752277,6729.690806100145,None,3.102967099752277,6732.831989400089,None,6733.339858599938,None,6733.339858599938,None,r,0.9818386998958886,6733.339858599938,None,0.9818386998958886,,,66 Sing,001,2022_Oct_25_1457,ProdSingRedoBetween,2021.2.3,59.414246872427526,
,,,,88,0,88,0,,,,,,,,,,,,,,,,,,,,,,6738.595091399737,None,,,,,,,,,,,,,,,,,edition,126,89,sing,new,null,6734.841481399722,None,6734.841481399722,None,5,1.704440000001341,6734.841481399722,None,1.704440000001341,6736.583727499936,None,6737.095424499828,None,6737.095424499828,None,r,1.474247599951923,6737.095424499828,None,1.474247599951923,,,66 Sing,001,2022_Oct_25_1457,ProdSingRedoBetween,2021.2.3,59.414246872427526,
,,,,89,0,89,0,,,,,,,,,,,,,,,,,,,,,,6743.099592300132,None,,,,,,,,,,,,,,,,,minor,104,90,sing,new,null,6739.096972200088,None,6739.096972200088,None,5,2.4887884999625385,6739.096972200088,None,2.4887884999625385,6741.617177399807,None,6742.132058300078,None,6742.132058300078,None,f,0.9416520996019244,6742.132058300078,None,0.9416520996019244,,,66 Sing,001,2022_Oct_25_1457,ProdSingRedoBetween,2021.2.3,59.414246872427526,
,,,,90,0,90,0,,,,,,,,,,,,,,,,,,,,,,6745.687172899954,None,,,,,,,,,,,,,,,,,bureau,135,91,sing,new,null,6743.601330199745,None,6743.601330199745,None,6,1.0803412003442645,6743.601330199745,None,1.0803412003442645,6744.701673899777,None,6745.207371899858,None,6745.207371899858,None,r,0.45833540009334683,6745.207371899858,None,0.45833540009334683,,,66 Sing,001,2022_Oct_25_1457,ProdSingRedoBetween,2021.2.3,59.414246872427526,
,,,,91,0,91,0,,,,,,,,,,,,,,,,,,,,,,6748.705414299853,None,,,,,,,,,,,,,,,,,point,14,92,sing,old,yellow,6746.205720100086,None,6746.205720100086,None,6,1.396091400180012,6746.205720100086,None,1.396091400180012,6747.622231800109,None,6748.131002699956,None,6748.131002699956,None,r,0.5587093001231551,6748.131002699956,None,0.5587093001231551,,,66 Sing,001,2022_Oct_25_1457,ProdSingRedoBetween,2021.2.3,59.414246872427526,
,,,,92,0,92,0,,,,,,,,,,,,,,,,,,,,,,6751.326279600151,None,,,,,,,,,,,,,,,,,service,157,93,sing,new,null,6749.2061594999395,None,6749.2061594999395,None,6,1.1396332997828722,6749.2061594999395,None,1.1396332997828722,6750.385185299907,None,6750.890771899838,None,6750.890771899838,None,r,0.4149016998708248,6750.890771899838,None,0.4149016998708248,,,66 Sing,001,2022_Oct_25_1457,ProdSingRedoBetween,2021.2.3,59.414246872427526,
,,,,93,0,93,0,,,,,,,,,,,,,,,,,,,,,,6754.928029600065,None,,,,,,,,,,,,,,,,,shape,106,94,sing,new,null,6751.841860699933,None,6751.841860699933,None,6,1.5439376002177596,6751.841860699933,None,1.5439376002177596,6753.409823299851,None,6753.915175199974,None,6753.915175199974,None,r,0.9825458996929228,6753.915175199974,None,0.9825458996929228,,,66 Sing,001,2022_Oct_25_1457,ProdSingRedoBetween,2021.2.3,59.414246872427526,
,,,,94,0,94,0,,,,,,,,,,,,,,,,,,,,,,6758.586056199856,None,,,,,,,,,,,,,,,,,character,72,95,sing,old,red,6755.431055199821,None,6755.431055199821,None,6,1.9707174999639392,6755.431055199821,None,1.9707174999639392,6757.434626299888,None,6757.947793699801,None,6757.947793699801,None,r,0.6139636002480984,6757.947793699801,None,0.6139636002480984,,,66 Sing,001,2022_Oct_25_1457,ProdSingRedoBetween,2021.2.3,59.414246872427526,
,,,,95,0,95,0,,,,,,,,,,,,,,,,,,,,,,6761.117534299847,None,,,,,,,,,,,,,,,,,afternoon,41,96,sing,old,blue,6759.10386630008,None,6759.10386630008,None,6,0.9617641000077128,6759.10386630008,None,0.9617641000077128,6760.0861728000455,None,6760.6073751999065,None,6760.6073751999065,None,r,0.4903437001630664,6760.6073751999065,None,0.4903437001630664,,,66 Sing,001,2022_Oct_25_1457,ProdSingRedoBetween,2021.2.3,59.414246872427526,
,,,,96,0,96,0,,,,,,,,,,,,,,,,,,,,,,6764.323476700112,None,,,,,,,,,,,,,,,,,primary,145,97,sing,new,null,6761.625770200044,None,6761.625770200044,None,6,1.0637457999400795,6761.625770200044,None,1.0637457999400795,6762.7235122998245,None,6763.236823900137,None,6763.236823900137,None,r,1.0608072998002172,6763.236823900137,None,1.0608072998002172,,,66 Sing,001,2022_Oct_25_1457,ProdSingRedoBetween,2021.2.3,59.414246872427526,
,,,,97,0,97,0,,,,,,,,,,,,,,,,,,,,,,6767.657570200041,None,,,,,,,,,,,,,,,,,direction,33,98,sing,old,blue,6764.838156600017,None,6764.838156600017,None,6,1.8833767999894917,6764.838156600017,None,1.8833767999894917,6766.741037500091,None,6767.241328000091,None,6767.241328000091,None,r,0.4002481997013092,6767.241328000091,None,0.4002481997013092,,,66 Sing,001,2022_Oct_25_1457,ProdSingRedoBetween,2021.2.3,59.414246872427526,
,,,,98,0,98,0,,,,,,,,,,,,,,,,,,,,,,6770.476623099763,None,,,,,,,,,,,,,,,,,mechanical,27,99,sing,old,yellow,6768.164243000094,None,6768.164243000094,None,6,1.2533776997588575,6768.164243000094,None,1.2533776997588575,6769.442281499971,None,6769.9494392997585,None,6769.9494392997585,None,f,0.5002176999114454,6769.9494392997585,None,0.5002176999114454,,,66 Sing,001,2022_Oct_25_1457,ProdSingRedoBetween,2021.2.3,59.414246872427526,
,,,,99,0,99,0,,,,,,,,,,,,,,,,,,,,,,6775.214953099843,None,,,,,,,,,,,,,,,,,background,31,100,sing,old,blue,6770.984626899939,None,6770.984626899939,None,6,2.656955000013113,6770.984626899939,None,2.656955000013113,6773.663476000074,None,6774.167839400005,None,6774.167839400005,None,r,1.0178600996732712,6774.167839400005,None,1.0178600996732712,,,66 Sing,001,2022_Oct_25_1457,ProdSingRedoBetween,2021.2.3,59.414246872427526,
,,,,100,0,100,0,,,,,,,,,,,,,,,,,,,,,,6778.935334499925,None,,,,,,,,,,,,,,,,,atmosphere,138,101,sing,new,null,6775.733104899991,None,6775.733104899991,None,6,1.516432199627161,6775.733104899991,None,1.516432199627161,6777.272099100053,None,6777.784061499871,None,6777.784061499871,None,f,1.1215931000187993,6777.784061499871,None,1.1215931000187993,,,66 Sing,001,2022_Oct_25_1457,ProdSingRedoBetween,2021.2.3,59.414246872427526,
,,,,101,0,101,0,,,,,,,,,,,,,,,,,,,,,,6781.654706399888,None,,,,,,,,,,,,,,,,,whole,79,102,sing,old,red,6779.439352499787,None,6779.439352499787,None,6,1.3142443001270294,6779.439352499787,None,1.3142443001270294,6780.774654899724,None,6781.290802299976,None,6781.290802299976,None,r,0.33489760011434555,6781.290802299976,None,0.33489760011434555,,,66 Sing,001,2022_Oct_25_1457,ProdSingRedoBetween,2021.2.3,59.414246872427526,
,,,,102,0,102,0,,,,,,,,,,,,,,,,,,,,,,6784.540974699892,None,,,,,,,,,,,,,,,,,committee,3,103,sing,old,yellow,6782.155368799809,None,6782.155368799809,None,6,1.2382466001436114,6782.155368799809,None,1.2382466001436114,6783.423665800132,None,6783.92499430012,None,6783.92499430012,None,r,0.5966447000391781,6783.92499430012,None,0.5966447000391781,,,66 Sing,001,2022_Oct_25_1457,ProdSingRedoBetween,2021.2.3,59.414246872427526,
,,,,103,0,103,0,,,,,,,,,,,,,,,,,,,,,,6789.912927299738,None,,,,,,,,,,,,,,,,,listen,52,104,sing,old,blue,6785.048997299746,None,6785.048997299746,None,6,3.6965258000418544,6785.048997299746,None,3.6965258000418544,6788.76184509974,None,6789.2710708999075,None,6789.2710708999075,None,r,0.6264425003901124,6789.2710708999075,None,0.6264425003901124,,,66 Sing,001,2022_Oct_25_1457,ProdSingRedoBetween,2021.2.3,59.414246872427526,
,,,,104,0,104,0,,,,,,,,,,,,,,,,,,,,,,6792.915967099834,None,,,,,,,,,,,,,,,,,title,108,105,sing,new,null,6790.4224338997155,None,6790.4224338997155,None,6,1.5232131998054683,6790.4224338997155,None,1.5232131998054683,6791.970603200141,None,6792.482158099767,None,6792.482158099767,None,r,0.40756830014288425,6792.482158099767,None,0.40756830014288425,,,66 Sing,001,2022_Oct_25_1457,ProdSingRedoBetween,2021.2.3,59.414246872427526,
,,,,105,0,105,0,,,,,,,,,,,,,,,,,,,,,,6795.868803599849,None,,,,,,,,,,,,,,,,,present,121,106,sing,new,null,6793.423663999885,None,6793.423663999885,None,6,1.4978525000624359,6793.423663999885,None,1.4978525000624359,6794.9606143999845,None,6795.46835329989,None,6795.46835329989,None,r,0.3731651999987662,6795.46835329989,None,0.3731651999987662,,,66 Sing,001,2022_Oct_25_1457,ProdSingRedoBetween,2021.2.3,59.414246872427526,
,,,,106,0,106,0,,,,,,,,,,,,,,,,,,,,,,6798.438098500017,None,,,,,,,,,,,,,,,,,institute,167,107,sing,new,null,6796.374481999781,None,6796.374481999781,None,5,1.1391928996890783,6796.374481999781,None,1.1391928996890783,6797.547672899906,None,6798.056604699697,None,6798.056604699697,None,r,0.35299669997766614,6798.056604699697,None,0.35299669997766614,,,66 Sing,001,2022_Oct_25_1457,ProdSingRedoBetween,2021.2.3,59.414246872427526,
,,,,107,0,107,0,,,,,,,,,,,,,,,,,,,,,,6801.441097899806,None,,,,,,,,,,,,,,,,,spoke,28,108,sing,old,yellow,6798.949425600003,None,6798.949425600003,None,6,1.5241459999233484,6798.949425600003,None,1.5241459999233484,6800.494483499788,None,6801.009972000029,None,6801.009972000029,None,r,0.41556370025500655,6801.009972000029,None,0.41556370025500655,,,66 Sing,001,2022_Oct_25_1457,ProdSingRedoBetween,2021.2.3,59.414246872427526,
,,,,108,0,108,0,,,,,,,,,,,,,,,,,,,,,,6804.360727099702,None,,,,,,,,,,,,,,,,,patient,93,109,sing,new,null,6801.945650899783,None,6801.945650899783,None,6,1.4799347999505699,6801.945650899783,None,1.4799347999505699,6803.450751899742,None,6803.960380299948,None,6803.960380299948,None,r,0.3851370997726917,6803.960380299948,None,0.3851370997726917,,,66 Sing,001,2022_Oct_25_1457,ProdSingRedoBetween,2021.2.3,59.414246872427526,
,,,,109,0,109,0,,,,,,,,,,,,,,,,,,,,,,6807.347136599943,None,,,,,,,,,,,,,,,,,century,5,110,sing,old,yellow,6804.871077999938,None,6804.871077999938,None,6,1.2983719003386796,6804.871077999938,None,1.2983719003386796,6806.197348400019,None,6806.697288400028,None,6806.697288400028,None,r,0.6241779001429677,6806.697288400028,None,0.6241779001429677,,,66 Sing,001,2022_Oct_25_1457,ProdSingRedoBetween,2021.2.3,59.414246872427526,
,,,,110,0,110,0,,,,,,,,,,,,,,,,,,,,,,6810.083028099965,None,,,,,,,,,,,,,,,,,machinery,51,111,sing,old,blue,6807.860807099845,None,6807.860807099845,None,6,1.2767272000201046,6807.860807099845,None,1.2767272000201046,6809.166621499695,None,6809.6715640998445,None,6809.6715640998445,None,r,0.39392410032451153,6809.6715640998445,None,0.39392410032451153,,,66 Sing,001,2022_Oct_25_1457,ProdSingRedoBetween,2021.2.3,59.414246872427526,
,,,,111,0,111,0,,,,,,,,,,,,,,,,,,,,,,6812.769625499845,None,,,,,,,,,,,,,,,,,angle,80,112,sing,old,red,6810.598290800117,None,6810.598290800117,None,5,1.1472428999841213,6810.598290800117,None,1.1472428999841213,6811.769260299858,None,6812.273850800004,None,6812.273850800004,None,r,0.4641106999479234,6812.273850800004,None,0.4641106999479234,,,66 Sing,001,2022_Oct_25_1457,ProdSingRedoBetween,2021.2.3,59.414246872427526,
,,,,112,0,112,0,,,,,,,,,,,,,,,,,,,,,,6816.861093499698,None,,,,,,,,,,,,,,,,,collection,35,113,sing,old,blue,6813.269685899839,None,6813.269685899839,None,5,1.9238593000918627,6813.269685899839,None,1.9238593000918627,6815.222148700152,None,6815.724022299983,None,6815.724022299983,None,f,1.1015559998340905,6815.724022299983,None,1.1015559998340905,,,66 Sing,001,2022_Oct_25_1457,ProdSingRedoBetween,2021.2.3,59.414246872427526,
,,,,113,0,113,0,,,,,,,,,,,,,,,,,,,,,,6819.892823399976,None,,,,,,,,,,,,,,,,,mankind,105,114,sing,new,null,6817.380897199735,None,6817.380897199735,None,5,1.3327371999621391,6817.380897199735,None,1.3327371999621391,6818.751553900074,None,6819.266611699946,None,6819.266611699946,None,f,0.5988860996440053,6819.266611699946,None,0.5988860996440053,,,66 Sing,001,2022_Oct_25_1457,ProdSingRedoBetween,2021.2.3,59.414246872427526,
,,,,114,0,114,0,,,,,,,,,,,,,,,,,,,,,,6822.578888699878,None,,,,,,,,,,,,,,,,,story,40,115,sing,old,blue,6820.397180600092,None,6820.397180600092,None,6,1.2766521000303328,6820.397180600092,None,1.2766521000303328,6821.704924299847,None,6822.2118902998045,None,6822.2118902998045,None,r,0.34964200016111135,6822.2118902998045,None,0.34964200016111135,,,66 Sing,001,2022_Oct_25_1457,ProdSingRedoBetween,2021.2.3,59.414246872427526,
,,,,115,0,115,0,,,,,,,,,,,,,,,,,,,,,,6827.685352199711,None,,,,,,,,,,,,,,,,,question,147,116,sing,new,null,6823.093978699762,None,6823.093978699762,None,6,2.851522999815643,6823.093978699762,None,2.851522999815643,6825.9675108999945,None,6826.48402629979,None,6826.48402629979,None,r,1.181626900099218,6826.48402629979,None,1.181626900099218,,,66 Sing,001,2022_Oct_25_1457,ProdSingRedoBetween,2021.2.3,59.414246872427526,
,,,,116,0,116,0,,,,,,,,,,,,,,,,,,,,,,6830.636813200079,None,,,,,,,,,,,,,,,,,growth,42,117,sing,old,blue,6828.1896404,None,6828.1896404,None,5,1.3958547003567219,6828.1896404,None,1.3958547003567219,6829.603385699913,None,6830.107934599742,None,6830.107934599742,None,r,0.509615599643439,6830.107934599742,None,0.509615599643439,,,66 Sing,001,2022_Oct_25_1457,ProdSingRedoBetween,2021.2.3,59.414246872427526,
,,,,117,0,117,0,,,,,,,,,,,,,,,,,,,,,,6835.124644000083,None,,,,,,,,,,,,,,,,,period,78,118,sing,old,red,6831.144162799697,None,6831.144162799697,None,5,3.001365600153804,6831.144162799697,None,3.001365600153804,6834.17476329999,None,6834.680414999835,None,6834.680414999835,None,f,0.4170248000882566,6834.680414999835,None,0.4170248000882566,,,66 Sing,001,2022_Oct_25_1457,ProdSingRedoBetween,2021.2.3,59.414246872427526,
,,,,118,0,118,0,,,,,,,,,,,,,,,,,,,,,,6838.181690999772,None,,,,,,,,,,,,,,,,,exchange,103,119,sing,new,null,6835.6345234001055,None,6835.6345234001055,None,6,1.4868666999973357,6835.6345234001055,None,1.4868666999973357,6837.148728100117,None,6837.660564799793,None,6837.660564799793,None,r,0.5012103002518415,6837.660564799793,None,0.5012103002518415,,,66 Sing,001,2022_Oct_25_1457,ProdSingRedoBetween,2021.2.3,59.414246872427526,
,,,,119,0,119,0,,,,,,,,,,,,,,,,,,,,,,6842.515353499912,None,,,,,,,,,,,,,,,,,raise,66,120,sing,old,red,6838.700420800131,None,6838.700420800131,None,6,2.6210884996689856,6838.700420800131,None,2.6210884996689856,6841.347589899786,None,6841.852418099996,None,6841.852418099996,None,r,0.6370680998079479,6841.852418099996,None,0.6370680998079479,,,66 Sing,001,2022_Oct_25_1457,ProdSingRedoBetween,2021.2.3,59.414246872427526,
,,,,120,0,120,0,,,,,,,,,,,,,,,,,,,,,,6846.58612280013,None,,,,,,,,,,,,,,,,,testimony,59,121,sing,old,yellow,6843.03179939976,None,6843.03179939976,None,6,2.305698299780488,6843.03179939976,None,2.305698299780488,6845.3691726997495,None,6845.876707999967,None,6845.876707999967,None,r,0.6848236001096666,6845.876707999967,None,0.6848236001096666,,,66 Sing,001,2022_Oct_25_1457,ProdSingRedoBetween,2021.2.3,59.414246872427526,
,,,,121,0,121,0,,,,,,,,,,,,,,,,,,,,,,6851.874786600005,None,,,,,,,,,,,,,,,,,master,94,122,sing,new,null,6847.1071144999005,None,6847.1071144999005,None,6,3.102487300056964,6847.1071144999005,None,3.102487300056964,6850.247516599949,None,6850.757052199915,None,6850.757052199915,None,r,1.0924468003213406,6850.757052199915,None,1.0924468003213406,,,66 Sing,001,2022_Oct_25_1457,ProdSingRedoBetween,2021.2.3,59.414246872427526,
,,,,122,0,122,0,,,,,,,,,,,,,,,,,,,,,,6855.745228299871,None,,,,,,,,,,,,,,,,,industry,131,123,sing,new,null,6852.385946199764,None,6852.385946199764,None,6,1.8956173998303711,6852.385946199764,None,1.8956173998303711,6854.311567299999,None,6854.818627399858,None,6854.818627399858,None,f,0.9107276001013815,6854.818627399858,None,0.9107276001013815,,,66 Sing,001,2022_Oct_25_1457,ProdSingRedoBetween,2021.2.3,59.414246872427526,
,,,,123,0,123,0,,,,,,,,,,,,,,,,,,,,,,6858.614750099834,None,,,,,,,,,,,,,,,,,comedy,97,124,sing,new,null,6856.249038099777,None,6856.249038099777,None,6,1.3365348000079393,6856.249038099777,None,1.3365348000079393,6857.613863099832,None,6858.12065850012,None,6858.12065850012,None,r,0.47285440005362034,6858.12065850012,None,0.47285440005362034,,,66 Sing,001,2022_Oct_25_1457,ProdSingRedoBetween,2021.2.3,59.414246872427526,
,,,,124,0,124,0,,,,,,,,,,,,,,,,,,,,,,6861.652424099855,None,,,,,,,,,,,,,,,,,member,46,125,sing,old,blue,6859.11544329999,None,6859.11544329999,None,5,1.5340394000522792,6859.11544329999,None,1.5340394000522792,6860.669279499911,None,6861.184090599883,None,6861.184090599883,None,f,0.44151389971375465,6861.184090599883,None,0.44151389971375465,,,66 Sing,001,2022_Oct_25_1457,ProdSingRedoBetween,2021.2.3,59.414246872427526,
,,,,125,0,125,0,,,,,,,,,,,,,,,,,,,,,,6864.92105499981,None,,,,,,,,,,,,,,,,,colonel,16,126,sing,old,yellow,6862.161918499973,None,6862.161918499973,None,4,1.5995404003188014,6862.161918499973,None,1.5995404003188014,6863.7877841000445,None,6864.291606300045,None,6864.291606300045,None,f,0.6138289999216795,6864.291606300045,None,0.6138289999216795,,,66 Sing,001,2022_Oct_25_1457,ProdSingRedoBetween,2021.2.3,59.414246872427526,
,,,,126,0,126,0,,,,,,,,,,,,,,,,,,,,,,6868.474704300053,None,,,,,,,,,,,,,,,,,sleep,29,127,sing,old,blue,6865.432515399996,None,6865.432515399996,None,6,1.8728410000912845,6865.432515399996,None,1.8728410000912845,6867.32319979975,None,6867.829480299726,None,6867.829480299726,None,r,0.6199839999899268,6867.829480299726,None,0.6199839999899268,,,66 Sing,001,2022_Oct_25_1457,ProdSingRedoBetween,2021.2.3,59.414246872427526,
,,,,127,0,127,0,,,,,,,,,,,,,,,,,,,,,,6871.944677500054,None,,,,,,,,,,,,,,,,,couch,64,128,sing,old,red,6868.976477799937,None,6868.976477799937,None,6,1.7049973998218775,6868.976477799937,None,1.7049973998218775,6870.71158789983,None,6871.215074799955,None,6871.215074799955,None,r,0.7143049999140203,6871.215074799955,None,0.7143049999140203,,,66 Sing,001,2022_Oct_25_1457,ProdSingRedoBetween,2021.2.3,59.414246872427526,
,,,,128,0,128,0,,,,,,,,,,,,,,,,,,,,,,6875.548309700098,None,,,,,,,,,,,,,,,,,household,173,129,sing,new,null,6872.456489500124,None,6872.456489500124,None,6,1.8408082998357713,6872.456489500124,None,1.8408082998357713,6874.31970140012,None,6874.831806699745,None,6874.831806699745,None,r,0.6977006997913122,6874.831806699745,None,0.6977006997913122,,,66 Sing,001,2022_Oct_25_1457,ProdSingRedoBetween,2021.2.3,59.414246872427526,
,,,,129,0,129,0,,,,,,,,,,,,,,,,,,,,,,6878.7680500000715,None,,,,,,,,,,,,,,,,,number,83,130,sing,old,red,6876.050529500004,None,6876.050529500004,None,6,1.6310262000188231,6876.050529500004,None,1.6310262000188231,6877.702869500034,None,6878.221456000116,None,6878.221456000116,None,r,0.5240859002806246,6878.221456000116,None,0.5240859002806246,,,66 Sing,001,2022_Oct_25_1457,ProdSingRedoBetween,2021.2.3,59.414246872427526,
,,,,130,0,130,0,,,,,,,,,,,,,,,,,,,,,,6881.954492500052,None,,,,,,,,,,,,,,,,,novel,24,131,sing,old,yellow,6879.275355699938,None,6879.275355699938,None,6,1.6860609003342688,6879.275355699938,None,1.6860609003342688,6880.99310920015,None,6881.504280199762,None,6881.504280199762,None,r,0.4251707000657916,6881.504280199762,None,0.4251707000657916,,,66 Sing,001,2022_Oct_25_1457,ProdSingRedoBetween,2021.2.3,59.414246872427526,
,,,,131,0,131,0,,,,,,,,,,,,,,,,,,,,,,6885.608183099888,None,,,,,,,,,,,,,,,,,council,143,132,sing,new,null,6882.464152799919,None,6882.464152799919,None,5,2.2012869999744,6882.464152799919,None,2.2012869999744,6884.690722099971,None,6885.195954099763,None,6885.195954099763,None,f,0.3974691000767052,6885.195954099763,None,0.3974691000767052,,,66 Sing,001,2022_Oct_25_1457,ProdSingRedoBetween,2021.2.3,59.414246872427526,
,,,,132,0,132,0,,,,,,,,,,,,,,,,,,,,,,6889.879340799991,None,,,,,,,,,,,,,,,,,bitter,113,133,sing,new,null,6886.114107700065,None,6886.114107700065,None,6,2.815425199922174,6886.114107700065,None,2.815425199922174,6888.947683800012,None,6889.462373899762,None,6889.462373899762,None,r,0.3870181003585458,6889.462373899762,None,0.3870181003585458,,,66 Sing,001,2022_Oct_25_1457,ProdSingRedoBetween,2021.2.3,59.414246872427526,
,,,,133,0,133,0,,,,,,,,,,,,,,,,,,,,,,6894.283685999922,None,,,,,,,,,,,,,,,,,range,154,134,sing,new,null,6890.388845100068,None,6890.388845100068,None,5,2.4526296998374164,6890.388845100068,None,2.4526296998374164,6892.874738799874,None,6893.382874699775,None,6893.382874699775,None,f,0.8824588996358216,6893.382874699775,None,0.8824588996358216,,,66 Sing,001,2022_Oct_25_1457,ProdSingRedoBetween,2021.2.3,59.414246872427526,
,,,,134,0,134,0,,,,,,,,,,,,,,,,,,,,,,6897.67039939994,None,,,,,,,,,,,,,,,,,incident,139,135,sing,new,null,6894.797530199867,None,6894.797530199867,None,5,1.4197410000488162,6894.797530199867,None,1.4197410000488162,6896.236612999812,None,6896.735956999939,None,6896.735956999939,None,f,0.9055274999700487,6896.735956999939,None,0.9055274999700487,,,66 Sing,001,2022_Oct_25_1457,ProdSingRedoBetween,2021.2.3,59.414246872427526,
,,,,135,0,135,0,,,,,,,,,,,,,,,,,,,,,,6900.97367820004,None,,,,,,,,,,,,,,,,,nature,159,136,sing,new,null,6898.172284499742,None,6898.172284499742,None,6,1.837236599996686,6898.172284499742,None,1.837236599996686,6900.044784899801,None,6900.559919800144,None,6900.559919800144,None,r,0.3855026997625828,6900.559919800144,None,0.3855026997625828,,,66 Sing,001,2022_Oct_25_1457,ProdSingRedoBetween,2021.2.3,59.414246872427526,
,,,,136,0,136,0,,,,,,,,,,,,,,,,,,,,,,6904.76176750008,None,,,,,,,,,,,,,,,,,problem,168,137,sing,new,null,6901.4844766999595,None,6901.4844766999595,None,6,2.3088914998807013,6901.4844766999595,None,2.3088914998807013,6903.811112099793,None,6904.32099349983,None,6904.32099349983,None,r,0.4085645996965468,6904.32099349983,None,0.4085645996965468,,,66 Sing,001,2022_Oct_25_1457,ProdSingRedoBetween,2021.2.3,59.414246872427526,
,,,,137,0,137,0,,,,,,,,,,,,,,,,,,,,,,6907.797175900079,None,,,,,,,,,,,,,,,,,private,74,138,sing,old,red,6905.274476999883,None,6905.274476999883,None,6,1.3108811997808516,6905.274476999883,None,1.3108811997808516,6906.615124799777,None,6907.13181569986,None,6907.13181569986,None,r,0.6455751000903547,6907.13181569986,None,0.6455751000903547,,,66 Sing,001,2022_Oct_25_1457,ProdSingRedoBetween,2021.2.3,59.414246872427526,
,,,,138,0,138,0,,,,,,,,,,,,,,,,,,,,,,6910.850892500021,None,,,,,,,,,,,,,,,,,estate,8,139,sing,old,yellow,6908.30794310011,None,6908.30794310011,None,6,1.5973928002640605,6908.30794310011,None,1.5973928002640605,6909.933728099801,None,6910.442656400148,None,6910.442656400148,None,f,0.3908573999069631,6910.442656400148,None,0.3908573999069631,,,66 Sing,001,2022_Oct_25_1457,ProdSingRedoBetween,2021.2.3,59.414246872427526,
,,,,139,0,139,0,,,,,,,,,,,,,,,,,,,,,,6913.753015500028,None,,,,,,,,,,,,,,,,,business,19,140,sing,old,yellow,6911.3551392997615,None,6911.3551392997615,None,6,1.3822484998963773,6911.3551392997615,None,1.3822484998963773,6912.769620999694,None,6913.269939600024,None,6913.269939600024,None,r,0.4674880998209119,6913.269939600024,None,0.4674880998209119,,,66 Sing,001,2022_Oct_25_1457,ProdSingRedoBetween,2021.2.3,59.414246872427526,
,,,,140,0,140,0,,,,,,,,,,,,,,,,,,,,,,6917.1396098998375,None,,,,,,,,,,,,,,,,,people,18,141,sing,old,yellow,6914.26369079994,None,6914.26369079994,None,6,1.8336841999553144,6914.26369079994,None,1.8336841999553144,6916.1236543999985,None,6916.62472519977,None,6916.62472519977,None,r,0.488584500271827,6916.62472519977,None,0.488584500271827,,,66 Sing,001,2022_Oct_25_1457,ProdSingRedoBetween,2021.2.3,59.414246872427526,
,,,,141,0,141,0,,,,,,,,,,,,,,,,,,,,,,6919.6089197997935,None,,,,,,,,,,,,,,,,,object,69,142,sing,old,red,6917.643610800151,None,6917.643610800151,None,6,1.0780186001211405,6917.643610800151,None,1.0780186001211405,6918.750617099926,None,6919.261888499837,None,6919.261888499837,None,r,0.3234744002111256,6919.261888499837,None,0.3234744002111256,,,66 Sing,001,2022_Oct_25_1457,ProdSingRedoBetween,2021.2.3,59.414246872427526,
,,,,142,0,142,0,,,,,,,,,,,,,,,,,,,,,,6922.761859499849,None,,,,,,,,,,,,,,,,,concern,53,143,sing,old,blue,6920.109625000041,None,6920.109625000041,None,6,1.7477574003860354,6920.109625000041,None,1.7477574003860354,6921.879092100076,None,6922.381291999947,None,6922.381291999947,None,r,0.3641362995840609,6922.381291999947,None,0.3641362995840609,,,66 Sing,001,2022_Oct_25_1457,ProdSingRedoBetween,2021.2.3,59.414246872427526,
,,,,143,0,143,0,,,,,,,,,,,,,,,,,,,,,,6926.645670100115,None,,,,,,,,,,,,,,,,,crowd,148,144,sing,new,null,6923.26601250004,None,6923.26601250004,None,6,2.095344999805093,6923.26601250004,None,2.095344999805093,6925.382715600077,None,6925.884921699762,None,6925.884921699762,None,r,0.7163225999101996,6925.884921699762,None,0.7163225999101996,,,66 Sing,001,2022_Oct_25_1457,ProdSingRedoBetween,2021.2.3,59.414246872427526,
,,,,144,0,144,0,,,,,,,,,,,,,,,,,,,,,,6929.268577599898,None,,,,,,,,,,,,,,,,,trash,136,145,sing,new,null,6927.153748199809,None,6927.153748199809,None,6,1.1516738999634981,6927.153748199809,None,1.1516738999634981,6928.342006999999,None,6928.8516175998375,None,6928.8516175998375,None,r,0.3897076998837292,6928.8516175998375,None,0.3897076998837292,,,66 Sing,001,2022_Oct_25_1457,ProdSingRedoBetween,2021.2.3,59.414246872427526,
,,,,145,0,145,0,,,,,,,,,,,,,,,,,,,,,,6933.055730199907,None,,,,,,,,,,,,,,,,,fight,170,146,sing,new,null,6929.777326199692,None,6929.777326199692,None,5,2.3440547003410757,6929.777326199692,None,2.3440547003410757,6932.138108300045,None,6932.638804099988,None,6932.638804099988,None,f,0.39449340011924505,6932.638804099988,None,0.39449340011924505,,,66 Sing,001,2022_Oct_25_1457,ProdSingRedoBetween,2021.2.3,59.414246872427526,
,,,,146,0,146,0,,,,,,,,,,,,,,,,,,,,,,6938.494431099854,None,,,,,,,,,,,,,,,,,rural,118,147,sing,new,null,6933.565990999807,None,6933.565990999807,None,5,3.7314011002890766,6933.565990999807,None,3.7314011002890766,6937.3273485000245,None,6937.831956699956,None,6937.831956699956,None,f,0.6413882998749614,6937.831956699956,None,0.6413882998749614,,,66 Sing,001,2022_Oct_25_1457,ProdSingRedoBetween,2021.2.3,59.414246872427526,
,,,,147,0,147,0,,,,,,,,,,,,,,,,,,,,,,6941.085577199701,None,,,,,,,,,,,,,,,,,mayor,146,148,sing,new,null,6939.002777699847,None,6939.002777699847,None,6,1.1026150002144277,6939.002777699847,None,1.1026150002144277,6940.137930399738,None,6940.653612699825,None,6940.653612699825,None,r,0.39600270008668303,6940.653612699825,None,0.39600270008668303,,,66 Sing,001,2022_Oct_25_1457,ProdSingRedoBetween,2021.2.3,59.414246872427526,
,,,,148,0,148,0,,,,,,,,,,,,,,,,,,,,,,6944.517132699955,None,,,,,,,,,,,,,,,,,vision,65,149,sing,old,red,6941.605374800041,None,6941.605374800041,None,6,1.7879520999267697,6941.605374800041,None,1.7879520999267697,6943.419379000086,None,6943.93330649985,None,6943.93330649985,None,r,0.5559256002306938,6943.93330649985,None,0.5559256002306938,,,66 Sing,001,2022_Oct_25_1457,ProdSingRedoBetween,2021.2.3,59.414246872427526,
,,,,149,0,149,0,,,,,,,,,,,,,,,,,,,,,,6948.220589300152,None,,,,,,,,,,,,,,,,,school,23,150,sing,old,yellow,6945.023958900012,None,6945.023958900012,None,6,2.30537849990651,6945.023958900012,None,2.30537849990651,6947.354327799752,None,6947.860049199779,None,6947.860049199779,None,r,0.3333051996305585,6947.860049199779,None,0.3333051996305585,,,66 Sing,001,2022_Oct_25_1457,ProdSingRedoBetween,2021.2.3,59.414246872427526,
,,,,150,0,150,0,,,,,,,,,,,,,,,,,,,,,,6953.275591999758,None,,,,,,,,,,,,,,,,,sight,26,151,sing,old,yellow,6948.724947900046,None,6948.724947900046,None,5,2.3083780999295413,6948.724947900046,None,2.3083780999295413,6951.058400900103,None,6951.562131700106,None,6951.562131700106,None,f,1.6951454998925328,6951.562131700106,None,1.6951454998925328,,,66 Sing,001,2022_Oct_25_1457,ProdSingRedoBetween,2021.2.3,59.414246872427526,
,,,,151,0,151,0,,,,,,,,,,,,,,,,,,,,,,6957.064901699778,None,,,,,,,,,,,,,,,,,crime,85,152,sing,old,red,6953.780630100053,None,6953.780630100053,None,5,2.2366543002426624,6953.780630100053,None,2.2366543002426624,6956.045259499922,None,6956.545767299831,None,6956.545767299831,None,f,0.48746029986068606,6956.545767299831,None,0.48746029986068606,,,66 Sing,001,2022_Oct_25_1457,ProdSingRedoBetween,2021.2.3,59.414246872427526,
,,,,152,0,152,0,,,,,,,,,,,,,,,,,,,,,,6960.116051499732,None,,,,,,,,,,,,,,,,,debate,82,153,sing,old,red,6957.580169700086,None,6957.580169700086,None,5,1.6051266002468765,6957.580169700086,None,1.6051266002468765,6959.215105799958,None,6959.718142800033,None,6959.718142800033,None,r,0.37914420012384653,6959.718142800033,None,0.37914420012384653,,,66 Sing,001,2022_Oct_25_1457,ProdSingRedoBetween,2021.2.3,59.414246872427526,
,,,,153,0,153,0,,,,,,,,,,,,,,,,,,,,,,6964.436785799917,None,,,,,,,,,,,,,,,,,gesture,177,154,sing,new,null,6960.6278332998045,None,6960.6278332998045,None,5,2.6374850999563932,6960.6278332998045,None,2.6374850999563932,6963.289357000031,None,6963.807194400113,None,6963.807194400113,None,f,0.6099734003655612,6963.807194400113,None,0.6099734003655612,,,66 Sing,001,2022_Oct_25_1457,ProdSingRedoBetween,2021.2.3,59.414246872427526,
,,,,154,0,154,0,,,,,,,,,,,,,,,,,,,,,,6967.873723299708,None,,,,,,,,,,,,,,,,,community,152,155,sing,new,null,6964.949614999816,None,6964.949614999816,None,6,2.0116880000568926,6964.949614999816,None,2.0116880000568926,6966.992677900009,None,6967.506616000086,None,6967.506616000086,None,r,0.35071639996021986,6967.506616000086,None,0.35071639996021986,,,66 Sing,001,2022_Oct_25_1457,ProdSingRedoBetween,2021.2.3,59.414246872427526,
,,,,155,0,155,0,,,,,,,,,,,,,,,,,,,,,,6971.2768838997,None,,,,,,,,,,,,,,,,,plane,68,156,sing,old,red,6968.374662599992,None,6968.374662599992,None,6,1.8825890999287367,6968.374662599992,None,1.8825890999287367,6970.282982899807,None,6970.795791400131,None,6970.795791400131,None,r,0.45345630031079054,6970.795791400131,None,0.45345630031079054,,,66 Sing,001,2022_Oct_25_1457,ProdSingRedoBetween,2021.2.3,59.414246872427526,
,,,,156,0,156,0,,,,,,,,,,,,,,,,,,,,,,6975.231072099879,None,,,,,,,,,,,,,,,,,capital,122,157,sing,new,null,6971.78869690001,None,6971.78869690001,None,4,2.228578499983996,6971.78869690001,None,2.228578499983996,6974.047730599996,None,6974.550439800136,None,6974.550439800136,None,f,0.6508519998751581,6974.550439800136,None,0.6508519998751581,,,66 Sing,001,2022_Oct_25_1457,ProdSingRedoBetween,2021.2.3,59.414246872427526,
,,,,157,0,157,0,,,,,,,,,,,,,,,,,,,,,,6978.890419499949,None,,,,,,,,,,,,,,,,,balance,96,158,sing,new,null,6975.740641899873,None,6975.740641899873,None,5,1.7085906001739204,6975.740641899873,None,1.7085906001739204,6977.46799689997,None,6977.967155399732,None,6977.967155399732,None,r,0.898048700299114,6977.967155399732,None,0.898048700299114,,,66 Sing,001,2022_Oct_25_1457,ProdSingRedoBetween,2021.2.3,59.414246872427526,
,,,,158,0,158,0,,,,,,,,,,,,,,,,,,,,,,6985.407845799811,None,,,,,,,,,,,,,,,,,foundation,155,159,sing,new,null,6979.412922000047,None,6979.412922000047,None,4,3.6043754001148045,6979.412922000047,None,3.6043754001148045,6983.041765300091,None,6983.556490899995,None,6983.556490899995,None,n,1.8288115002214909,6983.556490899995,None,1.8288115002214909,,,66 Sing,001,2022_Oct_25_1457,ProdSingRedoBetween,2021.2.3,59.414246872427526,
,,,,159,0,159,0,,,,,,,,,,,,,,,,,,,,,,6988.664844099898,None,,,,,,,,,,,,,,,,,captain,161,160,sing,new,null,6985.9167114999145,None,6985.9167114999145,None,6,1.4524508998729289,6985.9167114999145,None,1.4524508998729289,6987.398163499776,None,6987.915925399866,None,6987.915925399866,None,f,0.7254278999753296,6987.915925399866,None,0.7254278999753296,,,66 Sing,001,2022_Oct_25_1457,ProdSingRedoBetween,2021.2.3,59.414246872427526,
,,,,160,0,160,0,,,,,,,,,,,,,,,,,,,,,,6992.48479830008,None,,,,,,,,,,,,,,,,,state,115,161,sing,new,null,6989.1862491001375,None,6989.1862491001375,None,5,1.999017700087279,6989.1862491001375,None,1.999017700087279,6991.21665860014,None,6991.742424000055,None,6991.742424000055,None,f,0.7070490000769496,6991.742424000055,None,0.7070490000769496,,,66 Sing,001,2022_Oct_25_1457,ProdSingRedoBetween,2021.2.3,59.414246872427526,
,,,,161,0,161,0,,,,,,,,,,,,,,,,,,,,,,6997.286226799712,None,,,,,,,,,,,,,,,,,enemy,114,162,sing,new,null,6993.003033699933,None,6993.003033699933,None,5,2.358239599969238,6993.003033699933,None,2.358239599969238,6995.387534999754,None,6995.906469800044,None,6995.906469800044,None,f,1.358798399567604,6995.906469800044,None,1.358798399567604,,,66 Sing,001,2022_Oct_25_1457,ProdSingRedoBetween,2021.2.3,59.414246872427526,
,,,,162,0,162,0,,,,,,,,,,,,,,,,,,,,,,7002.508336700033,None,,,,,,,,,,,,,,,,,quiet,149,163,sing,new,null,6997.795445299707,None,6997.795445299707,None,6,3.749795099720359,6997.795445299707,None,3.749795099720359,7001.5750663997605,None,7002.078015199862,None,7002.078015199862,None,r,0.41117179999127984,7002.078015199862,None,0.41117179999127984,,,66 Sing,001,2022_Oct_25_1457,ProdSingRedoBetween,2021.2.3,59.414246872427526,
,,,,163,0,163,0,,,,,,,,,,,,,,,,,,,,,,7006.095224199817,None,,,,,,,,,,,,,,,,,straight,49,164,sing,old,blue,7003.012072300073,None,7003.012072300073,None,6,1.7811674000695348,7003.012072300073,None,1.7811674000695348,7004.816135100089,None,7005.333947199862,None,7005.333947199862,None,f,0.7392696999013424,7005.333947199862,None,0.7392696999013424,,,66 Sing,001,2022_Oct_25_1457,ProdSingRedoBetween,2021.2.3,59.414246872427526,
,,,,164,0,164,0,,,,,,,,,,,,,,,,,,,,,,7009.065265699755,None,,,,,,,,,,,,,,,,,notice,119,165,sing,new,null,7006.60218799999,None,7006.60218799999,None,6,1.5831865998916328,7006.60218799999,None,1.5831865998916328,7008.22165219998,None,7008.7369435001165,None,7008.7369435001165,None,f,0.296371600124985,7008.7369435001165,None,0.296371600124985,,,66 Sing,001,2022_Oct_25_1457,ProdSingRedoBetween,2021.2.3,59.414246872427526,
,,,,165,0,165,0,,,,,,,,,,,,,,,,,,,,,,7011.635172499809,None,,,,,,,,,,,,,,,,,alert,45,166,sing,old,blue,7009.568329999689,None,7009.568329999689,None,6,1.160955199971795,7009.568329999689,None,1.160955199971795,7010.762659300119,None,7011.274543599691,None,7011.274543599691,None,f,0.3427746999077499,7011.274543599691,None,0.3427746999077499,,,66 Sing,001,2022_Oct_25_1457,ProdSingRedoBetween,2021.2.3,59.414246872427526,
,,,,166,0,166,0,,,,,,,,,,,,,,,,,,,,,,7014.420445099939,None,,,,,,,,,,,,,,,,,count,162,167,sing,new,null,7012.137134099845,None,7012.137134099845,None,6,1.368043600115925,7012.137134099845,None,1.368043600115925,7013.535952500068,None,7014.039648300037,None,7014.039648300037,None,r,0.35344679979607463,7014.039648300037,None,0.35344679979607463,,,66 Sing,001,2022_Oct_25_1457,ProdSingRedoBetween,2021.2.3,59.414246872427526,
,,,,167,0,167,0,,,,,,,,,,,,,,,,,,,,,,7018.642373399809,None,,,,,,,,,,,,,,,,,order,100,168,sing,new,null,7014.921712599695,None,7014.921712599695,None,5,2.639508199878037,7014.921712599695,None,2.639508199878037,7017.591358299833,None,7018.090915199835,None,7018.090915199835,None,r,0.5344473998993635,7018.090915199835,None,0.5344473998993635,,,66 Sing,001,2022_Oct_25_1457,ProdSingRedoBetween,2021.2.3,59.414246872427526,
,,,,168,0,168,0,,,,,,,,,,,,,,,,,,,,,,7021.561462599784,None,,,,,,,,,,,,,,,,,sweet,21,169,sing,old,yellow,7019.146654299926,None,7019.146654299926,None,6,1.5345582999289036,7019.146654299926,None,1.5345582999289036,7020.710767199751,None,7021.215302699711,None,7021.215302699711,None,r,0.31391189992427826,7021.215302699711,None,0.31391189992427826,,,66 Sing,001,2022_Oct_25_1457,ProdSingRedoBetween,2021.2.3,59.414246872427526,
,,,,169,0,169,0,,,,,,,,,,,,,,,,,,,,,,7024.913724699989,None,,,,,,,,,,,,,,,,,prime,75,170,sing,old,red,7022.077333900146,None,7022.077333900146,None,4,1.627993700094521,7022.077333900146,None,1.627993700094521,7023.730930000078,None,7024.234340500087,None,7024.234340500087,None,n,0.6629174998961389,7024.234340500087,None,0.6629174998961389,,,66 Sing,001,2022_Oct_25_1457,ProdSingRedoBetween,2021.2.3,59.414246872427526,
,,,,170,0,170,0,,,,,,,,,,,,,,,,,,,,,,7028.8522814000025,None,,,,,,,,,,,,,,,,,victory,112,171,sing,new,null,7025.41499069985,None,7025.41499069985,None,6,2.642178399953991,7025.41499069985,None,2.642178399953991,7028.090308200102,None,7028.605643699877,None,7028.605643699877,None,r,0.2275258000008762,7028.605643699877,None,0.2275258000008762,,,66 Sing,001,2022_Oct_25_1457,ProdSingRedoBetween,2021.2.3,59.414246872427526,
,,,,171,0,171,0,,,,,,,,,,,,,,,,,,,,,,7031.704047599807,None,,,,,,,,,,,,,,,,,nation,48,172,sing,old,blue,7029.3542562001385,None,7029.3542562001385,None,5,1.574846999719739,7029.3542562001385,None,1.574846999719739,7030.953526500147,None,7031.458400200121,None,7031.458400200121,None,r,0.23077910020947456,7031.458400200121,None,0.23077910020947456,,,66 Sing,001,2022_Oct_25_1457,ProdSingRedoBetween,2021.2.3,59.414246872427526,
,,,,172,0,172,0,,,,,,,,,,,,,,,,,,,,,,7034.506826899946,None,,,,,,,,,,,,,,,,,session,89,173,sing,old,red,7032.208023800049,None,7032.208023800049,None,4,1.4333913000300527,7032.208023800049,None,1.4333913000300527,7033.677960400004,None,7034.190055400133,None,7034.190055400133,None,n,0.29912490025162697,7034.190055400133,None,0.29912490025162697,,,66 Sing,001,2022_Oct_25_1457,ProdSingRedoBetween,2021.2.3,59.414246872427526,
,,,,173,0,173,0,,,,,,,,,,,,,,,,,,,,,,7037.596239299979,None,,,,,,,,,,,,,,,,,strength,102,174,sing,new,null,7035.011306199711,None,7035.011306199711,None,5,1.605748699977994,7035.011306199711,None,1.605748699977994,7036.647204099689,None,7037.1640129997395,None,7037.1640129997395,None,f,0.40526930009946227,7037.1640129997395,None,0.40526930009946227,,,66 Sing,001,2022_Oct_25_1457,ProdSingRedoBetween,2021.2.3,59.414246872427526,
,,,,174,0,174,0,,,,,,,,,,,,,,,,,,,,,,7040.979978099931,None,,,,,,,,,,,,,,,,,guide,57,175,sing,old,blue,7038.116162799764,None,7038.116162799764,None,5,2.0929986000992358,7038.116162799764,None,2.0929986000992358,7040.236820799764,None,7040.749771100003,None,7040.749771100003,None,r,0.2033535996451974,7040.749771100003,None,0.2033535996451974,,,66 Sing,001,2022_Oct_25_1457,ProdSingRedoBetween,2021.2.3,59.414246872427526,
,,,,175,0,175,0,,,,,,,,,,,,,,,,,,,,,,7044.316620700061,None,,,,,,,,,,,,,,,,,dispute,71,176,sing,old,red,7041.480564000085,None,7041.480564000085,None,6,1.2325817998498678,7041.480564000085,None,1.2325817998498678,7042.733354100026,None,7043.236966399942,None,7043.236966399942,None,r,1.0522874998860061,7043.236966399942,None,1.0522874998860061,,,66 Sing,001,2022_Oct_25_1457,ProdSingRedoBetween,2021.2.3,59.414246872427526,
,,,,176,0,176,0,,,,,,,,,,,,,,,,,,,,,,7047.286005800124,None,,,,,,,,,,,,,,,,,principal,32,177,sing,old,blue,7044.826847899705,None,7044.826847899705,None,6,1.4622988998889923,7044.826847899705,None,1.4622988998889923,7046.320430299733,None,7046.835688400082,None,7046.835688400082,None,r,0.42136820033192635,7046.835688400082,None,0.42136820033192635,,,66 Sing,001,2022_Oct_25_1457,ProdSingRedoBetween,2021.2.3,59.414246872427526,
,,,,177,0,177,0,,,,,,,,,,,,,,,,,,,,,,7050.610483899713,None,,,,,,,,,,,,,,,,,territory,132,178,sing,new,null,7047.79719780013,None,7047.79719780013,None,5,2.0279256999492645,7047.79719780013,None,2.0279256999492645,7049.857358499896,None,7050.374683899805,None,7050.374683899805,None,f,0.21055270032957196,7050.374683899805,None,0.21055270032957196,,,66 Sing,001,2022_Oct_25_1457,ProdSingRedoBetween,2021.2.3,59.414246872427526,
,,,,178,0,178,0,,,,,,,,,,,,,,,,,,,,,,7054.910590199754,None,,,,,,,,,,,,,,,,,device,166,179,sing,new,null,7051.130553599913,None,7051.130553599913,None,6,2.462498199660331,7051.130553599913,None,2.462498199660331,7053.616378299892,None,7054.1265229997225,None,7054.1265229997225,None,f,0.7546528000384569,7054.1265229997225,None,0.7546528000384569,,,66 Sing,001,2022_Oct_25_1457,ProdSingRedoBetween,2021.2.3,59.414246872427526,
