StudyLoop.thisRepN,StudyLoop.thisTrialN,StudyLoop.thisN,StudyLoop.thisIndex,TestLoop.thisRepN,TestLoop.thisTrialN,TestLoop.thisN,TestLoop.thisIndex,textCondition.started,textCondition.stopped,keyCondition.keys,keyCondition.rt,keyCondition.started,keyCondition.stopped,Condition,textWelcome.started,textWelcome.stopped,keyWelcome.keys,keyWelcome.rt,keyWelcome.started,keyWelcome.stopped,textAloud.started,textAloud.stopped,textSilent.started,textSilent.stopped,textSing.started,textSing.stopped,conditional_text.started,conditional_text.stopped,textBlank500.started,textBlank500.stopped,study_word,study_num,study_order,study_type,word_color,textStudy.started,textStudy.stopped,keyStudy.keys,keyStudy.started,keyStudy.stopped,textTestInstructions.started,textTestInstructions.stopped,key_resp_3.keys,key_resp_3.rt,key_resp_3.started,key_resp_3.stopped,test_word,test_num,test_order,test_condition,old_new_test,test_word_original_color,textConf.started,textConf.stopped,textConfScale.started,textConfScale.stopped,keyConf.keys,keyConf.rt,keyConf.started,keyConf.stopped,confidence response time,textTestBlank.started,textTestBlank.stopped,textRKN.started,textRKN.stopped,textRKNScale.started,textRKNScale.stopped,keyRKN.keys,keyRKN.rt,keyRKN.started,keyRKN.stopped,rkn response time,textEnd.started,textEnd.stopped,participant,session,date,expName,psychopyVersion,frameRate,
,,,,,,,,58.435047399718314,None,a,2.8464506999589503,58.435047399718314,None,,,,,,,,,,,,,,,,,,,,,,,,,,,,,,,,,,,,,,,,,,,,,,,,,,,,,,,,,,,,,,69 sing,001,2022_Nov_01_1059,ProdSingRedoBetween,2021.2.3,59.82578726244381,
,,,,,,,,,,,,,,SilentTest,61.32585689984262,None,space,183.43495809985325,61.32585689984262,None,,,,,,,,,,,,,,,,,,,,,,,,,,,,,,,,,,,,,,,,,,,,,,,,,,,,,,,69 sing,001,2022_Nov_01_1059,ProdSingRedoBetween,2021.2.3,59.82578726244381,
0,0,0,0,,,,,,,,,,,,,,,,,,61.32585689984262,None,61.32585689984262,None,61.32585689984262,None,61.32585689984262,None,247.30784610006958,None,sight,2,1,silent,yellow,245.2975801997818,None,None,245.2975801997818,None,,,,,,,,,,,,,,,,,,,,,,,,,,,,,,,,,,,69 sing,001,2022_Nov_01_1059,ProdSingRedoBetween,2021.2.3,59.82578726244381,
1,0,1,0,,,,,,,,,,,,,,,,,,,,,,,,,,249.81084659975022,None,write,42,2,silent,blue,247.81085440004244,None,None,247.81085440004244,None,,,,,,,,,,,,,,,,,,,,,,,,,,,,,,,,,,,69 sing,001,2022_Nov_01_1059,ProdSingRedoBetween,2021.2.3,59.82578726244381,
2,0,2,0,,,,,,,,,,,,,,,,,,,,,,,,,,252.3126624999568,None,point,30,3,silent,blue,250.3133719000034,None,None,250.3133719000034,None,,,,,,,,,,,,,,,,,,,,,,,,,,,,,,,,,,,69 sing,001,2022_Nov_01_1059,ProdSingRedoBetween,2021.2.3,59.82578726244381,
3,0,3,0,,,,,,,,,,,,,,,,,,,,,,,,,,254.8324158997275,None,close,53,4,silent,blue,252.82446729997173,None,None,252.82446729997173,None,,,,,,,,,,,,,,,,,,,,,,,,,,,,,,,,,,,69 sing,001,2022_Nov_01_1059,ProdSingRedoBetween,2021.2.3,59.82578726244381,
4,0,4,0,,,,,,,,,,,,,,,,,,,,,,,,,,257.33503409987316,None,relation,23,5,silent,yellow,255.3328768000938,None,None,255.3328768000938,None,,,,,,,,,,,,,,,,,,,,,,,,,,,,,,,,,,,69 sing,001,2022_Nov_01_1059,ProdSingRedoBetween,2021.2.3,59.82578726244381,
5,0,5,0,,,,,,,,,,,,,,,,,,,,,,,,,,259.8372090999037,None,resistance,76,6,silent,red,257.8379832999781,None,None,257.8379832999781,None,,,,,,,,,,,,,,,,,,,,,,,,,,,,,,,,,,,69 sing,001,2022_Nov_01_1059,ProdSingRedoBetween,2021.2.3,59.82578726244381,
6,0,6,0,,,,,,,,,,,,,,,,,,,,,,,,,,262.339543600101,None,property,70,7,silent,red,260.3394912998192,None,None,260.3394912998192,None,,,,,,,,,,,,,,,,,,,,,,,,,,,,,,,,,,,69 sing,001,2022_Nov_01_1059,ProdSingRedoBetween,2021.2.3,59.82578726244381,
7,0,7,0,,,,,,,,,,,,,,,,,,,,,,,,,,264.8591963001527,None,travel,12,8,silent,yellow,262.8650692999363,None,None,262.8650692999363,None,,,,,,,,,,,,,,,,,,,,,,,,,,,,,,,,,,,69 sing,001,2022_Nov_01_1059,ProdSingRedoBetween,2021.2.3,59.82578726244381,
8,0,8,0,,,,,,,,,,,,,,,,,,,,,,,,,,267.3788287998177,None,dozen,81,9,silent,red,265.3688207999803,None,None,265.3688207999803,None,,,,,,,,,,,,,,,,,,,,,,,,,,,,,,,,,,,69 sing,001,2022_Nov_01_1059,ProdSingRedoBetween,2021.2.3,59.82578726244381,
9,0,9,0,,,,,,,,,,,,,,,,,,,,,,,,,,269.88080279994756,None,principal,88,10,silent,red,267.8808567998931,None,None,267.8808567998931,None,,,,,,,,,,,,,,,,,,,,,,,,,,,,,,,,,,,69 sing,001,2022_Nov_01_1059,ProdSingRedoBetween,2021.2.3,59.82578726244381,
10,0,10,0,,,,,,,,,,,,,,,,,,,,,,,,,,272.4001448000781,None,light,24,11,silent,yellow,270.38478949991986,None,None,270.38478949991986,None,,,,,,,,,,,,,,,,,,,,,,,,,,,,,,,,,,,69 sing,001,2022_Nov_01_1059,ProdSingRedoBetween,2021.2.3,59.82578726244381,
11,0,11,0,,,,,,,,,,,,,,,,,,,,,,,,,,274.906136599835,None,hearing,5,12,silent,yellow,272.9020838998258,None,None,272.9020838998258,None,,,,,,,,,,,,,,,,,,,,,,,,,,,,,,,,,,,69 sing,001,2022_Nov_01_1059,ProdSingRedoBetween,2021.2.3,59.82578726244381,
12,0,12,0,,,,,,,,,,,,,,,,,,,,,,,,,,277.4384534000419,None,order,52,13,silent,blue,275.4231118001044,None,None,275.4231118001044,None,,,,,,,,,,,,,,,,,,,,,,,,,,,,,,,,,,,69 sing,001,2022_Nov_01_1059,ProdSingRedoBetween,2021.2.3,59.82578726244381,
13,0,13,0,,,,,,,,,,,,,,,,,,,,,,,,,,279.94080130010843,None,capital,20,14,silent,yellow,277.93946960009634,None,None,277.93946960009634,None,,,,,,,,,,,,,,,,,,,,,,,,,,,,,,,,,,,69 sing,001,2022_Nov_01_1059,ProdSingRedoBetween,2021.2.3,59.82578726244381,
14,0,14,0,,,,,,,,,,,,,,,,,,,,,,,,,,282.4453095998615,None,leader,48,15,silent,blue,280.44228710001335,None,None,280.44228710001335,None,,,,,,,,,,,,,,,,,,,,,,,,,,,,,,,,,,,69 sing,001,2022_Nov_01_1059,ProdSingRedoBetween,2021.2.3,59.82578726244381,
15,0,15,0,,,,,,,,,,,,,,,,,,,,,,,,,,284.9625671999529,None,symbol,78,16,silent,red,282.96097149979323,None,None,282.96097149979323,None,,,,,,,,,,,,,,,,,,,,,,,,,,,,,,,,,,,69 sing,001,2022_Nov_01_1059,ProdSingRedoBetween,2021.2.3,59.82578726244381,
16,0,16,0,,,,,,,,,,,,,,,,,,,,,,,,,,287.46484849974513,None,cover,16,17,silent,yellow,285.46483199996874,None,None,285.46483199996874,None,,,,,,,,,,,,,,,,,,,,,,,,,,,,,,,,,,,69 sing,001,2022_Nov_01_1059,ProdSingRedoBetween,2021.2.3,59.82578726244381,
17,0,17,0,,,,,,,,,,,,,,,,,,,,,,,,,,289.98699480015785,None,appeal,56,18,silent,blue,287.97103080013767,None,None,287.97103080013767,None,,,,,,,,,,,,,,,,,,,,,,,,,,,,,,,,,,,69 sing,001,2022_Nov_01_1059,ProdSingRedoBetween,2021.2.3,59.82578726244381,
18,0,18,0,,,,,,,,,,,,,,,,,,,,,,,,,,292.50331029994413,None,poetry,46,19,silent,blue,290.48817529994994,None,None,290.48817529994994,None,,,,,,,,,,,,,,,,,,,,,,,,,,,,,,,,,,,69 sing,001,2022_Nov_01_1059,ProdSingRedoBetween,2021.2.3,59.82578726244381,
19,0,19,0,,,,,,,,,,,,,,,,,,,,,,,,,,295.02652220008895,None,present,26,20,silent,yellow,293.00846689986065,None,None,293.00846689986065,None,,,,,,,,,,,,,,,,,,,,,,,,,,,,,,,,,,,69 sing,001,2022_Nov_01_1059,ProdSingRedoBetween,2021.2.3,59.82578726244381,
20,0,20,0,,,,,,,,,,,,,,,,,,,,,,,,,,297.54193449998274,None,junior,31,21,silent,blue,295.5305567998439,None,None,295.5305567998439,None,,,,,,,,,,,,,,,,,,,,,,,,,,,,,,,,,,,69 sing,001,2022_Nov_01_1059,ProdSingRedoBetween,2021.2.3,59.82578726244381,
21,0,21,0,,,,,,,,,,,,,,,,,,,,,,,,,,300.04480220004916,None,working,17,22,silent,yellow,298.04404849978164,None,None,298.04404849978164,None,,,,,,,,,,,,,,,,,,,,,,,,,,,,,,,,,,,69 sing,001,2022_Nov_01_1059,ProdSingRedoBetween,2021.2.3,59.82578726244381,
22,0,22,0,,,,,,,,,,,,,,,,,,,,,,,,,,302.5470309997909,None,weight,29,23,silent,blue,300.5476460997015,None,None,300.5476460997015,None,,,,,,,,,,,,,,,,,,,,,,,,,,,,,,,,,,,69 sing,001,2022_Nov_01_1059,ProdSingRedoBetween,2021.2.3,59.82578726244381,
23,0,23,0,,,,,,,,,,,,,,,,,,,,,,,,,,305.04890189971775,None,blind,8,24,silent,yellow,303.04870950011536,None,None,303.04870950011536,None,,,,,,,,,,,,,,,,,,,,,,,,,,,,,,,,,,,69 sing,001,2022_Nov_01_1059,ProdSingRedoBetween,2021.2.3,59.82578726244381,
24,0,24,0,,,,,,,,,,,,,,,,,,,,,,,,,,307.55176519975066,None,dream,38,25,silent,blue,305.54976479988545,None,None,305.54976479988545,None,,,,,,,,,,,,,,,,,,,,,,,,,,,,,,,,,,,69 sing,001,2022_Nov_01_1059,ProdSingRedoBetween,2021.2.3,59.82578726244381,
25,0,25,0,,,,,,,,,,,,,,,,,,,,,,,,,,310.07110189972445,None,color,3,26,silent,yellow,308.05565029988065,None,None,308.05565029988065,None,,,,,,,,,,,,,,,,,,,,,,,,,,,,,,,,,,,69 sing,001,2022_Nov_01_1059,ProdSingRedoBetween,2021.2.3,59.82578726244381,
26,0,26,0,,,,,,,,,,,,,,,,,,,,,,,,,,312.5766652999446,None,pattern,83,27,silent,red,310.57722460012883,None,None,310.57722460012883,None,,,,,,,,,,,,,,,,,,,,,,,,,,,,,,,,,,,69 sing,001,2022_Nov_01_1059,ProdSingRedoBetween,2021.2.3,59.82578726244381,
27,0,27,0,,,,,,,,,,,,,,,,,,,,,,,,,,315.09249759977683,None,motion,22,28,silent,yellow,313.09051929973066,None,None,313.09051929973066,None,,,,,,,,,,,,,,,,,,,,,,,,,,,,,,,,,,,69 sing,001,2022_Nov_01_1059,ProdSingRedoBetween,2021.2.3,59.82578726244381,
28,0,28,0,,,,,,,,,,,,,,,,,,,,,,,,,,317.59671019995585,None,author,72,29,silent,red,315.5946070998907,None,None,315.5946070998907,None,,,,,,,,,,,,,,,,,,,,,,,,,,,,,,,,,,,69 sing,001,2022_Nov_01_1059,ProdSingRedoBetween,2021.2.3,59.82578726244381,
29,0,29,0,,,,,,,,,,,,,,,,,,,,,,,,,,320.11439260002226,None,estate,63,30,silent,red,318.114612699952,None,None,318.114612699952,None,,,,,,,,,,,,,,,,,,,,,,,,,,,,,,,,,,,69 sing,001,2022_Nov_01_1059,ProdSingRedoBetween,2021.2.3,59.82578726244381,
30,0,30,0,,,,,,,,,,,,,,,,,,,,,,,,,,322.6334997001104,None,candidate,7,31,silent,yellow,320.6258148998022,None,None,320.6258148998022,None,,,,,,,,,,,,,,,,,,,,,,,,,,,,,,,,,,,69 sing,001,2022_Nov_01_1059,ProdSingRedoBetween,2021.2.3,59.82578726244381,
31,0,31,0,,,,,,,,,,,,,,,,,,,,,,,,,,325.1359572997317,None,cousin,62,32,silent,red,323.13472229987383,None,None,323.13472229987383,None,,,,,,,,,,,,,,,,,,,,,,,,,,,,,,,,,,,69 sing,001,2022_Nov_01_1059,ProdSingRedoBetween,2021.2.3,59.82578726244381,
32,0,32,0,,,,,,,,,,,,,,,,,,,,,,,,,,327.65486249979585,None,bureau,51,33,silent,blue,325.6399926999584,None,None,325.6399926999584,None,,,,,,,,,,,,,,,,,,,,,,,,,,,,,,,,,,,69 sing,001,2022_Nov_01_1059,ProdSingRedoBetween,2021.2.3,59.82578726244381,
33,0,33,0,,,,,,,,,,,,,,,,,,,,,,,,,,330.1579812001437,None,harmony,68,34,silent,red,328.1580686001107,None,None,328.1580686001107,None,,,,,,,,,,,,,,,,,,,,,,,,,,,,,,,,,,,69 sing,001,2022_Nov_01_1059,ProdSingRedoBetween,2021.2.3,59.82578726244381,
34,0,34,0,,,,,,,,,,,,,,,,,,,,,,,,,,332.676824899856,None,watch,18,35,silent,yellow,330.6609892998822,None,None,330.6609892998822,None,,,,,,,,,,,,,,,,,,,,,,,,,,,,,,,,,,,69 sing,001,2022_Nov_01_1059,ProdSingRedoBetween,2021.2.3,59.82578726244381,
35,0,35,0,,,,,,,,,,,,,,,,,,,,,,,,,,335.19571779994294,None,power,87,36,silent,red,333.18957789987326,None,None,333.18957789987326,None,,,,,,,,,,,,,,,,,,,,,,,,,,,,,,,,,,,69 sing,001,2022_Nov_01_1059,ProdSingRedoBetween,2021.2.3,59.82578726244381,
36,0,36,0,,,,,,,,,,,,,,,,,,,,,,,,,,337.7151887998916,None,reach,34,37,silent,blue,335.7004506001249,None,None,335.7004506001249,None,,,,,,,,,,,,,,,,,,,,,,,,,,,,,,,,,,,69 sing,001,2022_Nov_01_1059,ProdSingRedoBetween,2021.2.3,59.82578726244381,
37,0,37,0,,,,,,,,,,,,,,,,,,,,,,,,,,340.2176962001249,None,sleep,21,38,silent,yellow,338.21545480005443,None,None,338.21545480005443,None,,,,,,,,,,,,,,,,,,,,,,,,,,,,,,,,,,,69 sing,001,2022_Nov_01_1059,ProdSingRedoBetween,2021.2.3,59.82578726244381,
38,0,38,0,,,,,,,,,,,,,,,,,,,,,,,,,,342.7203047000803,None,level,67,39,silent,red,340.72035189997405,None,None,340.72035189997405,None,,,,,,,,,,,,,,,,,,,,,,,,,,,,,,,,,,,69 sing,001,2022_Nov_01_1059,ProdSingRedoBetween,2021.2.3,59.82578726244381,
39,0,39,0,,,,,,,,,,,,,,,,,,,,,,,,,,345.23871499998495,None,patient,65,40,silent,red,343.22496009990573,None,None,343.22496009990573,None,,,,,,,,,,,,,,,,,,,,,,,,,,,,,,,,,,,69 sing,001,2022_Nov_01_1059,ProdSingRedoBetween,2021.2.3,59.82578726244381,
40,0,40,0,,,,,,,,,,,,,,,,,,,,,,,,,,347.7419548998587,None,region,89,41,silent,red,345.7408676999621,None,None,345.7408676999621,None,,,,,,,,,,,,,,,,,,,,,,,,,,,,,,,,,,,69 sing,001,2022_Nov_01_1059,ProdSingRedoBetween,2021.2.3,59.82578726244381,
41,0,41,0,,,,,,,,,,,,,,,,,,,,,,,,,,350.2607025001198,None,collection,59,42,silent,yellow,348.2480072998442,None,None,348.2480072998442,None,,,,,,,,,,,,,,,,,,,,,,,,,,,,,,,,,,,69 sing,001,2022_Nov_01_1059,ProdSingRedoBetween,2021.2.3,59.82578726244381,
42,0,42,0,,,,,,,,,,,,,,,,,,,,,,,,,,352.7632738999091,None,rough,50,43,silent,blue,350.76199619984254,None,None,350.76199619984254,None,,,,,,,,,,,,,,,,,,,,,,,,,,,,,,,,,,,69 sing,001,2022_Nov_01_1059,ProdSingRedoBetween,2021.2.3,59.82578726244381,
43,0,43,0,,,,,,,,,,,,,,,,,,,,,,,,,,355.28227810002863,None,thing,57,44,silent,blue,353.2745946999639,None,None,353.2745946999639,None,,,,,,,,,,,,,,,,,,,,,,,,,,,,,,,,,,,69 sing,001,2022_Nov_01_1059,ProdSingRedoBetween,2021.2.3,59.82578726244381,
44,0,44,0,,,,,,,,,,,,,,,,,,,,,,,,,,357.7859879997559,None,degree,6,45,silent,yellow,355.7830642997287,None,None,355.7830642997287,None,,,,,,,,,,,,,,,,,,,,,,,,,,,,,,,,,,,69 sing,001,2022_Nov_01_1059,ProdSingRedoBetween,2021.2.3,59.82578726244381,
45,0,45,0,,,,,,,,,,,,,,,,,,,,,,,,,,360.2879428998567,None,comfort,39,46,silent,blue,358.28692380012944,None,None,358.28692380012944,None,,,,,,,,,,,,,,,,,,,,,,,,,,,,,,,,,,,69 sing,001,2022_Nov_01_1059,ProdSingRedoBetween,2021.2.3,59.82578726244381,
46,0,46,0,,,,,,,,,,,,,,,,,,,,,,,,,,362.8065561000258,None,season,85,47,silent,red,360.8037124001421,None,None,360.8037124001421,None,,,,,,,,,,,,,,,,,,,,,,,,,,,,,,,,,,,69 sing,001,2022_Nov_01_1059,ProdSingRedoBetween,2021.2.3,59.82578726244381,
47,0,47,0,,,,,,,,,,,,,,,,,,,,,,,,,,365.30918530002236,None,judge,37,48,silent,blue,363.30969859985635,None,None,363.30969859985635,None,,,,,,,,,,,,,,,,,,,,,,,,,,,,,,,,,,,69 sing,001,2022_Nov_01_1059,ProdSingRedoBetween,2021.2.3,59.82578726244381,
48,0,48,0,,,,,,,,,,,,,,,,,,,,,,,,,,367.81171769974753,None,trash,54,49,silent,blue,365.8111974000931,None,None,365.8111974000931,None,,,,,,,,,,,,,,,,,,,,,,,,,,,,,,,,,,,69 sing,001,2022_Nov_01_1059,ProdSingRedoBetween,2021.2.3,59.82578726244381,
49,0,49,0,,,,,,,,,,,,,,,,,,,,,,,,,,370.31418869970366,None,straight,71,50,silent,red,368.31491219997406,None,None,368.31491219997406,None,,,,,,,,,,,,,,,,,,,,,,,,,,,,,,,,,,,69 sing,001,2022_Nov_01_1059,ProdSingRedoBetween,2021.2.3,59.82578726244381,
50,0,50,0,,,,,,,,,,,,,,,,,,,,,,,,,,372.83379509998485,None,review,74,51,silent,red,370.8204525001347,None,None,370.8204525001347,None,,,,,,,,,,,,,,,,,,,,,,,,,,,,,,,,,,,69 sing,001,2022_Nov_01_1059,ProdSingRedoBetween,2021.2.3,59.82578726244381,
51,0,51,0,,,,,,,,,,,,,,,,,,,,,,,,,,375.33573119994253,None,shape,27,52,silent,yellow,373.33546830015257,None,None,373.33546830015257,None,,,,,,,,,,,,,,,,,,,,,,,,,,,,,,,,,,,69 sing,001,2022_Nov_01_1059,ProdSingRedoBetween,2021.2.3,59.82578726244381,
52,0,52,0,,,,,,,,,,,,,,,,,,,,,,,,,,377.8548880000599,None,universal,73,53,silent,red,375.84047099994496,None,None,375.84047099994496,None,,,,,,,,,,,,,,,,,,,,,,,,,,,,,,,,,,,69 sing,001,2022_Nov_01_1059,ProdSingRedoBetween,2021.2.3,59.82578726244381,
53,0,53,0,,,,,,,,,,,,,,,,,,,,,,,,,,380.35763019975275,None,member,66,54,silent,red,378.3559391000308,None,None,378.3559391000308,None,,,,,,,,,,,,,,,,,,,,,,,,,,,,,,,,,,,69 sing,001,2022_Nov_01_1059,ProdSingRedoBetween,2021.2.3,59.82578726244381,
54,0,54,0,,,,,,,,,,,,,,,,,,,,,,,,,,382.8602883997373,None,mechanical,79,55,silent,red,380.8582775997929,None,None,380.8582775997929,None,,,,,,,,,,,,,,,,,,,,,,,,,,,,,,,,,,,69 sing,001,2022_Nov_01_1059,ProdSingRedoBetween,2021.2.3,59.82578726244381,
55,0,55,0,,,,,,,,,,,,,,,,,,,,,,,,,,385.3792024999857,None,husband,4,56,silent,yellow,383.3648425997235,None,None,383.3648425997235,None,,,,,,,,,,,,,,,,,,,,,,,,,,,,,,,,,,,69 sing,001,2022_Nov_01_1059,ProdSingRedoBetween,2021.2.3,59.82578726244381,
56,0,56,0,,,,,,,,,,,,,,,,,,,,,,,,,,387.8818866000511,None,interior,10,57,silent,yellow,385.88157670013607,None,None,385.88157670013607,None,,,,,,,,,,,,,,,,,,,,,,,,,,,,,,,,,,,69 sing,001,2022_Nov_01_1059,ProdSingRedoBetween,2021.2.3,59.82578726244381,
57,0,57,0,,,,,,,,,,,,,,,,,,,,,,,,,,390.4007366998121,None,stranger,47,58,silent,blue,388.3850620999001,None,None,388.3850620999001,None,,,,,,,,,,,,,,,,,,,,,,,,,,,,,,,,,,,69 sing,001,2022_Nov_01_1059,ProdSingRedoBetween,2021.2.3,59.82578726244381,
58,0,58,0,,,,,,,,,,,,,,,,,,,,,,,,,,392.9198034000583,None,union,41,59,silent,blue,390.9046946000308,None,None,390.9046946000308,None,,,,,,,,,,,,,,,,,,,,,,,,,,,,,,,,,,,69 sing,001,2022_Nov_01_1059,ProdSingRedoBetween,2021.2.3,59.82578726244381,
59,0,59,0,,,,,,,,,,,,,,,,,,,,,,,,,,395.4399258000776,None,background,58,60,silent,blue,393.4350983998738,None,None,393.4350983998738,None,,,,,,,,,,,,,,,,,,,,,,,,,,,,,,,,,,,69 sing,001,2022_Nov_01_1059,ProdSingRedoBetween,2021.2.3,59.82578726244381,
60,0,60,0,,,,,,,,,,,,,,,,,,,,,,,,,,397.94433500012383,None,disease,28,61,silent,yellow,395.9396265000105,None,None,395.9396265000105,None,,,,,,,,,,,,,,,,,,,,,,,,,,,,,,,,,,,69 sing,001,2022_Nov_01_1059,ProdSingRedoBetween,2021.2.3,59.82578726244381,
61,0,61,0,,,,,,,,,,,,,,,,,,,,,,,,,,400.46089119976386,None,primary,86,62,silent,red,398.4462394998409,None,None,398.4462394998409,None,,,,,,,,,,,,,,,,,,,,,,,,,,,,,,,,,,,69 sing,001,2022_Nov_01_1059,ProdSingRedoBetween,2021.2.3,59.82578726244381,
62,0,62,0,,,,,,,,,,,,,,,,,,,,,,,,,,402.979902099818,None,debate,49,63,silent,blue,400.96497870003805,None,None,400.96497870003805,None,,,,,,,,,,,,,,,,,,,,,,,,,,,,,,,,,,,69 sing,001,2022_Nov_01_1059,ProdSingRedoBetween,2021.2.3,59.82578726244381,
63,0,63,0,,,,,,,,,,,,,,,,,,,,,,,,,,405.49928049976006,None,portion,9,64,silent,yellow,403.48714250000194,None,None,403.48714250000194,None,,,,,,,,,,,,,,,,,,,,,,,,,,,,,,,,,,,69 sing,001,2022_Nov_01_1059,ProdSingRedoBetween,2021.2.3,59.82578726244381,
64,0,64,0,,,,,,,,,,,,,,,,,,,,,,,,,,408.01864220015705,None,discovery,55,65,silent,blue,406.01435749977827,None,None,406.01435749977827,None,,,,,,,,,,,,,,,,,,,,,,,,,,,,,,,,,,,69 sing,001,2022_Nov_01_1059,ProdSingRedoBetween,2021.2.3,59.82578726244381,
65,0,65,0,,,,,,,,,,,,,,,,,,,,,,,,,,410.52123149996623,None,concern,15,66,silent,yellow,408.5204717000015,None,None,408.5204717000015,None,,,,,,,,,,,,,,,,,,,,,,,,,,,,,,,,,,,69 sing,001,2022_Nov_01_1059,ProdSingRedoBetween,2021.2.3,59.82578726244381,
66,0,66,0,,,,,,,,,,,,,,,,,,,,,,,,,,413.0398786999285,None,gesture,64,67,silent,red,411.0292289997451,None,None,411.0292289997451,None,,,,,,,,,,,,,,,,,,,,,,,,,,,,,,,,,,,69 sing,001,2022_Nov_01_1059,ProdSingRedoBetween,2021.2.3,59.82578726244381,
67,0,67,0,,,,,,,,,,,,,,,,,,,,,,,,,,415.5592509000562,None,ground,43,68,silent,blue,413.54618169972673,None,None,413.54618169972673,None,,,,,,,,,,,,,,,,,,,,,,,,,,,,,,,,,,,69 sing,001,2022_Nov_01_1059,ProdSingRedoBetween,2021.2.3,59.82578726244381,
68,0,68,0,,,,,,,,,,,,,,,,,,,,,,,,,,418.06169819971547,None,produce,77,69,silent,red,416.06032209983096,None,None,416.06032209983096,None,,,,,,,,,,,,,,,,,,,,,,,,,,,,,,,,,,,69 sing,001,2022_Nov_01_1059,ProdSingRedoBetween,2021.2.3,59.82578726244381,
69,0,69,0,,,,,,,,,,,,,,,,,,,,,,,,,,420.5642085997388,None,track,80,70,silent,red,418.56366899982095,None,None,418.56366899982095,None,,,,,,,,,,,,,,,,,,,,,,,,,,,,,,,,,,,69 sing,001,2022_Nov_01_1059,ProdSingRedoBetween,2021.2.3,59.82578726244381,
70,0,70,0,,,,,,,,,,,,,,,,,,,,,,,,,,423.08334599994123,None,silence,36,71,silent,blue,421.0784660000354,None,None,421.0784660000354,None,,,,,,,,,,,,,,,,,,,,,,,,,,,,,,,,,,,69 sing,001,2022_Nov_01_1059,ProdSingRedoBetween,2021.2.3,59.82578726244381,
71,0,71,0,,,,,,,,,,,,,,,,,,,,,,,,,,425.58608549972996,None,beauty,32,72,silent,blue,423.58439789991826,None,None,423.58439789991826,None,,,,,,,,,,,,,,,,,,,,,,,,,,,,,,,,,,,69 sing,001,2022_Nov_01_1059,ProdSingRedoBetween,2021.2.3,59.82578726244381,
72,0,72,0,,,,,,,,,,,,,,,,,,,,,,,,,,428.1054062000476,None,smooth,45,73,silent,blue,426.09061719989404,None,None,426.09061719989404,None,,,,,,,,,,,,,,,,,,,,,,,,,,,,,,,,,,,69 sing,001,2022_Nov_01_1059,ProdSingRedoBetween,2021.2.3,59.82578726244381,
73,0,73,0,,,,,,,,,,,,,,,,,,,,,,,,,,430.6076349001378,None,marriage,75,74,silent,red,428.60644969996065,None,None,428.60644969996065,None,,,,,,,,,,,,,,,,,,,,,,,,,,,,,,,,,,,69 sing,001,2022_Nov_01_1059,ProdSingRedoBetween,2021.2.3,59.82578726244381,
74,0,74,0,,,,,,,,,,,,,,,,,,,,,,,,,,433.1301509998739,None,narrow,14,75,silent,yellow,431.11232399987057,None,None,431.11232399987057,None,,,,,,,,,,,,,,,,,,,,,,,,,,,,,,,,,,,69 sing,001,2022_Nov_01_1059,ProdSingRedoBetween,2021.2.3,59.82578726244381,
75,0,75,0,,,,,,,,,,,,,,,,,,,,,,,,,,435.64553359989077,None,direction,25,76,silent,yellow,433.6303288997151,None,None,433.6303288997151,None,,,,,,,,,,,,,,,,,,,,,,,,,,,,,,,,,,,69 sing,001,2022_Nov_01_1059,ProdSingRedoBetween,2021.2.3,59.82578726244381,
76,0,76,0,,,,,,,,,,,,,,,,,,,,,,,,,,438.1650276998989,None,waste,35,77,silent,blue,436.151582499966,None,None,436.151582499966,None,,,,,,,,,,,,,,,,,,,,,,,,,,,,,,,,,,,69 sing,001,2022_Nov_01_1059,ProdSingRedoBetween,2021.2.3,59.82578726244381,
77,0,77,0,,,,,,,,,,,,,,,,,,,,,,,,,,440.66818249970675,None,death,60,78,silent,red,438.66688639996573,None,None,438.66688639996573,None,,,,,,,,,,,,,,,,,,,,,,,,,,,,,,,,,,,69 sing,001,2022_Nov_01_1059,ProdSingRedoBetween,2021.2.3,59.82578726244381,
78,0,78,0,,,,,,,,,,,,,,,,,,,,,,,,,,443.18672259990126,None,treatment,19,79,silent,yellow,441.17111549992114,None,None,441.17111549992114,None,,,,,,,,,,,,,,,,,,,,,,,,,,,,,,,,,,,69 sing,001,2022_Nov_01_1059,ProdSingRedoBetween,2021.2.3,59.82578726244381,
79,0,79,0,,,,,,,,,,,,,,,,,,,,,,,,,,445.68937849998474,None,owner,11,80,silent,yellow,443.6897665001452,None,None,443.6897665001452,None,,,,,,,,,,,,,,,,,,,,,,,,,,,,,,,,,,,69 sing,001,2022_Nov_01_1059,ProdSingRedoBetween,2021.2.3,59.82578726244381,
80,0,80,0,,,,,,,,,,,,,,,,,,,,,,,,,,448.1920435000211,None,medicine,1,81,silent,yellow,446.19248449988663,None,None,446.19248449988663,None,,,,,,,,,,,,,,,,,,,,,,,,,,,,,,,,,,,69 sing,001,2022_Nov_01_1059,ProdSingRedoBetween,2021.2.3,59.82578726244381,
81,0,81,0,,,,,,,,,,,,,,,,,,,,,,,,,,450.7109433999285,None,accident,84,82,silent,red,448.69553459994495,None,None,448.69553459994495,None,,,,,,,,,,,,,,,,,,,,,,,,,,,,,,,,,,,69 sing,001,2022_Nov_01_1059,ProdSingRedoBetween,2021.2.3,59.82578726244381,
82,0,82,0,,,,,,,,,,,,,,,,,,,,,,,,,,453.21385109983385,None,edition,40,83,silent,blue,451.21394609985873,None,None,451.21394609985873,None,,,,,,,,,,,,,,,,,,,,,,,,,,,,,,,,,,,69 sing,001,2022_Nov_01_1059,ProdSingRedoBetween,2021.2.3,59.82578726244381,
83,0,83,0,,,,,,,,,,,,,,,,,,,,,,,,,,455.73274420015514,None,tennis,69,84,silent,red,453.72679059999064,None,None,453.72679059999064,None,,,,,,,,,,,,,,,,,,,,,,,,,,,,,,,,,,,69 sing,001,2022_Nov_01_1059,ProdSingRedoBetween,2021.2.3,59.82578726244381,
84,0,84,0,,,,,,,,,,,,,,,,,,,,,,,,,,458.2504575997591,None,contract,44,85,silent,blue,456.2337138997391,None,None,456.2337138997391,None,,,,,,,,,,,,,,,,,,,,,,,,,,,,,,,,,,,69 sing,001,2022_Nov_01_1059,ProdSingRedoBetween,2021.2.3,59.82578726244381,
85,0,85,0,,,,,,,,,,,,,,,,,,,,,,,,,,460.75430000014603,None,quarter,33,86,silent,blue,458.75520240003243,None,None,458.75520240003243,None,,,,,,,,,,,,,,,,,,,,,,,,,,,,,,,,,,,69 sing,001,2022_Nov_01_1059,ProdSingRedoBetween,2021.2.3,59.82578726244381,
86,0,86,0,,,,,,,,,,,,,,,,,,,,,,,,,,463.2566452999599,None,passage,0,87,silent,yellow,461.2573743998073,None,None,461.2573743998073,None,,,,,,,,,,,,,,,,,,,,,,,,,,,,,,,,,,,69 sing,001,2022_Nov_01_1059,ProdSingRedoBetween,2021.2.3,59.82578726244381,
87,0,87,0,,,,,,,,,,,,,,,,,,,,,,,,,,465.75889150006697,None,public,61,88,silent,red,463.7603829000145,None,None,463.7603829000145,None,,,,,,,,,,,,,,,,,,,,,,,,,,,,,,,,,,,69 sing,001,2022_Nov_01_1059,ProdSingRedoBetween,2021.2.3,59.82578726244381,
88,0,88,0,,,,,,,,,,,,,,,,,,,,,,,,,,468.2621797998436,None,quick,13,89,silent,yellow,466.26338759995997,None,None,466.26338759995997,None,,,,,,,,,,,,,,,,,,,,,,,,,,,,,,,,,,,69 sing,001,2022_Nov_01_1059,ProdSingRedoBetween,2021.2.3,59.82578726244381,
89,0,89,0,,,,,,,,,,,,,,,,,,,,,,,,,,470.76435399986804,None,frank,82,90,silent,red,468.76505529973656,None,None,468.76505529973656,None,,,,,,,,,,,,,,,,,,,,,,,,,,,,,,,,,,,69 sing,001,2022_Nov_01_1059,ProdSingRedoBetween,2021.2.3,59.82578726244381,
,,,,,,,,,,,,,,,,,,,,,,,,,,,,,,,,,,,,,,,,,471.26488769985735,None,k,67.24812339991331,471.26488769985735,None,,,,,,,,,,,,,,,,,,,,,,,,,,,,,69 sing,001,2022_Nov_01_1059,ProdSingRedoBetween,2021.2.3,59.82578726244381,
,,,,0,0,0,0,,,,,,,,,,,,,,,,,,,,,,551.6802258999087,None,,,,,,,,,,,,,,,,,hunger,178,1,silent,new,null,539.0449043000117,None,539.0449043000117,None,6,8.427581900265068,539.0449043000117,None,8.427581900265068,547.4931486998685,None,548.0132355997339,None,548.0132355997339,None,r,3.642998800147325,548.0132355997339,None,3.642998800147325,,,69 sing,001,2022_Nov_01_1059,ProdSingRedoBetween,2021.2.3,59.82578726244381,
,,,,1,0,1,0,,,,,,,,,,,,,,,,,,,,,,561.4894429999404,None,,,,,,,,,,,,,,,,,bright,93,2,silent,new,null,552.1969997999258,None,552.1969997999258,None,6,7.203561999835074,552.1969997999258,None,7.203561999835074,559.4215628998354,None,559.937336999923,None,559.937336999923,None,r,1.5269097001291811,559.937336999923,None,1.5269097001291811,,,69 sing,001,2022_Nov_01_1059,ProdSingRedoBetween,2021.2.3,59.82578726244381,
,,,,2,0,2,0,,,,,,,,,,,,,,,,,,,,,,594.7377915000543,None,,,,,,,,,,,,,,,,,point,30,3,silent,old,blue,561.9916361998767,None,561.9916361998767,None,1,29.440884500276297,561.9916361998767,None,29.440884500276297,591.4532603998668,None,591.9687834000215,None,591.9687834000215,None,n,2.74338599992916,591.9687834000215,None,2.74338599992916,,,69 sing,001,2022_Nov_01_1059,ProdSingRedoBetween,2021.2.3,59.82578726244381,
,,,,3,0,3,0,,,,,,,,,,,,,,,,,,,,,,601.7138779000379,None,,,,,,,,,,,,,,,,,gesture,64,4,silent,old,red,595.2479806998745,None,595.2479806998745,None,6,5.592106899712235,595.2479806998745,None,5.592106899712235,600.8727301997133,None,601.3784946999513,None,601.3784946999513,None,r,0.3016600999981165,601.3784946999513,None,0.3016600999981165,,,69 sing,001,2022_Nov_01_1059,ProdSingRedoBetween,2021.2.3,59.82578726244381,
,,,,4,0,4,0,,,,,,,,,,,,,,,,,,,,,,612.040769000072,None,,,,,,,,,,,,,,,,,safety,134,5,silent,new,null,602.231205899734,None,602.231205899734,None,1,4.025318500120193,602.231205899734,None,4.025318500120193,606.3088189000264,None,606.8189069000073,None,606.8189069000073,None,n,5.189276400022209,606.8189069000073,None,5.189276400022209,,,69 sing,001,2022_Nov_01_1059,ProdSingRedoBetween,2021.2.3,59.82578726244381,
,,,,5,0,5,0,,,,,,,,,,,,,,,,,,,,,,616.3611495001242,None,,,,,,,,,,,,,,,,,symbol,78,6,silent,old,red,612.5593396998011,None,612.5593396998011,None,6,3.032970499712974,612.5593396998011,None,3.032970499712974,615.6130666998215,None,616.1259578000754,None,616.1259578000754,None,r,0.2181794000789523,616.1259578000754,None,0.2181794000789523,,,69 sing,001,2022_Nov_01_1059,ProdSingRedoBetween,2021.2.3,59.82578726244381,
,,,,6,0,6,0,,,,,,,,,,,,,,,,,,,,,,622.9345987001434,None,,,,,,,,,,,,,,,,,question,118,7,silent,new,null,616.8639766997658,None,616.8639766997658,None,6,5.296363600064069,616.8639766997658,None,5.296363600064069,622.1873591998592,None,622.7004422000609,None,622.7004422000609,None,r,0.21180689986795187,622.7004422000609,None,0.21180689986795187,,,69 sing,001,2022_Nov_01_1059,ProdSingRedoBetween,2021.2.3,59.82578726244381,
,,,,7,0,7,0,,,,,,,,,,,,,,,,,,,,,,628.5548922996968,None,,,,,,,,,,,,,,,,,agency,158,8,silent,new,null,623.4518192000687,None,623.4518192000687,None,1,4.468442100100219,623.4518192000687,None,4.468442100100219,627.9433955000713,None,628.4566993997432,None,628.4566993997432,None,n,0.07134919986128807,628.4566993997432,None,0.07134919986128807,,,69 sing,001,2022_Nov_01_1059,ProdSingRedoBetween,2021.2.3,59.82578726244381,
,,,,8,0,8,0,,,,,,,,,,,,,,,,,,,,,,633.1108749997802,None,,,,,,,,,,,,,,,,,trail,117,9,silent,new,null,629.0570940999314,None,629.0570940999314,None,1,3.151687099598348,629.0570940999314,None,3.151687099598348,632.2419533999637,None,632.7432856997475,None,632.7432856997475,None,n,0.34491970017552376,632.7432856997475,None,0.34491970017552376,,,69 sing,001,2022_Nov_01_1059,ProdSingRedoBetween,2021.2.3,59.82578726244381,
,,,,9,0,9,0,,,,,,,,,,,,,,,,,,,,,,635.9304013000801,None,,,,,,,,,,,,,,,,,level,67,10,silent,old,red,633.6123632998206,None,633.6123632998206,None,1,1.459774199873209,633.6123632998206,None,1.459774199873209,635.0992358000949,None,635.6125773997046,None,635.6125773997046,None,n,0.2995490999892354,635.6125773997046,None,0.2995490999892354,,,69 sing,001,2022_Nov_01_1059,ProdSingRedoBetween,2021.2.3,59.82578726244381,
,,,,10,0,10,0,,,,,,,,,,,,,,,,,,,,,,639.034181300085,None,,,,,,,,,,,,,,,,,finance,115,11,silent,new,null,636.4412066997029,None,636.4412066997029,None,1,1.8389192000031471,636.4412066997029,None,1.8389192000031471,638.3006532997824,None,638.8172364998609,None,638.8172364998609,None,n,0.19903550017625093,638.8172364998609,None,0.19903550017625093,,,69 sing,001,2022_Nov_01_1059,ProdSingRedoBetween,2021.2.3,59.82578726244381,
,,,,11,0,11,0,,,,,,,,,,,,,,,,,,,,,,641.1662721997127,None,,,,,,,,,,,,,,,,,crime,129,12,silent,new,null,639.5504637998529,None,639.5504637998529,None,1,0.993658300023526,639.5504637998529,None,0.993658300023526,640.5688033998013,None,641.0871601998806,None,641.0871601998806,None,n,0.04933409998193383,641.0871601998806,None,0.04933409998193383,,,69 sing,001,2022_Nov_01_1059,ProdSingRedoBetween,2021.2.3,59.82578726244381,
,,,,12,0,12,0,,,,,,,,,,,,,,,,,,,,,,644.3894516997971,None,,,,,,,,,,,,,,,,,military,152,13,silent,new,null,641.6711499998346,None,641.6711499998346,None,1,2.0490235001780093,641.6711499998346,None,2.0490235001780093,643.739022700116,None,644.2545722001232,None,644.2545722001232,None,n,0.11380389984697104,644.2545722001232,None,0.11380389984697104,,,69 sing,001,2022_Nov_01_1059,ProdSingRedoBetween,2021.2.3,59.82578726244381,
,,,,13,0,13,0,,,,,,,,,,,,,,,,,,,,,,648.2430000999011,None,,,,,,,,,,,,,,,,,health,138,14,silent,new,null,644.9104713001288,None,644.9104713001288,None,1,2.569601799827069,644.9104713001288,None,2.569601799827069,647.5094027998857,None,648.0283932997845,None,648.0283932997845,None,n,0.18769879965111613,648.0283932997845,None,0.18769879965111613,,,69 sing,001,2022_Nov_01_1059,ProdSingRedoBetween,2021.2.3,59.82578726244381,
,,,,14,0,14,0,,,,,,,,,,,,,,,,,,,,,,651.5794466999359,None,,,,,,,,,,,,,,,,,harmony,68,15,silent,old,red,648.7728054998443,None,648.7728054998443,None,6,1.8994946000166237,648.7728054998443,None,1.8994946000166237,650.6966667999513,None,651.2114919000305,None,651.2114919000305,None,r,0.3487363997846842,651.2114919000305,None,0.3487363997846842,,,69 sing,001,2022_Nov_01_1059,ProdSingRedoBetween,2021.2.3,59.82578726244381,
,,,,15,0,15,0,,,,,,,,,,,,,,,,,,,,,,655.6663830000907,None,,,,,,,,,,,,,,,,,design,101,16,silent,new,null,652.0815055998974,None,652.0815055998974,None,6,1.3105854000896215,652.0815055998974,None,1.3105854000896215,653.4160290998407,None,653.9322864999995,None,653.9322864999995,None,r,1.7078954996541142,653.9322864999995,None,1.7078954996541142,,,69 sing,001,2022_Nov_01_1059,ProdSingRedoBetween,2021.2.3,59.82578726244381,
,,,,16,0,16,0,,,,,,,,,,,,,,,,,,,,,,658.5364858000539,None,,,,,,,,,,,,,,,,,union,41,17,silent,old,blue,656.1696349997073,None,656.1696349997073,None,6,1.4628598000854254,656.1696349997073,None,1.4628598000854254,657.6525324997492,None,658.1707267998718,None,658.1707267998718,None,r,0.34937419975176454,658.1707267998718,None,0.34937419975176454,,,69 sing,001,2022_Nov_01_1059,ProdSingRedoBetween,2021.2.3,59.82578726244381,
,,,,17,0,17,0,,,,,,,,,,,,,,,,,,,,,,662.1734968000092,None,,,,,,,,,,,,,,,,,skill,162,18,silent,new,null,659.0548959998414,None,659.0548959998414,None,1,2.3295858995988965,659.0548959998414,None,2.3295858995988965,661.4077550000511,None,661.9216251997277,None,661.9216251997277,None,n,0.22243470000103116,661.9216251997277,None,0.22243470000103116,,,69 sing,001,2022_Nov_01_1059,ProdSingRedoBetween,2021.2.3,59.82578726244381,
,,,,18,0,18,0,,,,,,,,,,,,,,,,,,,,,,670.26577920001,None,,,,,,,,,,,,,,,,,sound,99,19,silent,new,null,662.6906317998655,None,662.6906317998655,None,6,6.925313500221819,662.6906317998655,None,6.925313500221819,669.6487222998403,None,670.160184300039,None,670.160184300039,None,r,0.08787410007789731,670.160184300039,None,0.08787410007789731,,,69 sing,001,2022_Nov_01_1059,ProdSingRedoBetween,2021.2.3,59.82578726244381,
,,,,19,0,19,0,,,,,,,,,,,,,,,,,,,,,,673.0136620998383,None,,,,,,,,,,,,,,,,,quick,13,20,silent,old,yellow,670.7947041997686,None,670.7947041997686,None,6,1.5093042999505997,670.7947041997686,None,1.5093042999505997,672.3341246997006,None,672.8542347997427,None,672.8542347997427,None,r,0.129846700001508,672.8542347997427,None,0.129846700001508,,,69 sing,001,2022_Nov_01_1059,ProdSingRedoBetween,2021.2.3,59.82578726244381,
,,,,20,0,20,0,,,,,,,,,,,,,,,,,,,,,,676.2037078998983,None,,,,,,,,,,,,,,,,,motion,22,21,silent,old,yellow,673.5267039998434,None,673.5267039998434,None,1,1.633303300011903,673.5267039998434,None,1.633303300011903,675.1881248997524,None,675.7017258997075,None,675.7017258997075,None,n,0.4743178002536297,675.7017258997075,None,0.4743178002536297,,,69 sing,001,2022_Nov_01_1059,ProdSingRedoBetween,2021.2.3,59.82578726244381,
,,,,21,0,21,0,,,,,,,,,,,,,,,,,,,,,,680.3078168998472,None,,,,,,,,,,,,,,,,,education,95,22,silent,new,null,676.7054229001515,None,676.7054229001515,None,1,2.574655399657786,676.7054229001515,None,2.574655399657786,679.3087443001568,None,679.8234709999524,None,679.8234709999524,None,n,0.45681219967082143,679.8234709999524,None,0.45681219967082143,,,69 sing,001,2022_Nov_01_1059,ProdSingRedoBetween,2021.2.3,59.82578726244381,
,,,,22,0,22,0,,,,,,,,,,,,,,,,,,,,,,683.9283010000363,None,,,,,,,,,,,,,,,,,capital,20,23,silent,old,yellow,680.8097505997866,None,680.8097505997866,None,6,1.7662752000615,680.8097505997866,None,1.7662752000615,682.5966837001033,None,683.1250486001372,None,683.1250486001372,None,r,0.770983999595046,683.1250486001372,None,0.770983999595046,,,69 sing,001,2022_Nov_01_1059,ProdSingRedoBetween,2021.2.3,59.82578726244381,
,,,,23,0,23,0,,,,,,,,,,,,,,,,,,,,,,686.6270570000634,None,,,,,,,,,,,,,,,,,leader,48,24,silent,old,blue,684.4297323999926,None,684.4297323999926,None,6,1.3223624997772276,684.4297323999926,None,1.3223624997772276,685.7808757000603,None,686.2918289997615,None,686.2918289997615,None,r,0.29220600007101893,686.2918289997615,None,0.29220600007101893,,,69 sing,001,2022_Nov_01_1059,ProdSingRedoBetween,2021.2.3,59.82578726244381,
,,,,24,0,24,0,,,,,,,,,,,,,,,,,,,,,,689.23506119987,None,,,,,,,,,,,,,,,,,fight,137,25,silent,new,null,687.1314497999847,None,687.1314497999847,None,1,1.3005194002762437,687.1314497999847,None,1.3005194002762437,688.4516829997301,None,688.9684314997867,None,688.9684314997867,None,n,0.24793560011312366,688.9684314997867,None,0.24793560011312366,,,69 sing,001,2022_Nov_01_1059,ProdSingRedoBetween,2021.2.3,59.82578726244381,
,,,,25,0,25,0,,,,,,,,,,,,,,,,,,,,,,691.7655869997106,None,,,,,,,,,,,,,,,,,throw,116,26,silent,new,null,689.7514371001162,None,689.7514371001162,None,1,0.9925794997252524,689.7514371001162,None,0.9925794997252524,690.7733980999328,None,691.2870359998196,None,691.2870359998196,None,n,0.4410307998768985,691.2870359998196,None,0.4410307998768985,,,69 sing,001,2022_Nov_01_1059,ProdSingRedoBetween,2021.2.3,59.82578726244381,
,,,,26,0,26,0,,,,,,,,,,,,,,,,,,,,,,717.9639391000383,None,,,,,,,,,,,,,,,,,discovery,55,27,silent,old,blue,692.2725224997848,None,692.2725224997848,None,1,24.711447299923748,692.2725224997848,None,24.711447299923748,717.0132959997281,None,717.5283820000477,None,717.5283820000477,None,n,0.41569679975509644,717.5283820000477,None,0.41569679975509644,,,69 sing,001,2022_Nov_01_1059,ProdSingRedoBetween,2021.2.3,59.82578726244381,
,,,,27,0,27,0,,,,,,,,,,,,,,,,,,,,,,723.8854096001014,None,,,,,,,,,,,,,,,,,clear,143,28,silent,new,null,718.4800287000835,None,718.4800287000835,None,1,4.479944200254977,718.4800287000835,None,4.479944200254977,722.9840349000879,None,723.4997515999712,None,723.4997515999712,None,n,0.3561506997793913,723.4997515999712,None,0.3561506997793913,,,69 sing,001,2022_Nov_01_1059,ProdSingRedoBetween,2021.2.3,59.82578726244381,
,,,,28,0,28,0,,,,,,,,,,,,,,,,,,,,,,727.6877260999754,None,,,,,,,,,,,,,,,,,member,66,29,silent,old,red,724.4069209997542,None,724.4069209997542,None,6,2.5530297998338938,724.4069209997542,None,2.5530297998338938,726.9887839998119,None,727.5055558998138,None,727.5055558998138,None,r,0.15041249990463257,727.5055558998138,None,0.15041249990463257,,,69 sing,001,2022_Nov_01_1059,ProdSingRedoBetween,2021.2.3,59.82578726244381,
,,,,29,0,29,0,,,,,,,,,,,,,,,,,,,,,,731.2423573001288,None,,,,,,,,,,,,,,,,,brilliant,106,30,silent,new,null,728.1902685998939,None,728.1902685998939,None,1,1.1216514999978244,728.1902685998939,None,1.1216514999978244,729.3408880000934,None,729.8601878001355,None,729.8601878001355,None,n,1.3558237003162503,729.8601878001355,None,1.3558237003162503,,,69 sing,001,2022_Nov_01_1059,ProdSingRedoBetween,2021.2.3,59.82578726244381,
,,,,30,0,30,0,,,,,,,,,,,,,,,,,,,,,,737.298294399865,None,,,,,,,,,,,,,,,,,write,42,31,silent,old,blue,731.7448106999509,None,731.7448106999509,None,6,2.3750243997201324,731.7448106999509,None,2.3750243997201324,734.1546236998402,None,734.6613944000565,None,734.6613944000565,None,r,2.6186076998710632,734.6613944000565,None,2.6186076998710632,,,69 sing,001,2022_Nov_01_1059,ProdSingRedoBetween,2021.2.3,59.82578726244381,
,,,,31,0,31,0,,,,,,,,,,,,,,,,,,,,,,740.5671783001162,None,,,,,,,,,,,,,,,,,burden,172,32,silent,new,null,737.8186156000011,None,737.8186156000011,None,6,1.8693103003315628,737.8186156000011,None,1.8693103003315628,739.7186408000998,None,740.2406053999439,None,740.2406053999439,None,r,0.29534419998526573,740.2406053999439,None,0.29534419998526573,,,69 sing,001,2022_Nov_01_1059,ProdSingRedoBetween,2021.2.3,59.82578726244381,
,,,,32,0,32,0,,,,,,,,,,,,,,,,,,,,,,744.5214110999368,None,,,,,,,,,,,,,,,,,present,26,33,silent,old,yellow,741.0691150999628,None,741.0691150999628,None,6,1.4349127998575568,741.0691150999628,None,1.4349127998575568,742.5374189997092,None,743.0539218001068,None,743.0539218001068,None,r,1.442002400290221,743.0539218001068,None,1.442002400290221,,,69 sing,001,2022_Nov_01_1059,ProdSingRedoBetween,2021.2.3,59.82578726244381,
,,,,33,0,33,0,,,,,,,,,,,,,,,,,,,,,,747.6083990000188,None,,,,,,,,,,,,,,,,,still,144,34,silent,new,null,745.0244168001227,None,745.0244168001227,None,1,1.7754970001988113,745.0244168001227,None,1.7754970001988113,746.8255129000172,None,747.3405343000777,None,747.3405343000777,None,n,0.23546059988439083,747.3405343000777,None,0.23546059988439083,,,69 sing,001,2022_Nov_01_1059,ProdSingRedoBetween,2021.2.3,59.82578726244381,
,,,,34,0,34,0,,,,,,,,,,,,,,,,,,,,,,750.4160553999245,None,,,,,,,,,,,,,,,,,piece,121,35,silent,new,null,748.110504699871,None,748.110504699871,None,1,1.4574037999846041,748.110504699871,None,1.4574037999846041,749.594812199939,None,750.1143636000343,None,750.1143636000343,None,n,0.2775946003384888,750.1143636000343,None,0.2775946003384888,,,69 sing,001,2022_Nov_01_1059,ProdSingRedoBetween,2021.2.3,59.82578726244381,
,,,,35,0,35,0,,,,,,,,,,,,,,,,,,,,,,753.1655862997286,None,,,,,,,,,,,,,,,,,review,74,36,silent,old,red,750.929680199828,None,750.929680199828,None,6,1.5666513000614941,750.929680199828,None,1.5666513000614941,752.5334004997276,None,753.0480808001012,None,753.0480808001012,None,r,0.09616499999538064,753.0480808001012,None,0.09616499999538064,,,69 sing,001,2022_Nov_01_1059,ProdSingRedoBetween,2021.2.3,59.82578726244381,
,,,,36,0,36,0,,,,,,,,,,,,,,,,,,,,,,755.2835611999035,None,,,,,,,,,,,,,,,,,public,61,37,silent,old,red,753.681923000142,None,753.681923000142,None,6,0.9899808000773191,753.681923000142,None,0.9899808000773191,754.7006032997742,None,755.2153226998635,None,755.2153226998635,None,r,0.04071610001847148,755.2153226998635,None,0.04071610001847148,,,69 sing,001,2022_Nov_01_1059,ProdSingRedoBetween,2021.2.3,59.82578726244381,
,,,,37,0,37,0,,,,,,,,,,,,,,,,,,,,,,758.8361388999037,None,,,,,,,,,,,,,,,,,sleep,21,38,silent,old,yellow,755.8002627999522,None,755.8002627999522,None,6,1.279916699975729,755.8002627999522,None,1.279916699975729,757.1022876999341,None,757.6174687999301,None,757.6174687999301,None,r,1.1904678996652365,757.6174687999301,None,1.1904678996652365,,,69 sing,001,2022_Nov_01_1059,ProdSingRedoBetween,2021.2.3,59.82578726244381,
,,,,38,0,38,0,,,,,,,,,,,,,,,,,,,,,,761.0538797001354,None,,,,,,,,,,,,,,,,,working,17,39,silent,old,yellow,759.3389119999483,None,759.3389119999483,None,6,1.0690125999972224,759.3389119999483,None,1.0690125999972224,760.4404405998066,None,760.957175699994,None,760.957175699994,None,r,0.06712029967457056,760.957175699994,None,0.06712029967457056,,,69 sing,001,2022_Nov_01_1059,ProdSingRedoBetween,2021.2.3,59.82578726244381,
,,,,39,0,39,0,,,,,,,,,,,,,,,,,,,,,,763.3565421998501,None,,,,,,,,,,,,,,,,,vision,108,40,silent,new,null,761.564216000028,None,761.564216000028,None,1,1.1156081999652088,761.564216000028,None,1.1156081999652088,762.7084663999267,None,763.2231490998529,None,763.2231490998529,None,n,0.10472780000418425,763.2231490998529,None,0.10472780000418425,,,69 sing,001,2022_Nov_01_1059,ProdSingRedoBetween,2021.2.3,59.82578726244381,
,,,,40,0,40,0,,,,,,,,,,,,,,,,,,,,,,770.1315490999259,None,,,,,,,,,,,,,,,,,volume,163,41,silent,new,null,763.8639674996957,None,763.8639674996957,None,1,5.455969600006938,763.8639674996957,None,5.455969600006938,769.3483665999956,None,769.8677369998768,None,769.8677369998768,None,n,0.24414000008255243,769.8677369998768,None,0.24414000008255243,,,69 sing,001,2022_Nov_01_1059,ProdSingRedoBetween,2021.2.3,59.82578726244381,
,,,,41,0,41,0,,,,,,,,,,,,,,,,,,,,,,772.5833010999486,None,,,,,,,,,,,,,,,,,suspect,122,42,silent,new,null,770.6490291999653,None,770.6490291999653,None,1,1.1668445002287626,770.6490291999653,None,1.1668445002287626,771.8332735998556,None,772.3483859999105,None,772.3483859999105,None,n,0.2034994000568986,772.3483859999105,None,0.2034994000568986,,,69 sing,001,2022_Nov_01_1059,ProdSingRedoBetween,2021.2.3,59.82578726244381,
,,,,42,0,42,0,,,,,,,,,,,,,,,,,,,,,,774.7861907999031,None,,,,,,,,,,,,,,,,,degree,6,43,silent,old,yellow,773.085253899917,None,773.085253899917,None,6,1.0986727001145482,773.085253899917,None,1.0986727001145482,774.2024628999643,None,774.7176632001065,None,774.7176632001065,None,r,0.05041240015998483,774.7176632001065,None,0.05041240015998483,,,69 sing,001,2022_Nov_01_1059,ProdSingRedoBetween,2021.2.3,59.82578726244381,
,,,,43,0,43,0,,,,,,,,,,,,,,,,,,,,,,778.4571823999286,None,,,,,,,,,,,,,,,,,build,92,44,silent,new,null,775.3032426997088,None,775.3032426997088,None,6,2.472555700223893,775.3032426997088,None,2.472555700223893,777.8051519999281,None,778.3050600998104,None,778.3050600998104,None,r,0.13485649973154068,778.3050600998104,None,0.13485649973154068,,,69 sing,001,2022_Nov_01_1059,ProdSingRedoBetween,2021.2.3,59.82578726244381,
,,,,44,0,44,0,,,,,,,,,,,,,,,,,,,,,,780.6080899001099,None,,,,,,,,,,,,,,,,,finish,148,45,silent,new,null,778.9798531001434,None,778.9798531001434,None,1,1.0279493001289666,778.9798531001434,None,1.0279493001289666,780.0252673998475,None,780.5411438997835,None,780.5411438997835,None,n,0.04276350000873208,780.5411438997835,None,0.04276350000873208,,,69 sing,001,2022_Nov_01_1059,ProdSingRedoBetween,2021.2.3,59.82578726244381,
,,,,45,0,45,0,,,,,,,,,,,,,,,,,,,,,,783.0604356001131,None,,,,,,,,,,,,,,,,,measure,156,46,silent,new,null,781.1174562997185,None,781.1174562997185,None,1,1.194397899787873,781.1174562997185,None,1.194397899787873,782.3450353001244,None,782.8592560999095,None,782.8592560999095,None,n,0.17259459989145398,782.8592560999095,None,0.17259459989145398,,,69 sing,001,2022_Nov_01_1059,ProdSingRedoBetween,2021.2.3,59.82578726244381,
,,,,46,0,46,0,,,,,,,,,,,,,,,,,,,,,,785.1924066999927,None,,,,,,,,,,,,,,,,,little,98,47,silent,new,null,783.5625281999819,None,783.5625281999819,None,1,0.9413131000474095,783.5625281999819,None,0.9413131000474095,784.5289278998971,None,785.0444260998629,None,785.0444260998629,None,n,0.1074129999615252,785.0444260998629,None,0.1074129999615252,,,69 sing,001,2022_Nov_01_1059,ProdSingRedoBetween,2021.2.3,59.82578726244381,
,,,,47,0,47,0,,,,,,,,,,,,,,,,,,,,,,788.6331883999519,None,,,,,,,,,,,,,,,,,service,104,48,silent,new,null,785.7001998000778,None,785.7001998000778,None,6,2.3396748998202384,785.7001998000778,None,2.3396748998202384,788.0683562997729,None,788.5834772000089,None,788.5834772000089,None,r,0.024413099978119135,788.5834772000089,None,0.024413099978119135,,,69 sing,001,2022_Nov_01_1059,ProdSingRedoBetween,2021.2.3,59.82578726244381,
,,,,48,0,48,0,,,,,,,,,,,,,,,,,,,,,,791.683498499915,None,,,,,,,,,,,,,,,,,narrow,14,49,silent,old,yellow,789.1565565997735,None,789.1565565997735,None,6,1.8434240003116429,789.1565565997735,None,1.8434240003116429,791.0196438999847,None,791.5388545999303,None,791.5388545999303,None,r,0.10134019982069731,791.5388545999303,None,0.10134019982069731,,,69 sing,001,2022_Nov_01_1059,ProdSingRedoBetween,2021.2.3,59.82578726244381,
,,,,49,0,49,0,,,,,,,,,,,,,,,,,,,,,,794.928155799862,None,,,,,,,,,,,,,,,,,stranger,47,50,silent,old,blue,792.1904994999059,None,792.1904994999059,None,6,2.0652989000082016,792.1904994999059,None,2.0652989000082016,794.2955443998799,None,794.8138067000546,None,794.8138067000546,None,r,0.08193750027567148,794.8138067000546,None,0.08193750027567148,,,69 sing,001,2022_Nov_01_1059,ProdSingRedoBetween,2021.2.3,59.82578726244381,
,,,,50,0,50,0,,,,,,,,,,,,,,,,,,,,,,798.6589561998844,None,,,,,,,,,,,,,,,,,death,60,51,silent,old,red,795.4397414000705,None,795.4397414000705,None,6,1.0481584998778999,795.4397414000705,None,1.0481584998778999,796.5082295001484,None,797.0255435998552,None,797.0255435998552,None,r,1.6142596998251975,797.0255435998552,None,1.6142596998251975,,,69 sing,001,2022_Nov_01_1059,ProdSingRedoBetween,2021.2.3,59.82578726244381,
,,,,51,0,51,0,,,,,,,,,,,,,,,,,,,,,,800.6781180999242,None,,,,,,,,,,,,,,,,,watch,18,52,silent,old,yellow,799.1618860000744,None,799.1618860000744,None,1,0.9419784001074731,799.1618860000744,None,0.9419784001074731,800.1290305997245,None,800.6431927001104,None,800.6431927001104,None,n,0.004677299875766039,800.6431927001104,None,0.004677299875766039,,,69 sing,001,2022_Nov_01_1059,ProdSingRedoBetween,2021.2.3,59.82578726244381,
,,,,52,0,52,0,,,,,,,,,,,,,,,,,,,,,,804.2137470999733,None,,,,,,,,,,,,,,,,,background,58,53,silent,old,blue,801.1959557998925,None,801.1959557998925,None,1,2.3879492999985814,801.1959557998925,None,2.3879492999985814,803.6162068000995,None,804.1477628001012,None,804.1477628001012,None,n,0.036344700027257204,804.1477628001012,None,0.036344700027257204,,,69 sing,001,2022_Nov_01_1059,ProdSingRedoBetween,2021.2.3,59.82578726244381,
,,,,53,0,53,0,,,,,,,,,,,,,,,,,,,,,,807.5674695000052,None,,,,,,,,,,,,,,,,,contract,44,54,silent,old,blue,804.7167748999782,None,804.7167748999782,None,1,1.8190363999456167,804.7167748999782,None,1.8190363999456167,806.5708408998325,None,807.0845570997335,None,807.0845570997335,None,n,0.4672451000660658,807.0845570997335,None,0.4672451000660658,,,69 sing,001,2022_Nov_01_1059,ProdSingRedoBetween,2021.2.3,59.82578726244381,
,,,,54,0,54,0,,,,,,,,,,,,,,,,,,,,,,810.8874532999471,None,,,,,,,,,,,,,,,,,tennis,69,55,silent,old,red,808.0699847000651,None,808.0699847000651,None,1,1.393756799865514,808.0699847000651,None,1.393756799865514,809.4870645999908,None,810.0027669998817,None,810.0027669998817,None,n,0.8530517001636326,810.0027669998817,None,0.8530517001636326,,,69 sing,001,2022_Nov_01_1059,ProdSingRedoBetween,2021.2.3,59.82578726244381,
,,,,55,0,55,0,,,,,,,,,,,,,,,,,,,,,,813.4922500001267,None,,,,,,,,,,,,,,,,,height,139,56,silent,new,null,811.4064408000559,None,811.4064408000559,None,1,1.3374097002670169,811.4064408000559,None,1.3374097002670169,812.7797926999629,None,813.290970900096,None,813.290970900096,None,n,0.18097609980031848,813.290970900096,None,0.18097609980031848,,,69 sing,001,2022_Nov_01_1059,ProdSingRedoBetween,2021.2.3,59.82578726244381,
,,,,56,0,56,0,,,,,,,,,,,,,,,,,,,,,,815.731464299839,None,,,,,,,,,,,,,,,,,patient,65,57,silent,old,red,814.011623899918,None,814.011623899918,None,6,1.0922040999867022,814.011623899918,None,1.0922040999867022,815.1277287998237,None,815.6459556999616,None,815.6459556999616,None,r,0.04997500032186508,815.6459556999616,None,0.04997500032186508,,,69 sing,001,2022_Nov_01_1059,ProdSingRedoBetween,2021.2.3,59.82578726244381,
,,,,57,0,57,0,,,,,,,,,,,,,,,,,,,,,,818.3792090998031,None,,,,,,,,,,,,,,,,,mankind,153,58,silent,new,null,816.2499581999145,None,816.2499581999145,None,1,0.9421570999547839,816.2499581999145,None,0.9421570999547839,817.211925599724,None,817.7273077000864,None,817.7273077000864,None,n,0.6325839003548026,817.7273077000864,None,0.6325839003548026,,,69 sing,001,2022_Nov_01_1059,ProdSingRedoBetween,2021.2.3,59.82578726244381,
,,,,58,0,58,0,,,,,,,,,,,,,,,,,,,,,,820.69854150014,None,,,,,,,,,,,,,,,,,shape,27,59,silent,old,yellow,818.8970356001519,None,818.8970356001519,None,1,1.1107645998708904,818.8970356001519,None,1.1107645998708904,820.0311885001138,None,820.5471948999912,None,820.5471948999912,None,n,0.13265269994735718,820.5471948999912,None,0.13265269994735718,,,69 sing,001,2022_Nov_01_1059,ProdSingRedoBetween,2021.2.3,59.82578726244381,
,,,,59,0,59,0,,,,,,,,,,,,,,,,,,,,,,823.4840168999508,None,,,,,,,,,,,,,,,,,school,173,60,silent,new,null,821.2165604000911,None,821.2165604000911,None,1,0.9912314000539482,821.2165604000911,None,0.9912314000539482,822.2336172000505,None,822.7503746999428,None,822.7503746999428,None,n,0.7137111998163164,822.7503746999428,None,0.7137111998163164,,,69 sing,001,2022_Nov_01_1059,ProdSingRedoBetween,2021.2.3,59.82578726244381,
,,,,60,0,60,0,,,,,,,,,,,,,,,,,,,,,,829.7031994001009,None,,,,,,,,,,,,,,,,,election,114,61,silent,new,null,823.9854243998416,None,823.9854243998416,None,1,5.006355200428516,823.9854243998416,None,5.006355200428516,829.024415299762,None,829.54114570003,None,829.54114570003,None,n,0.12273980025202036,829.54114570003,None,0.12273980025202036,,,69 sing,001,2022_Nov_01_1059,ProdSingRedoBetween,2021.2.3,59.82578726244381,
,,,,61,0,61,0,,,,,,,,,,,,,,,,,,,,,,834.5302081997506,None,,,,,,,,,,,,,,,,,story,128,62,silent,new,null,830.2086060997099,None,830.2086060997099,None,1,3.6874894998036325,830.2086060997099,None,3.6874894998036325,833.9322579000145,None,834.4465725999326,None,834.4465725999326,None,n,0.05731940036639571,834.4465725999326,None,0.05731940036639571,,,69 sing,001,2022_Nov_01_1059,ProdSingRedoBetween,2021.2.3,59.82578726244381,
,,,,62,0,62,0,,,,,,,,,,,,,,,,,,,,,,837.4453297997825,None,,,,,,,,,,,,,,,,,split,132,63,silent,new,null,835.0505411000922,None,835.0505411000922,None,1,1.7651998000219464,835.0505411000922,None,1.7651998000219464,836.8493351000361,None,837.3671273998916,None,837.3671273998916,None,n,0.04093819996342063,837.3671273998916,None,0.04093819996342063,,,69 sing,001,2022_Nov_01_1059,ProdSingRedoBetween,2021.2.3,59.82578726244381,
,,,,63,0,63,0,,,,,,,,,,,,,,,,,,,,,,841.4021238000132,None,,,,,,,,,,,,,,,,,estate,63,64,silent,old,red,837.9504857999273,None,837.9504857999273,None,6,1.6012928001582623,837.9504857999273,None,1.6012928001582623,839.5845762998797,None,840.1037848000415,None,840.1037848000415,None,r,1.2799449004232883,840.1037848000415,None,1.2799449004232883,,,69 sing,001,2022_Nov_01_1059,ProdSingRedoBetween,2021.2.3,59.82578726244381,
,,,,64,0,64,0,,,,,,,,,,,,,,,,,,,,,,843.5884414999746,None,,,,,,,,,,,,,,,,,treatment,19,65,silent,old,yellow,841.9199290997349,None,841.9199290997349,None,6,1.023971799761057,841.9199290997349,None,1.023971799761057,842.9785468997434,None,843.4875483000651,None,843.4875483000651,None,r,0.08050219994038343,843.4875483000651,None,0.08050219994038343,,,69 sing,001,2022_Nov_01_1059,ProdSingRedoBetween,2021.2.3,59.82578726244381,
,,,,65,0,65,0,,,,,,,,,,,,,,,,,,,,,,846.9372486998327,None,,,,,,,,,,,,,,,,,colonel,141,66,silent,new,null,844.112412000075,None,844.112412000075,None,1,1.5593028999865055,844.112412000075,None,1.5593028999865055,845.6905644000508,None,846.2053768998012,None,846.2053768998012,None,n,0.6986863999627531,846.2053768998012,None,0.6986863999627531,,,69 sing,001,2022_Nov_01_1059,ProdSingRedoBetween,2021.2.3,59.82578726244381,
,,,,66,0,66,0,,,,,,,,,,,,,,,,,,,,,,851.4790993998758,None,,,,,,,,,,,,,,,,,drink,171,67,silent,new,null,847.44466560008,None,847.44466560008,None,1,2.8989712996408343,847.44466560008,None,2.8989712996408343,850.3615271998569,None,850.8771715997718,None,850.8771715997718,None,n,0.5705794999375939,850.8771715997718,None,0.5705794999375939,,,69 sing,001,2022_Nov_01_1059,ProdSingRedoBetween,2021.2.3,59.82578726244381,
,,,,67,0,67,0,,,,,,,,,,,,,,,,,,,,,,854.2313131000847,None,,,,,,,,,,,,,,,,,afternoon,161,68,silent,new,null,851.9994890000671,None,851.9994890000671,None,1,0.8402134999632835,851.9994890000671,None,0.8402134999632835,852.86379209999,None,853.3832121999003,None,853.3832121999003,None,n,0.8165229996666312,853.3832121999003,None,0.8165229996666312,,,69 sing,001,2022_Nov_01_1059,ProdSingRedoBetween,2021.2.3,59.82578726244381,
,,,,68,0,68,0,,,,,,,,,,,,,,,,,,,,,,857.3343031001277,None,,,,,,,,,,,,,,,,,principal,88,69,silent,old,red,854.7371642999351,None,854.7371642999351,None,6,1.206589600071311,854.7371642999351,None,1.206589600071311,855.9685526997782,None,856.4860633998178,None,856.4860633998178,None,r,0.8177463999018073,856.4860633998178,None,0.8177463999018073,,,69 sing,001,2022_Nov_01_1059,ProdSingRedoBetween,2021.2.3,59.82578726244381,
,,,,69,0,69,0,,,,,,,,,,,,,,,,,,,,,,859.8199227997102,None,,,,,,,,,,,,,,,,,store,113,70,silent,new,null,857.8365167998709,None,857.8365167998709,None,1,1.083186199888587,857.8365167998709,None,1.083186199888587,858.9372108997777,None,859.4527071998455,None,859.4527071998455,None,n,0.3389407000504434,859.4527071998455,None,0.3389407000504434,,,69 sing,001,2022_Nov_01_1059,ProdSingRedoBetween,2021.2.3,59.82578726244381,
,,,,70,0,70,0,,,,,,,,,,,,,,,,,,,,,,862.0232802997343,None,,,,,,,,,,,,,,,,,government,124,71,silent,new,null,860.3295526998118,None,860.3295526998118,None,6,1.0141321001574397,860.3295526998118,None,1.0141321001574397,861.3727083001286,None,861.8894430999644,None,861.8894430999644,None,r,0.10230530006811023,861.8894430999644,None,0.10230530006811023,,,69 sing,001,2022_Nov_01_1059,ProdSingRedoBetween,2021.2.3,59.82578726244381,
,,,,71,0,71,0,,,,,,,,,,,,,,,,,,,,,,869.2133248001337,None,,,,,,,,,,,,,,,,,pattern,83,72,silent,old,red,862.5433457000181,None,862.5433457000181,None,1,1.4964967998676002,862.5433457000181,None,1.4964967998676002,864.0632962998934,None,864.5742771001533,None,864.5742771001533,None,n,4.609367699827999,864.5742771001533,None,4.609367699827999,,,69 sing,001,2022_Nov_01_1059,ProdSingRedoBetween,2021.2.3,59.82578726244381,
,,,,72,0,72,0,,,,,,,,,,,,,,,,,,,,,,872.8841439997777,None,,,,,,,,,,,,,,,,,curve,110,73,silent,new,null,869.7315662000328,None,869.7315662000328,None,1,1.9561595004051924,869.7315662000328,None,1.9561595004051924,871.7178055997938,None,872.2312914999202,None,872.2312914999202,None,n,0.6243269997648895,872.2312914999202,None,0.6243269997648895,,,69 sing,001,2022_Nov_01_1059,ProdSingRedoBetween,2021.2.3,59.82578726244381,
,,,,73,0,73,0,,,,,,,,,,,,,,,,,,,,,,875.5022808001377,None,,,,,,,,,,,,,,,,,accident,84,74,silent,old,red,873.4011574001051,None,873.4011574001051,None,1,1.3905235002748668,873.4011574001051,None,1.3905235002748668,874.8227256000973,None,875.3374199001119,None,875.3374199001119,None,n,0.13432450033724308,875.3374199001119,None,0.13432450033724308,,,69 sing,001,2022_Nov_01_1059,ProdSingRedoBetween,2021.2.3,59.82578726244381,
,,,,74,0,74,0,,,,,,,,,,,,,,,,,,,,,,877.721179000102,None,,,,,,,,,,,,,,,,,blind,8,75,silent,old,yellow,876.0035338001326,None,876.0035338001326,None,1,0.7806163998320699,876.0035338001326,None,0.7806163998320699,876.8053387999535,None,877.3230159999803,None,877.3230159999803,None,n,0.3727544997818768,877.3230159999803,None,0.3727544997818768,,,69 sing,001,2022_Nov_01_1059,ProdSingRedoBetween,2021.2.3,59.82578726244381,
,,,,75,0,75,0,,,,,,,,,,,,,,,,,,,,,,881.1045023999177,None,,,,,,,,,,,,,,,,,frank,82,76,silent,old,red,878.2245201999322,None,878.2245201999322,None,6,1.223174899816513,878.2245201999322,None,1.223174899816513,879.4747657999396,None,879.9956227000803,None,879.9956227000803,None,r,1.0763332000933588,879.9956227000803,None,1.0763332000933588,,,69 sing,001,2022_Nov_01_1059,ProdSingRedoBetween,2021.2.3,59.82578726244381,
,,,,76,0,76,0,,,,,,,,,,,,,,,,,,,,,,899.4264980996959,None,,,,,,,,,,,,,,,,,cover,16,77,silent,old,yellow,881.6216024998575,None,881.6216024998575,None,1,16.874084999784827,881.6216024998575,None,16.874084999784827,898.5264690001495,None,899.0360678997822,None,899.0360678997822,None,n,0.3636074000969529,899.0360678997822,None,0.3636074000969529,,,69 sing,001,2022_Nov_01_1059,ProdSingRedoBetween,2021.2.3,59.82578726244381,
,,,,77,0,77,0,,,,,,,,,,,,,,,,,,,,,,902.2292967997491,None,,,,,,,,,,,,,,,,,dream,38,78,silent,old,blue,899.9434193000197,None,899.9434193000197,None,1,1.336265199817717,899.9434193000197,None,1.336265199817717,901.3159459996969,None,901.8296682997607,None,901.8296682997607,None,n,0.36993150040507317,901.8296682997607,None,0.36993150040507317,,,69 sing,001,2022_Nov_01_1059,ProdSingRedoBetween,2021.2.3,59.82578726244381,
,,,,78,0,78,0,,,,,,,,,,,,,,,,,,,,,,904.850038100034,None,,,,,,,,,,,,,,,,,rough,50,79,silent,old,blue,902.7304915999994,None,902.7304915999994,None,6,1.4931671996600926,902.7304915999994,None,1.4931671996600926,904.2502556997351,None,904.7680091997609,None,904.7680091997609,None,r,0.06363019999116659,904.7680091997609,None,0.06363019999116659,,,69 sing,001,2022_Nov_01_1059,ProdSingRedoBetween,2021.2.3,59.82578726244381,
,,,,79,0,79,0,,,,,,,,,,,,,,,,,,,,,,909.8867926001549,None,,,,,,,,,,,,,,,,,match,166,80,silent,new,null,905.3667639000341,None,905.3667639000341,None,1,3.6889454000629485,905.3667639000341,None,3.6889454000629485,909.0860903998837,None,909.5915179997683,None,909.5915179997683,None,n,0.2720421999692917,909.5915179997683,None,0.2720421999692917,,,69 sing,001,2022_Nov_01_1059,ProdSingRedoBetween,2021.2.3,59.82578726244381,
,,,,80,0,80,0,,,,,,,,,,,,,,,,,,,,,,913.5034590000287,None,,,,,,,,,,,,,,,,,career,127,81,silent,new,null,910.3878584997728,None,910.3878584997728,None,6,1.3957564998418093,910.3878584997728,None,1.3957564998418093,911.8062460999936,None,912.3248048000969,None,912.3248048000969,None,r,1.1470755003392696,912.3248048000969,None,1.1470755003392696,,,69 sing,001,2022_Nov_01_1059,ProdSingRedoBetween,2021.2.3,59.82578726244381,
,,,,81,0,81,0,,,,,,,,,,,,,,,,,,,,,,915.97976440005,None,,,,,,,,,,,,,,,,,direction,25,82,silent,old,yellow,914.0075578000396,None,914.0075578000396,None,6,1.0804161997511983,914.0075578000396,None,1.0804161997511983,915.1238798997365,None,915.6271631000564,None,915.6271631000564,None,r,0.33254759991541505,915.6271631000564,None,0.33254759991541505,,,69 sing,001,2022_Nov_01_1059,ProdSingRedoBetween,2021.2.3,59.82578726244381,
,,,,82,0,82,0,,,,,,,,,,,,,,,,,,,,,,918.5466702999547,None,,,,,,,,,,,,,,,,,season,85,83,silent,old,red,916.5063152001239,None,916.5063152001239,None,6,1.1493295999243855,916.5063152001239,None,1.1493295999243855,917.6819786000997,None,918.198948699981,None,918.198948699981,None,r,0.32885169982910156,918.198948699981,None,0.32885169982910156,,,69 sing,001,2022_Nov_01_1059,ProdSingRedoBetween,2021.2.3,59.82578726244381,
,,,,83,0,83,0,,,,,,,,,,,,,,,,,,,,,,921.8316321996972,None,,,,,,,,,,,,,,,,,produce,77,84,silent,old,red,919.0686837998219,None,919.0686837998219,None,6,1.2110185995697975,919.0686837998219,None,1.2110185995697975,920.2982105999254,None,920.8149049999192,None,920.8149049999192,None,r,1.0006874999962747,920.8149049999192,None,1.0006874999962747,,,69 sing,001,2022_Nov_01_1059,ProdSingRedoBetween,2021.2.3,59.82578726244381,
,,,,84,0,84,0,,,,,,,,,,,,,,,,,,,,,,925.2362461998127,None,,,,,,,,,,,,,,,,,concern,15,85,silent,old,yellow,922.3341028997675,None,922.3341028997675,None,1,1.2818179996684194,922.3341028997675,None,1.2818179996684194,923.6348419999704,None,924.1542230998166,None,924.1542230998166,None,n,1.0533457002602518,924.1542230998166,None,1.0533457002602518,,,69 sing,001,2022_Nov_01_1059,ProdSingRedoBetween,2021.2.3,59.82578726244381,
,,,,85,0,85,0,,,,,,,,,,,,,,,,,,,,,,930.0240873000585,None,,,,,,,,,,,,,,,,,light,24,86,silent,old,yellow,925.7552803000435,None,925.7552803000435,None,1,3.372241399716586,925.7552803000435,None,3.372241399716586,929.156618299894,None,929.6740886997432,None,929.6740886997432,None,n,0.3175095999613404,929.6740886997432,None,0.3175095999613404,,,69 sing,001,2022_Nov_01_1059,ProdSingRedoBetween,2021.2.3,59.82578726244381,
,,,,86,0,86,0,,,,,,,,,,,,,,,,,,,,,,949.3430059999228,None,,,,,,,,,,,,,,,,,universal,73,87,silent,old,red,930.553781399969,None,930.553781399969,None,6,10.269753399770707,930.553781399969,None,10.269753399770707,940.8534325999208,None,941.3682641997002,None,941.3682641997002,None,n,7.943449800368398,941.3682641997002,None,7.943449800368398,,,69 sing,001,2022_Nov_01_1059,ProdSingRedoBetween,2021.2.3,59.82578726244381,
,,,,87,0,87,0,,,,,,,,,,,,,,,,,,,,,,955.6650028997101,None,,,,,,,,,,,,,,,,,edition,40,88,silent,old,blue,949.8522703000344,None,949.8522703000344,None,3,4.227340800222009,949.8522703000344,None,4.227340800222009,954.0977896000259,None,954.6047609001398,None,954.6047609001398,None,f,1.0348268002271652,954.6047609001398,None,1.0348268002271652,,,69 sing,001,2022_Nov_01_1059,ProdSingRedoBetween,2021.2.3,59.82578726244381,
,,,,88,0,88,0,,,,,,,,,,,,,,,,,,,,,,958.952829899732,None,,,,,,,,,,,,,,,,,smooth,45,89,silent,old,blue,956.1683168001473,None,956.1683168001473,None,6,1.9751328998245299,956.1683168001473,None,1.9751328998245299,958.169742600061,None,958.6850975998677,None,958.6850975998677,None,r,0.24249879969283938,958.6850975998677,None,0.24249879969283938,,,69 sing,001,2022_Nov_01_1059,ProdSingRedoBetween,2021.2.3,59.82578726244381,
,,,,89,0,89,0,,,,,,,,,,,,,,,,,,,,,,962.2048017997295,None,,,,,,,,,,,,,,,,,region,89,90,silent,old,red,959.4703838001005,None,959.4703838001005,None,1,1.7853394001722336,959.4703838001005,None,1.7853394001722336,961.2883600001223,None,961.7976378998719,None,961.7976378998719,None,n,0.37777689984068274,961.7976378998719,None,0.37777689984068274,,,69 sing,001,2022_Nov_01_1059,ProdSingRedoBetween,2021.2.3,59.82578726244381,
,,,,90,0,90,0,,,,,,,,,,,,,,,,,,,,,,966.3755938000977,None,,,,,,,,,,,,,,,,,close,53,91,silent,old,blue,962.7192298998125,None,962.7192298998125,None,1,2.5602762000635266,962.7192298998125,None,2.5602762000635266,965.3100910997018,None,965.8247345001437,None,965.8247345001437,None,n,0.5347644998691976,965.8247345001437,None,0.5347644998691976,,,69 sing,001,2022_Nov_01_1059,ProdSingRedoBetween,2021.2.3,59.82578726244381,
,,,,91,0,91,0,,,,,,,,,,,,,,,,,,,,,,969.4788350998424,None,,,,,,,,,,,,,,,,,cousin,62,92,silent,old,red,966.8788803000934,None,966.8788803000934,None,6,1.9128759000450373,966.8788803000934,None,1.9128759000450373,968.8131598001346,None,969.3278306000866,None,969.3278306000866,None,r,0.12773950025439262,969.3278306000866,None,0.12773950025439262,,,69 sing,001,2022_Nov_01_1059,ProdSingRedoBetween,2021.2.3,59.82578726244381,
,,,,92,0,92,0,,,,,,,,,,,,,,,,,,,,,,977.2500577000901,None,,,,,,,,,,,,,,,,,figure,105,93,silent,new,null,969.9819654999301,None,969.9819654999301,None,1,6.265532699879259,969.9819654999301,None,6.265532699879259,976.2718760999851,None,976.7867785999551,None,976.7867785999551,None,n,0.42111749993637204,976.7867785999551,None,0.42111749993637204,,,69 sing,001,2022_Nov_01_1059,ProdSingRedoBetween,2021.2.3,59.82578726244381,
,,,,93,0,93,0,,,,,,,,,,,,,,,,,,,,,,989.4998425999656,None,,,,,,,,,,,,,,,,,debate,49,94,silent,old,blue,977.7583356001414,None,977.7583356001414,None,1,10.985060099978,977.7583356001414,None,10.985060099978,988.7670682999305,None,989.2813770999201,None,989.2813770999201,None,n,0.19844300020486116,989.2813770999201,None,0.19844300020486116,,,69 sing,001,2022_Nov_01_1059,ProdSingRedoBetween,2021.2.3,59.82578726244381,
,,,,94,0,94,0,,,,,,,,,,,,,,,,,,,,,,992.2855847999454,None,,,,,,,,,,,,,,,,,society,149,95,silent,new,null,990.0173189998604,None,990.0173189998604,None,1,1.358142300043255,990.0173189998604,None,1.358142300043255,991.4023893997073,None,991.9194946000353,None,991.9194946000353,None,n,0.3439583000726998,991.9194946000353,None,0.3439583000726998,,,69 sing,001,2022_Nov_01_1059,ProdSingRedoBetween,2021.2.3,59.82578726244381,
,,,,95,0,95,0,,,,,,,,,,,,,,,,,,,,,,1009.9370893999003,None,,,,,,,,,,,,,,,,,conference,96,96,silent,new,null,992.7880950998515,None,992.7880950998515,None,3,16.211727099958807,992.7880950998515,None,16.211727099958807,1009.0221623000689,None,1009.5356111000292,None,1009.5356111000292,None,f,0.3758623003959656,1009.5356111000292,None,0.3758623003959656,,,69 sing,001,2022_Nov_01_1059,ProdSingRedoBetween,2021.2.3,59.82578726244381,
,,,,96,0,96,0,,,,,,,,,,,,,,,,,,,,,,1012.8227351997048,None,,,,,,,,,,,,,,,,,murder,176,97,silent,new,null,1010.4419800997712,None,1010.4419800997712,None,6,1.7814922002144158,1010.4419800997712,None,1.7814922002144158,1012.2573122000322,None,1012.7717669997364,None,1012.7717669997364,None,r,0.02780049992725253,1012.7717669997364,None,0.02780049992725253,,,69 sing,001,2022_Nov_01_1059,ProdSingRedoBetween,2021.2.3,59.82578726244381,
,,,,97,0,97,0,,,,,,,,,,,,,,,,,,,,,,1015.1278540999629,None,,,,,,,,,,,,,,,,,block,133,98,silent,new,null,1013.3246868001297,None,1013.3246868001297,None,1,1.1160422000102699,1013.3246868001297,None,1.1160422000102699,1014.4812666997313,None,1014.9958739001304,None,1014.9958739001304,None,n,0.09960719989612699,1014.9958739001304,None,0.09960719989612699,,,69 sing,001,2022_Nov_01_1059,ProdSingRedoBetween,2021.2.3,59.82578726244381,
,,,,98,0,98,0,,,,,,,,,,,,,,,,,,,,,,1017.5283254999667,None,,,,,,,,,,,,,,,,,majority,169,99,silent,new,null,1015.6490802001208,None,1015.6490802001208,None,1,1.0623441999778152,1015.6490802001208,None,1.0623441999778152,1016.7451860997826,None,1017.2787092998624,None,1017.2787092998624,None,n,0.21696239989250898,1017.2787092998624,None,0.21696239989250898,,,69 sing,001,2022_Nov_01_1059,ProdSingRedoBetween,2021.2.3,59.82578726244381,
,,,,99,0,99,0,,,,,,,,,,,,,,,,,,,,,,1019.963544299826,None,,,,,,,,,,,,,,,,,travel,12,100,silent,old,yellow,1018.0534008000977,None,1018.0534008000977,None,1,1.1863910001702607,1018.0534008000977,None,1.1863910001702607,1019.2641034000553,None,1019.7791856001131,None,1019.7791856001131,None,n,0.16480590030550957,1019.7791856001131,None,0.16480590030550957,,,69 sing,001,2022_Nov_01_1059,ProdSingRedoBetween,2021.2.3,59.82578726244381,
,,,,100,0,100,0,,,,,,,,,,,,,,,,,,,,,,1022.8840708998032,None,,,,,,,,,,,,,,,,,stand,131,101,silent,new,null,1020.4658952997997,None,1020.4658952997997,None,1,1.7015966000035405,1020.4658952997997,None,1.7015966000035405,1022.1997151998803,None,1022.7290813000873,None,1022.7290813000873,None,n,0.13473850023001432,1022.7290813000873,None,0.13473850023001432,,,69 sing,001,2022_Nov_01_1059,ProdSingRedoBetween,2021.2.3,59.82578726244381,
,,,,101,0,101,0,,,,,,,,,,,,,,,,,,,,,,1025.6519336998463,None,,,,,,,,,,,,,,,,,trash,54,102,silent,old,blue,1023.400808100123,None,1023.400808100123,None,3,1.3665410000830889,1023.400808100123,None,1.3665410000830889,1024.7866972000338,None,1025.3003223999403,None,1025.3003223999403,None,f,0.32312169997021556,1025.3003223999403,None,0.32312169997021556,,,69 sing,001,2022_Nov_01_1059,ProdSingRedoBetween,2021.2.3,59.82578726244381,
,,,,102,0,102,0,,,,,,,,,,,,,,,,,,,,,,1028.4729332998395,None,,,,,,,,,,,,,,,,,resistance,76,103,silent,old,red,1026.1549347997643,None,1026.1549347997643,None,3,1.7245485000312328,1026.1549347997643,None,1.7245485000312328,1027.9067949000746,None,1028.433468699921,None,1028.433468699921,None,f,0.006070300005376339,1028.433468699921,None,0.006070300005376339,,,69 sing,001,2022_Nov_01_1059,ProdSingRedoBetween,2021.2.3,59.82578726244381,
,,,,103,0,103,0,,,,,,,,,,,,,,,,,,,,,,1032.3094258001074,None,,,,,,,,,,,,,,,,,charter,160,104,silent,new,null,1028.9892119001597,None,1028.9892119001597,None,1,2.5942243998870254,1028.9892119001597,None,2.5942243998870254,1031.6091285999864,None,1032.1247326000594,None,1032.1247326000594,None,n,0.16281899996101856,1032.1247326000594,None,0.16281899996101856,,,69 sing,001,2022_Nov_01_1059,ProdSingRedoBetween,2021.2.3,59.82578726244381,
,,,,104,0,104,0,,,,,,,,,,,,,,,,,,,,,,1034.9834666997194,None,,,,,,,,,,,,,,,,,candidate,7,105,silent,old,yellow,1032.8111848998815,None,1032.8111848998815,None,6,1.4682036000303924,1032.8111848998815,None,1.4682036000303924,1034.3204128998332,None,1034.8270564000122,None,1034.8270564000122,None,r,0.12426389986649156,1034.8270564000122,None,0.12426389986649156,,,69 sing,001,2022_Nov_01_1059,ProdSingRedoBetween,2021.2.3,59.82578726244381,
,,,,105,0,105,0,,,,,,,,,,,,,,,,,,,,,,1038.4323308998719,None,,,,,,,,,,,,,,,,,portion,9,106,silent,old,yellow,1035.4961703997105,None,1035.4961703997105,None,6,1.8712666002102196,1035.4961703997105,None,1.8712666002102196,1037.3984821001068,None,1037.9142493000254,None,1037.9142493000254,None,r,0.4851338001899421,1037.9142493000254,None,0.4851338001899421,,,69 sing,001,2022_Nov_01_1059,ProdSingRedoBetween,2021.2.3,59.82578726244381,
,,,,106,0,106,0,,,,,,,,,,,,,,,,,,,,,,1041.41772999987,None,,,,,,,,,,,,,,,,,appearance,130,107,silent,new,null,1038.9497547000647,None,1038.9497547000647,None,6,1.7055869000032544,1038.9497547000647,None,1.7055869000032544,1040.6859154999256,None,1041.2000466999598,None,1041.2000466999598,None,r,0.19964729994535446,1041.2000466999598,None,0.19964729994535446,,,69 sing,001,2022_Nov_01_1059,ProdSingRedoBetween,2021.2.3,59.82578726244381,
,,,,107,0,107,0,,,,,,,,,,,,,,,,,,,,,,1044.1716684997082,None,,,,,,,,,,,,,,,,,shock,170,108,silent,new,null,1041.9202115000226,None,1041.9202115000226,None,6,1.6472517000511289,1041.9202115000226,None,1.6472517000511289,1043.587895900011,None,1044.1039304998703,None,1044.1039304998703,None,r,0.03967500012367964,1044.1039304998703,None,0.03967500012367964,,,69 sing,001,2022_Nov_01_1059,ProdSingRedoBetween,2021.2.3,59.82578726244381,
,,,,108,0,108,0,,,,,,,,,,,,,,,,,,,,,,1047.6432030000724,None,,,,,,,,,,,,,,,,,power,87,109,silent,old,red,1044.69305420015,None,1044.69305420015,None,3,2.298486900050193,1044.69305420015,None,2.298486900050193,1047.0252383998595,None,1047.5430251997896,None,1047.5430251997896,None,f,0.07260780036449432,1047.5430251997896,None,0.07260780036449432,,,69 sing,001,2022_Nov_01_1059,ProdSingRedoBetween,2021.2.3,59.82578726244381,
,,,,109,0,109,0,,,,,,,,,,,,,,,,,,,,,,1051.5967346001416,None,,,,,,,,,,,,,,,,,passage,0,110,silent,old,yellow,1048.1591161000542,None,1048.1591161000542,None,6,2.7282791999168694,1048.1591161000542,None,2.7282791999168694,1050.9131335001439,None,1051.4297305000946,None,1051.4297305000946,None,r,0.14604080002754927,1051.4297305000946,None,0.14604080002754927,,,69 sing,001,2022_Nov_01_1059,ProdSingRedoBetween,2021.2.3,59.82578726244381,
,,,,110,0,110,0,,,,,,,,,,,,,,,,,,,,,,1054.2143485997804,None,,,,,,,,,,,,,,,,,religion,91,111,silent,new,null,1052.1118155000731,None,1052.1118155000731,None,6,1.279493700247258,1052.1118155000731,None,1.279493700247258,1053.4152556001209,None,1053.929872199893,None,1053.929872199893,None,r,0.2616027998737991,1053.929872199893,None,0.2616027998737991,,,69 sing,001,2022_Nov_01_1059,ProdSingRedoBetween,2021.2.3,59.82578726244381,
,,,,111,0,111,0,,,,,,,,,,,,,,,,,,,,,,1058.8523010001518,None,,,,,,,,,,,,,,,,,property,70,112,silent,old,red,1054.7353237001225,None,1054.7353237001225,None,6,2.4080397002398968,1054.7353237001225,None,2.4080397002398968,1057.1693470999599,None,1057.697079199832,None,1057.697079199832,None,r,1.1262515997514129,1057.697079199832,None,1.1262515997514129,,,69 sing,001,2022_Nov_01_1059,ProdSingRedoBetween,2021.2.3,59.82578726244381,
,,,,112,0,112,0,,,,,,,,,,,,,,,,,,,,,,1062.9885656000115,None,,,,,,,,,,,,,,,,,order,52,113,silent,old,blue,1059.3608566997573,None,1059.3608566997573,None,3,2.0625074999406934,1059.3608566997573,None,2.0625074999406934,1061.4554150998592,None,1061.9631622997113,None,1061.9631622997113,None,f,0.9961721999570727,1061.9631622997113,None,0.9961721999570727,,,69 sing,001,2022_Nov_01_1059,ProdSingRedoBetween,2021.2.3,59.82578726244381,
,,,,113,0,113,0,,,,,,,,,,,,,,,,,,,,,,1066.1262734998018,None,,,,,,,,,,,,,,,,,guest,165,114,silent,new,null,1063.5042582000606,None,1063.5042582000606,None,1,1.9192626001313329,1063.5042582000606,None,1.9192626001313329,1065.4501514998265,None,1065.9586339001544,None,1065.9586339001544,None,n,0.1366655002348125,1065.9586339001544,None,0.1366655002348125,,,69 sing,001,2022_Nov_01_1059,ProdSingRedoBetween,2021.2.3,59.82578726244381,
,,,,114,0,114,0,,,,,,,,,,,,,,,,,,,,,,1070.345888900105,None,,,,,,,,,,,,,,,,,private,103,115,silent,new,null,1066.6326570999809,None,1066.6326570999809,None,1,3.0467060999944806,1066.6326570999809,None,3.0467060999944806,1069.6985685001127,None,1070.2154266000725,None,1070.2154266000725,None,n,0.1039916998706758,1070.2154266000725,None,0.1039916998706758,,,69 sing,001,2022_Nov_01_1059,ProdSingRedoBetween,2021.2.3,59.82578726244381,
,,,,115,0,115,0,,,,,,,,,,,,,,,,,,,,,,1072.6835241997615,None,,,,,,,,,,,,,,,,,industry,168,116,silent,new,null,1070.8489041998982,None,1070.8489041998982,None,1,1.1824121000245214,1070.8489041998982,None,1.1824121000245214,1072.0514850998297,None,1072.564738499932,None,1072.564738499932,None,n,0.09060529991984367,1072.564738499932,None,0.09060529991984367,,,69 sing,001,2022_Nov_01_1059,ProdSingRedoBetween,2021.2.3,59.82578726244381,
,,,,116,0,116,0,,,,,,,,,,,,,,,,,,,,,,1076.0016076001339,None,,,,,,,,,,,,,,,,,marriage,75,117,silent,old,red,1073.2023028000258,None,1073.2023028000258,None,6,1.2530358000658453,1073.2023028000258,None,1.2530358000658453,1074.4859637999907,None,1075.0130157000385,None,1075.0130157000385,None,r,0.9702722998335958,1075.0130157000385,None,0.9702722998335958,,,69 sing,001,2022_Nov_01_1059,ProdSingRedoBetween,2021.2.3,59.82578726244381,
,,,,117,0,117,0,,,,,,,,,,,,,,,,,,,,,,1078.4728446998633,None,,,,,,,,,,,,,,,,,device,119,118,silent,new,null,1076.5046643000096,None,1076.5046643000096,None,1,1.2947324002161622,1076.5046643000096,None,1.2947324002161622,1077.825145599898,None,1078.344948399812,None,1078.344948399812,None,n,0.10245919972658157,1078.344948399812,None,0.10245919972658157,,,69 sing,001,2022_Nov_01_1059,ProdSingRedoBetween,2021.2.3,59.82578726244381,
,,,,118,0,118,0,,,,,,,,,,,,,,,,,,,,,,1081.4249104997143,None,,,,,,,,,,,,,,,,,state,123,119,silent,new,null,1079.001869500149,None,1079.001869500149,None,1,1.5654730997048318,1079.001869500149,None,1.5654730997048318,1080.5926856999286,None,1081.1068950998597,None,1081.1068950998597,None,n,0.2924810997210443,1081.1068950998597,None,0.2924810997210443,,,69 sing,001,2022_Nov_01_1059,ProdSingRedoBetween,2021.2.3,59.82578726244381,
,,,,119,0,119,0,,,,,,,,,,,,,,,,,,,,,,1085.312268699985,None,,,,,,,,,,,,,,,,,judge,37,120,silent,old,blue,1081.9356490001082,None,1081.9356490001082,None,6,2.495706300251186,1081.9356490001082,None,2.495706300251186,1084.461433999706,None,1084.9810624001548,None,1084.9810624001548,None,r,0.31426610006019473,1084.9810624001548,None,0.31426610006019473,,,69 sing,001,2022_Nov_01_1059,ProdSingRedoBetween,2021.2.3,59.82578726244381,
,,,,120,0,120,0,,,,,,,,,,,,,,,,,,,,,,1089.2825571997091,None,,,,,,,,,,,,,,,,,sweet,145,121,silent,new,null,1085.8189874999225,None,1085.8189874999225,None,1,2.5564193995669484,1085.8189874999225,None,2.5564193995669484,1088.3989548999816,None,1088.9160265997052,None,1088.9160265997052,None,n,0.34740080032497644,1088.9160265997052,None,0.34740080032497644,,,69 sing,001,2022_Nov_01_1059,ProdSingRedoBetween,2021.2.3,59.82578726244381,
,,,,121,0,121,0,,,,,,,,,,,,,,,,,,,,,,1103.3268174999394,None,,,,,,,,,,,,,,,,,column,157,122,silent,new,null,1089.784124400001,None,1089.784124400001,None,1,12.74346850020811,1089.784124400001,None,12.74346850020811,1102.5509739997797,None,1103.0731290001422,None,1103.0731290001422,None,n,0.2145576998591423,1103.0731290001422,None,0.2145576998591423,,,69 sing,001,2022_Nov_01_1059,ProdSingRedoBetween,2021.2.3,59.82578726244381,
,,,,122,0,122,0,,,,,,,,,,,,,,,,,,,,,,1105.6486284998246,None,,,,,,,,,,,,,,,,,dozen,81,123,silent,old,red,1103.8337332000956,None,1103.8337332000956,None,6,1.1655568000860512,1103.8337332000956,None,1.1655568000860512,1105.031782799866,None,1105.5335421999916,None,1105.5335421999916,None,r,0.0977184996008873,1105.5335421999916,None,0.0977184996008873,,,69 sing,001,2022_Nov_01_1059,ProdSingRedoBetween,2021.2.3,59.82578726244381,
,,,,123,0,123,0,,,,,,,,,,,,,,,,,,,,,,1108.7510389997624,None,,,,,,,,,,,,,,,,,country,107,124,silent,new,null,1106.1564730000682,None,1106.1564730000682,None,3,1.8348489003255963,1106.1564730000682,None,1.8348489003255963,1108.0188482999802,None,1108.5214339001104,None,1108.5214339001104,None,f,0.19803120009601116,1108.5214339001104,None,0.19803120009601116,,,69 sing,001,2022_Nov_01_1059,ProdSingRedoBetween,2021.2.3,59.82578726244381,
,,,,124,0,124,0,,,,,,,,,,,,,,,,,,,,,,1113.7960906000808,None,,,,,,,,,,,,,,,,,break,102,125,silent,new,null,1109.25886479998,None,1109.25886479998,None,1,3.7083421000279486,1109.25886479998,None,3.7083421000279486,1112.9903628998436,None,1113.5196444001049,None,1113.5196444001049,None,n,0.24788019992411137,1113.5196444001049,None,0.24788019992411137,,,69 sing,001,2022_Nov_01_1059,ProdSingRedoBetween,2021.2.3,59.82578726244381,
,,,,125,0,125,0,,,,,,,,,,,,,,,,,,,,,,1116.1266685998999,None,,,,,,,,,,,,,,,,,thick,151,126,silent,new,null,1114.3083877000026,None,1114.3083877000026,None,1,1.0348032000474632,1114.3083877000026,None,1.0348032000474632,1115.3825683998875,None,1115.8977642999962,None,1115.8977642999962,None,n,0.20552939968183637,1115.8977642999962,None,0.20552939968183637,,,69 sing,001,2022_Nov_01_1059,ProdSingRedoBetween,2021.2.3,59.82578726244381,
,,,,126,0,126,0,,,,,,,,,,,,,,,,,,,,,,1118.812724799849,None,,,,,,,,,,,,,,,,,husband,4,127,silent,old,yellow,1116.6560650998726,None,1116.6560650998726,None,6,1.367528099566698,1116.6560650998726,None,1.367528099566698,1118.0456042001024,None,1118.5608626999892,None,1118.5608626999892,None,r,0.2223358997143805,1118.5608626999892,None,0.2223358997143805,,,69 sing,001,2022_Nov_01_1059,ProdSingRedoBetween,2021.2.3,59.82578726244381,
,,,,127,0,127,0,,,,,,,,,,,,,,,,,,,,,,1121.2477977997623,None,,,,,,,,,,,,,,,,,color,3,128,silent,old,yellow,1119.330267299898,None,1119.330267299898,None,1,1.1572925001382828,1119.330267299898,None,1.1572925001382828,1120.5141714001074,None,1121.0293996999972,None,1121.0293996999972,None,n,0.1939292997121811,1121.0293996999972,None,0.1939292997121811,,,69 sing,001,2022_Nov_01_1059,ProdSingRedoBetween,2021.2.3,59.82578726244381,
,,,,128,0,128,0,,,,,,,,,,,,,,,,,,,,,,1123.6003882000223,None,,,,,,,,,,,,,,,,,bucket,136,129,silent,new,null,1121.7532569998875,None,1121.7532569998875,None,1,1.158509399741888,1121.7532569998875,None,1.158509399741888,1122.9384901998565,None,1123.4545486001298,None,1123.4545486001298,None,n,0.12077750032767653,1123.4545486001298,None,0.12077750032767653,,,69 sing,001,2022_Nov_01_1059,ProdSingRedoBetween,2021.2.3,59.82578726244381,
,,,,129,0,129,0,,,,,,,,,,,,,,,,,,,,,,1126.6190233998932,None,,,,,,,,,,,,,,,,,employment,100,130,silent,new,null,1124.1154136997648,None,1124.1154136997648,None,1,1.795920199714601,1124.1154136997648,None,1.795920199714601,1125.9415854997933,None,1126.4629830997437,None,1126.4629830997437,None,n,0.13653869973495603,1126.4629830997437,None,0.13653869973495603,,,69 sing,001,2022_Nov_01_1059,ProdSingRedoBetween,2021.2.3,59.82578726244381,
,,,,130,0,130,0,,,,,,,,,,,,,,,,,,,,,,1129.004845699761,None,,,,,,,,,,,,,,,,,poetry,46,131,silent,old,blue,1127.1218254999258,None,1127.1218254999258,None,6,1.2297500004060566,1127.1218254999258,None,1.2297500004060566,1128.3724706997164,None,1128.8878719997592,None,1128.8878719997592,None,r,0.09536009980365634,1128.8878719997592,None,0.09536009980365634,,,69 sing,001,2022_Nov_01_1059,ProdSingRedoBetween,2021.2.3,59.82578726244381,
,,,,131,0,131,0,,,,,,,,,,,,,,,,,,,,,,1131.7750502997078,None,,,,,,,,,,,,,,,,,report,150,132,silent,new,null,1129.5146034001373,None,1129.5146034001373,None,1,1.516714799683541,1129.5146034001373,None,1.516714799683541,1131.0636883997358,None,1131.5755607001483,None,1131.5755607001483,None,n,0.16771490033715963,1131.5755607001483,None,0.16771490033715963,,,69 sing,001,2022_Nov_01_1059,ProdSingRedoBetween,2021.2.3,59.82578726244381,
,,,,132,0,132,0,,,,,,,,,,,,,,,,,,,,,,1134.29462269973,None,,,,,,,,,,,,,,,,,answer,126,133,silent,new,null,1132.2819102997892,None,1132.2819102997892,None,1,1.2773200999945402,1132.2819102997892,None,1.2773200999945402,1133.5776316998526,None,1134.0936711998656,None,1134.0936711998656,None,n,0.16959219984710217,1134.0936711998656,None,0.16959219984710217,,,69 sing,001,2022_Nov_01_1059,ProdSingRedoBetween,2021.2.3,59.82578726244381,
,,,,133,0,133,0,,,,,,,,,,,,,,,,,,,,,,1136.9469506000169,None,,,,,,,,,,,,,,,,,quiet,175,134,silent,new,null,1134.8124466999434,None,1134.8124466999434,None,1,1.4509441000409424,1134.8124466999434,None,1.4509441000409424,1136.3025249000639,None,1136.826359800063,None,1136.826359800063,None,n,0.10112479981034994,1136.826359800063,None,0.10112479981034994,,,69 sing,001,2022_Nov_01_1059,ProdSingRedoBetween,2021.2.3,59.82578726244381,
,,,,134,0,134,0,,,,,,,,,,,,,,,,,,,,,,1140.3158796001226,None,,,,,,,,,,,,,,,,,silence,36,135,silent,old,blue,1137.4533710000105,None,1137.4533710000105,None,6,2.049892900045961,1137.4533710000105,None,2.049892900045961,1139.5347686000168,None,1140.0489003998227,None,1140.0489003998227,None,r,0.24675509985536337,1140.0489003998227,None,0.24675509985536337,,,69 sing,001,2022_Nov_01_1059,ProdSingRedoBetween,2021.2.3,59.82578726244381,
,,,,135,0,135,0,,,,,,,,,,,,,,,,,,,,,,1142.9037341000512,None,,,,,,,,,,,,,,,,,track,80,136,silent,old,red,1140.8372339000925,None,1140.8372339000925,None,1,1.2979444996453822,1140.8372339000925,None,1.2979444996453822,1142.1522673000582,None,1142.6685275998898,None,1142.6685275998898,None,n,0.2107190997339785,1142.6685275998898,None,0.2107190997339785,,,69 sing,001,2022_Nov_01_1059,ProdSingRedoBetween,2021.2.3,59.82578726244381,
,,,,136,0,136,0,,,,,,,,,,,,,,,,,,,,,,1145.8719987999648,None,,,,,,,,,,,,,,,,,disease,28,137,silent,old,yellow,1143.4231245997362,None,1143.4231245997362,None,6,1.784310200251639,1143.4231245997362,None,1.784310200251639,1145.2399176997133,None,1145.7548368000425,None,1145.7548368000425,None,r,0.09239389980211854,1145.7548368000425,None,0.09239389980211854,,,69 sing,001,2022_Nov_01_1059,ProdSingRedoBetween,2021.2.3,59.82578726244381,
,,,,137,0,137,0,,,,,,,,,,,,,,,,,,,,,,1150.3426824999042,None,,,,,,,,,,,,,,,,,beauty,32,138,silent,old,blue,1146.3741691997275,None,1146.3741691997275,None,1,3.225058399606496,1146.3741691997275,None,3.225058399606496,1149.6268837000243,None,1150.143442099914,None,1150.143442099914,None,n,0.175685899797827,1150.143442099914,None,0.175685899797827,,,69 sing,001,2022_Nov_01_1059,ProdSingRedoBetween,2021.2.3,59.82578726244381,
,,,,138,0,138,0,,,,,,,,,,,,,,,,,,,,,,1152.9350628000684,None,,,,,,,,,,,,,,,,,tragedy,90,139,silent,new,null,1150.8447201997042,None,1150.8447201997042,None,1,1.3307731002569199,1150.8447201997042,None,1.3307731002569199,1152.1971871000715,None,1152.711457000114,None,1152.711457000114,None,n,0.20021309982985258,1152.711457000114,None,0.20021309982985258,,,69 sing,001,2022_Nov_01_1059,ProdSingRedoBetween,2021.2.3,59.82578726244381,
,,,,139,0,139,0,,,,,,,,,,,,,,,,,,,,,,1167.1260343999602,None,,,,,,,,,,,,,,,,,reach,34,140,silent,old,blue,1153.4484099997208,None,1153.4484099997208,None,1,12.862785699777305,1153.4484099997208,None,12.862785699777305,1166.344187699724,None,1166.8584436997771,None,1166.8584436997771,None,n,0.2367940996773541,1166.8584436997771,None,0.2367940996773541,,,69 sing,001,2022_Nov_01_1059,ProdSingRedoBetween,2021.2.3,59.82578726244381,
,,,,140,0,140,0,,,,,,,,,,,,,,,,,,,,,,1170.6476881001145,None,,,,,,,,,,,,,,,,,mechanical,79,141,silent,old,red,1167.6278093000874,None,1167.6278093000874,None,6,1.827418299857527,1167.6278093000874,None,1.827418299857527,1169.4804484997876,None,1169.9950001998805,None,1169.9950001998805,None,r,0.6202350999228656,1169.9950001998805,None,0.6202350999228656,,,69 sing,001,2022_Nov_01_1059,ProdSingRedoBetween,2021.2.3,59.82578726244381,
,,,,141,0,141,0,,,,,,,,,,,,,,,,,,,,,,1181.038319000043,None,,,,,,,,,,,,,,,,,waste,35,142,silent,old,blue,1171.1747844000347,None,1171.1747844000347,None,6,9.04825730016455,1171.1747844000347,None,9.04825730016455,1180.2420223997906,None,1180.763534099795,None,1180.763534099795,None,r,0.23588910000398755,1180.763534099795,None,0.23588910000398755,,,69 sing,001,2022_Nov_01_1059,ProdSingRedoBetween,2021.2.3,59.82578726244381,
,,,,142,0,142,0,,,,,,,,,,,,,,,,,,,,,,1184.3099954999052,None,,,,,,,,,,,,,,,,,suggestion,167,143,silent,new,null,1181.557107700035,None,1181.557107700035,None,1,1.4181967000477016,1181.557107700035,None,1.4181967000477016,1182.995399700012,None,1183.5227872999385,None,1183.5227872999385,None,n,0.7643844000995159,1183.5227872999385,None,0.7643844000995159,,,69 sing,001,2022_Nov_01_1059,ProdSingRedoBetween,2021.2.3,59.82578726244381,
,,,,143,0,143,0,,,,,,,,,,,,,,,,,,,,,,1187.1183672999032,None,,,,,,,,,,,,,,,,,appeal,56,144,silent,old,blue,1184.8201147997752,None,1184.8201147997752,None,1,1.2431246996857226,1184.8201147997752,None,1.2431246996857226,1186.096981599927,None,1186.6224937997758,None,1186.6224937997758,None,n,0.4729472999460995,1186.6224937997758,None,0.4729472999460995,,,69 sing,001,2022_Nov_01_1059,ProdSingRedoBetween,2021.2.3,59.82578726244381,
,,,,144,0,144,0,,,,,,,,,,,,,,,,,,,,,,1189.9149771998636,None,,,,,,,,,,,,,,,,,empty,142,145,silent,new,null,1187.6366113997065,None,1187.6366113997065,None,1,1.2907119998708367,1187.6366113997065,None,1.2907119998708367,1188.950009000022,None,1189.469032399822,None,1189.469032399822,None,n,0.4180387002415955,1189.469032399822,None,0.4180387002415955,,,69 sing,001,2022_Nov_01_1059,ProdSingRedoBetween,2021.2.3,59.82578726244381,
,,,,145,0,145,0,,,,,,,,,,,,,,,,,,,,,,1192.3691052999347,None,,,,,,,,,,,,,,,,,relation,23,146,silent,old,yellow,1190.4179350999184,None,1190.4179350999184,None,1,1.1972560998983681,1190.4179350999184,None,1.1972560998983681,1191.6349784997292,None,1192.1512897000648,None,1192.1512897000648,None,n,0.19188709976151586,1192.1512897000648,None,0.19188709976151586,,,69 sing,001,2022_Nov_01_1059,ProdSingRedoBetween,2021.2.3,59.82578726244381,
,,,,146,0,146,0,,,,,,,,,,,,,,,,,,,,,,1196.8058988000266,None,,,,,,,,,,,,,,,,,foundation,135,147,silent,new,null,1192.8793556001037,None,1192.8793556001037,None,1,3.128275899682194,1192.8793556001037,None,3.128275899682194,1196.0649993997067,None,1196.5759311998263,None,1196.5759311998263,None,n,0.20747510017827153,1196.5759311998263,None,0.20747510017827153,,,69 sing,001,2022_Nov_01_1059,ProdSingRedoBetween,2021.2.3,59.82578726244381,
,,,,147,0,147,0,,,,,,,,,,,,,,,,,,,,,,1199.3761487999,None,,,,,,,,,,,,,,,,,speech,109,148,silent,new,null,1197.3082570997067,None,1197.3082570997067,None,6,1.4108222001232207,1197.3082570997067,None,1.4108222001232207,1198.7437010998838,None,1199.2582999998704,None,1199.2582999998704,None,r,0.10085619986057281,1199.2582999998704,None,0.10085619986057281,,,69 sing,001,2022_Nov_01_1059,ProdSingRedoBetween,2021.2.3,59.82578726244381,
,,,,148,0,148,0,,,,,,,,,,,,,,,,,,,,,,1201.89528709976,None,,,,,,,,,,,,,,,,,youth,140,149,silent,new,null,1199.8929143999703,None,1199.8929143999703,None,1,1.1304520000703633,1199.8929143999703,None,1.1304520000703633,1201.0468055000529,None,1201.5606136000715,None,1201.5606136000715,None,n,0.3104400001466274,1201.5606136000715,None,0.3104400001466274,,,69 sing,001,2022_Nov_01_1059,ProdSingRedoBetween,2021.2.3,59.82578726244381,
,,,,149,0,149,0,,,,,,,,,,,,,,,,,,,,,,1204.6804730999283,None,,,,,,,,,,,,,,,,,bureau,51,150,silent,old,blue,1202.4058580999263,None,1202.4058580999263,None,6,1.457294899970293,1202.4058580999263,None,1.457294899970293,1203.8866074001417,None,1204.395938700065,None,1204.395938700065,None,r,0.2592339999973774,1204.395938700065,None,0.2592339999973774,,,69 sing,001,2022_Nov_01_1059,ProdSingRedoBetween,2021.2.3,59.82578726244381,
,,,,150,0,150,0,,,,,,,,,,,,,,,,,,,,,,1207.0508431000635,None,,,,,,,,,,,,,,,,,title,125,151,silent,new,null,1205.1816867999732,None,1205.1816867999732,None,1,1.1854221997782588,1205.1816867999732,None,1.1854221997782588,1206.400038999971,None,1206.915445999708,None,1206.915445999708,None,n,0.11588179972022772,1206.915445999708,None,0.11588179972022772,,,69 sing,001,2022_Nov_01_1059,ProdSingRedoBetween,2021.2.3,59.82578726244381,
,,,,151,0,151,0,,,,,,,,,,,,,,,,,,,,,,1209.21874379972,None,,,,,,,,,,,,,,,,,chief,154,152,silent,new,null,1207.5691770999692,None,1207.5691770999692,None,1,0.9419509000144899,1207.5691770999692,None,0.9419509000144899,1208.536139999982,None,1209.0511729000136,None,1209.0511729000136,None,n,0.14808890037238598,1209.0511729000136,None,0.14808890037238598,,,69 sing,001,2022_Nov_01_1059,ProdSingRedoBetween,2021.2.3,59.82578726244381,
,,,,152,0,152,0,,,,,,,,,,,,,,,,,,,,,,1211.6547194998711,None,,,,,,,,,,,,,,,,,agreement,146,153,silent,new,null,1209.7214886997826,None,1209.7214886997826,None,1,1.2536526001058519,1209.7214886997826,None,1.2536526001058519,1211.0069594001397,None,1211.5208188998513,None,1211.5208188998513,None,n,0.1103206998668611,1211.5208188998513,None,0.1103206998668611,,,69 sing,001,2022_Nov_01_1059,ProdSingRedoBetween,2021.2.3,59.82578726244381,
,,,,153,0,153,0,,,,,,,,,,,,,,,,,,,,,,1213.857694900129,None,,,,,,,,,,,,,,,,,sight,2,154,silent,old,yellow,1212.158942699898,None,1212.158942699898,None,1,0.992393400054425,1212.158942699898,None,0.992393400054425,1213.1774192997254,None,1213.696382299997,None,1213.696382299997,None,n,0.1428990000858903,1213.696382299997,None,0.1428990000858903,,,69 sing,001,2022_Nov_01_1059,ProdSingRedoBetween,2021.2.3,59.82578726244381,
,,,,154,0,154,0,,,,,,,,,,,,,,,,,,,,,,1216.3415242996998,None,,,,,,,,,,,,,,,,,crowd,177,155,silent,new,null,1214.3805363001302,None,1214.3805363001302,None,6,1.226636900100857,1214.3805363001302,None,1.226636900100857,1215.6274874997325,None,1216.1411935999058,None,1216.1411935999058,None,r,0.17000940022990108,1216.1411935999058,None,0.17000940022990108,,,69 sing,001,2022_Nov_01_1059,ProdSingRedoBetween,2021.2.3,59.82578726244381,
,,,,155,0,155,0,,,,,,,,,,,,,,,,,,,,,,1218.8783929999918,None,,,,,,,,,,,,,,,,,right,97,156,silent,new,null,1216.8484001997858,None,1216.8484001997858,None,6,1.3108002999797463,1216.8484001997858,None,1.3108002999797463,1218.17774359975,None,1218.6793336998671,None,1218.6793336998671,None,r,0.16769539983943105,1218.6793336998671,None,0.16769539983943105,,,69 sing,001,2022_Nov_01_1059,ProdSingRedoBetween,2021.2.3,59.82578726244381,
,,,,156,0,156,0,,,,,,,,,,,,,,,,,,,,,,1223.2957182000391,None,,,,,,,,,,,,,,,,,medicine,1,157,silent,old,yellow,1219.379764100071,None,1219.379764100071,None,6,2.6673463000915945,1219.379764100071,None,2.6673463000915945,1222.0657077999786,None,1222.5863302000798,None,1222.5863302000798,None,r,0.6768832998350263,1222.5863302000798,None,0.6768832998350263,,,69 sing,001,2022_Nov_01_1059,ProdSingRedoBetween,2021.2.3,59.82578726244381,
,,,,157,0,157,0,,,,,,,,,,,,,,,,,,,,,,1225.4847093001008,None,,,,,,,,,,,,,,,,,owner,11,158,silent,old,yellow,1223.8077920000069,None,1223.8077920000069,None,1,0.9914433001540601,1223.8077920000069,None,0.9914433001540601,1224.818992599845,None,1225.3357196999714,None,1225.3357196999714,None,n,0.12726450012996793,1225.3357196999714,None,0.12726450012996793,,,69 sing,001,2022_Nov_01_1059,ProdSingRedoBetween,2021.2.3,59.82578726244381,
,,,,158,0,158,0,,,,,,,,,,,,,,,,,,,,,,1228.28730610013,None,,,,,,,,,,,,,,,,,growth,164,159,silent,new,null,1225.9868608997203,None,1225.9868608997203,None,1,1.2921906998381019,1225.9868608997203,None,1.2921906998381019,1227.3048216998577,None,1227.8273571999744,None,1227.8273571999744,None,n,0.44369499990716577,1227.8273571999744,None,0.44369499990716577,,,69 sing,001,2022_Nov_01_1059,ProdSingRedoBetween,2021.2.3,59.82578726244381,
,,,,159,0,159,0,,,,,,,,,,,,,,,,,,,,,,1230.6564565999433,None,,,,,,,,,,,,,,,,,express,174,160,silent,new,null,1228.78962159995,None,1228.78962159995,None,1,1.1855310001410544,1228.78962159995,None,1.1855310001410544,1230.0078666997142,None,1230.522424899973,None,1230.522424899973,None,n,0.108748700004071,1230.522424899973,None,0.108748700004071,,,69 sing,001,2022_Nov_01_1059,ProdSingRedoBetween,2021.2.3,59.82578726244381,
,,,,160,0,160,0,,,,,,,,,,,,,,,,,,,,,,1233.1263073999435,None,,,,,,,,,,,,,,,,,interior,10,161,silent,old,yellow,1231.1693393997848,None,1231.1693393997848,None,6,1.2859186995774508,1231.1693393997848,None,1.2859186995774508,1232.4755051000975,None,1232.9916512998752,None,1232.9916512998752,None,r,0.11143280006945133,1232.9916512998752,None,0.11143280006945133,,,69 sing,001,2022_Nov_01_1059,ProdSingRedoBetween,2021.2.3,59.82578726244381,
,,,,161,0,161,0,,,,,,,,,,,,,,,,,,,,,,1235.911581600085,None,,,,,,,,,,,,,,,,,collection,59,162,silent,old,yellow,1233.6507350001484,None,1233.6507350001484,None,1,1.5726555995643139,1233.6507350001484,None,1.5726555995643139,1235.2461903998628,None,1235.7647342998534,None,1235.7647342998534,None,n,0.13034720020368695,1235.7647342998534,None,0.13034720020368695,,,69 sing,001,2022_Nov_01_1059,ProdSingRedoBetween,2021.2.3,59.82578726244381,
,,,,162,0,162,0,,,,,,,,,,,,,,,,,,,,,,1238.6809851997532,None,,,,,,,,,,,,,,,,,graduate,155,163,silent,new,null,1236.4178499998525,None,1236.4178499998525,None,1,1.5011996999382973,1236.4178499998525,None,1.5011996999382973,1237.949635299854,None,1238.4634791999124,None,1238.4634791999124,None,n,0.19157820008695126,1238.4634791999124,None,0.19157820008695126,,,69 sing,001,2022_Nov_01_1059,ProdSingRedoBetween,2021.2.3,59.82578726244381,
,,,,163,0,163,0,,,,,,,,,,,,,,,,,,,,,,1241.635553599801,None,,,,,,,,,,,,,,,,,thing,57,164,silent,old,blue,1239.1830258001573,None,1239.1830258001573,None,6,1.8080346998758614,1239.1830258001573,None,1.8080346998758614,1241.0179793997668,None,1241.5348255997524,None,1241.5348255997524,None,r,0.08045450039207935,1241.5348255997524,None,0.08045450039207935,,,69 sing,001,2022_Nov_01_1059,ProdSingRedoBetween,2021.2.3,59.82578726244381,
,,,,164,0,164,0,,,,,,,,,,,,,,,,,,,,,,1244.0037421998568,None,,,,,,,,,,,,,,,,,minor,179,165,silent,new,null,1242.1539360000752,None,1242.1539360000752,None,1,1.1410949998535216,1242.1539360000752,None,1.1410949998535216,1243.3207964999601,None,1243.8354739998467,None,1243.8354739998467,None,n,0.1395685998722911,1243.8354739998467,None,0.1395685998722911,,,69 sing,001,2022_Nov_01_1059,ProdSingRedoBetween,2021.2.3,59.82578726244381,
,,,,165,0,165,0,,,,,,,,,,,,,,,,,,,,,,1246.6733627999201,None,,,,,,,,,,,,,,,,,breath,159,166,silent,new,null,1244.5169309000485,None,1244.5169309000485,None,1,1.3701309002935886,1244.5169309000485,None,1.3701309002935886,1245.9056954998523,None,1246.4211877998896,None,1246.4211877998896,None,n,0.23404829995706677,1246.4211877998896,None,0.23404829995706677,,,69 sing,001,2022_Nov_01_1059,ProdSingRedoBetween,2021.2.3,59.82578726244381,
,,,,166,0,166,0,,,,,,,,,,,,,,,,,,,,,,1250.6927030999213,None,,,,,,,,,,,,,,,,,author,72,167,silent,old,red,1247.193575500045,None,1247.193575500045,None,1,1.1894748001359403,1247.193575500045,None,1.1894748001359403,1248.40816059988,None,1248.9237289000303,None,1248.9237289000303,None,n,1.73932099994272,1248.9237289000303,None,1.73932099994272,,,69 sing,001,2022_Nov_01_1059,ProdSingRedoBetween,2021.2.3,59.82578726244381,
,,,,167,0,167,0,,,,,,,,,,,,,,,,,,,,,,1254.6811039997265,None,,,,,,,,,,,,,,,,,straight,71,168,silent,old,red,1251.2105769999325,None,1251.2105769999325,None,6,2.788403899874538,1251.2105769999325,None,2.788403899874538,1254.0319574000314,None,1254.5523936999962,None,1254.5523936999962,None,r,0.1026829001493752,1254.5523936999962,None,0.1026829001493752,,,69 sing,001,2022_Nov_01_1059,ProdSingRedoBetween,2021.2.3,59.82578726244381,
,,,,168,0,168,0,,,,,,,,,,,,,,,,,,,,,,1257.066452600062,None,,,,,,,,,,,,,,,,,hearing,5,169,silent,old,yellow,1255.2006912999786,None,1255.2006912999786,None,1,1.0946661001071334,1255.2006912999786,None,1.0946661001071334,1256.3166825999506,None,1256.831511999946,None,1256.831511999946,None,n,0.21587860025465488,1256.831511999946,None,0.21587860025465488,,,69 sing,001,2022_Nov_01_1059,ProdSingRedoBetween,2021.2.3,59.82578726244381,
,,,,169,0,169,0,,,,,,,,,,,,,,,,,,,,,,1259.5854633999988,None,,,,,,,,,,,,,,,,,quarter,33,170,silent,old,blue,1257.5676381997764,None,1257.5676381997764,None,1,1.3274149000644684,1257.5676381997764,None,1.3274149000644684,1258.922592099756,None,1259.4349019997753,None,1259.4349019997753,None,n,0.12427290016785264,1259.4349019997753,None,0.12427290016785264,,,69 sing,001,2022_Nov_01_1059,ProdSingRedoBetween,2021.2.3,59.82578726244381,
,,,,170,0,170,0,,,,,,,,,,,,,,,,,,,,,,1261.821314000059,None,,,,,,,,,,,,,,,,,swift,112,171,silent,new,null,1260.0877609997988,None,1260.0877609997988,None,1,1.0552151999436319,1260.0877609997988,None,1.0552151999436319,1261.1726918998174,None,1261.6872001998127,None,1261.6872001998127,None,n,0.103855200111866,1261.6872001998127,None,0.103855200111866,,,69 sing,001,2022_Nov_01_1059,ProdSingRedoBetween,2021.2.3,59.82578726244381,
,,,,171,0,171,0,,,,,,,,,,,,,,,,,,,,,,1264.5575099000707,None,,,,,,,,,,,,,,,,,weight,29,172,silent,old,blue,1262.3274866999127,None,1262.3274866999127,None,6,1.4795865998603404,1262.3274866999127,None,1.4795865998603404,1263.8404875998385,None,1264.3564875000156,None,1264.3564875000156,None,r,0.1705787000246346,1264.3564875000156,None,0.1705787000246346,,,69 sing,001,2022_Nov_01_1059,ProdSingRedoBetween,2021.2.3,59.82578726244381,
,,,,172,0,172,0,,,,,,,,,,,,,,,,,,,,,,1266.9433768000454,None,,,,,,,,,,,,,,,,,ground,43,173,silent,old,blue,1265.06551760016,None,1265.06551760016,None,1,1.1496009998954833,1265.06551760016,None,1.1496009998954833,1266.244987799786,None,1266.7582354997285,None,1266.7582354997285,None,n,0.15265600010752678,1266.7582354997285,None,0.15265600010752678,,,69 sing,001,2022_Nov_01_1059,ProdSingRedoBetween,2021.2.3,59.82578726244381,
,,,,173,0,173,0,,,,,,,,,,,,,,,,,,,,,,1269.3637823997997,None,,,,,,,,,,,,,,,,,primary,86,174,silent,old,red,1267.4611625000834,None,1267.4611625000834,None,1,1.185928300023079,1267.4611625000834,None,1.185928300023079,1268.679283299949,None,1269.1949260998517,None,1269.1949260998517,None,n,0.14016380021348596,1269.1949260998517,None,0.14016380021348596,,,69 sing,001,2022_Nov_01_1059,ProdSingRedoBetween,2021.2.3,59.82578726244381,
,,,,174,0,174,0,,,,,,,,,,,,,,,,,,,,,,1271.9640095997602,None,,,,,,,,,,,,,,,,,childhood,120,175,silent,new,null,1269.8795845001005,None,1269.8795845001005,None,1,1.1674029999412596,1269.8795845001005,None,1.1674029999412596,1271.0645603998564,None,1271.5808548000641,None,1271.5808548000641,None,n,0.35421060025691986,1271.5808548000641,None,0.35421060025691986,,,69 sing,001,2022_Nov_01_1059,ProdSingRedoBetween,2021.2.3,59.82578726244381,
,,,,175,0,175,0,,,,,,,,,,,,,,,,,,,,,,1274.4341095997952,None,,,,,,,,,,,,,,,,,search,147,176,silent,new,null,1272.4668378997594,None,1272.4668378997594,None,1,1.2285199002362788,1272.4668378997594,None,1.2285199002362788,1273.7175676999614,None,1274.2325542001054,None,1274.2325542001054,None,n,0.18266979977488518,1274.2325542001054,None,0.18266979977488518,,,69 sing,001,2022_Nov_01_1059,ProdSingRedoBetween,2021.2.3,59.82578726244381,
