StudyLoop.thisRepN,StudyLoop.thisTrialN,StudyLoop.thisN,StudyLoop.thisIndex,TestLoop.thisRepN,TestLoop.thisTrialN,TestLoop.thisN,TestLoop.thisIndex,textCondition.started,textCondition.stopped,keyCondition.keys,keyCondition.rt,keyCondition.started,keyCondition.stopped,Condition,textWelcome.started,textWelcome.stopped,keyWelcome.keys,keyWelcome.rt,keyWelcome.started,keyWelcome.stopped,textAloud.started,textAloud.stopped,textSilent.started,textSilent.stopped,textSing.started,textSing.stopped,conditional_text.started,conditional_text.stopped,textBlank500.started,textBlank500.stopped,study_word,study_num,study_order,study_type,word_color,textStudy.started,textStudy.stopped,keyStudy.keys,keyStudy.started,keyStudy.stopped,textTestInstructions.started,textTestInstructions.stopped,key_resp_3.keys,key_resp_3.rt,key_resp_3.started,key_resp_3.stopped,test_word,test_num,test_order,test_condition,old_new_test,test_word_original_color,textConf.started,textConf.stopped,textConfScale.started,textConfScale.stopped,keyConf.keys,keyConf.rt,keyConf.started,keyConf.stopped,confidence response time,textTestBlank.started,textTestBlank.stopped,textRKN.started,textRKN.stopped,textRKNScale.started,textRKNScale.stopped,keyRKN.keys,keyRKN.rt,keyRKN.started,keyRKN.stopped,rkn response time,textEnd.started,textEnd.stopped,participant,session,date,expName,psychopyVersion,frameRate,
,,,,,,,,37.016299000009894,None,a,4.061584699898958,37.016299000009894,None,,,,,,,,,,,,,,,,,,,,,,,,,,,,,,,,,,,,,,,,,,,,,,,,,,,,,,,,,,,,,,70 Silent,001,2022_Nov_03_1342,ProdSingRedoBetween,2021.2.3,59.848308478840615,
,,,,,,,,,,,,,,SilentTest,41.1448601000011,None,space,665.1580356000923,41.1448601000011,None,,,,,,,,,,,,,,,,,,,,,,,,,,,,,,,,,,,,,,,,,,,,,,,,,,,,,,,70 Silent,001,2022_Nov_03_1342,ProdSingRedoBetween,2021.2.3,59.848308478840615,
0,0,0,0,,,,,,,,,,,,,,,,,,41.1448601000011,None,41.1448601000011,None,41.1448601000011,None,41.1448601000011,None,708.8462522998452,None,little,78,1,silent,red,706.8401659000665,None,None,706.8401659000665,None,,,,,,,,,,,,,,,,,,,,,,,,,,,,,,,,,,,70 Silent,001,2022_Nov_03_1342,ProdSingRedoBetween,2021.2.3,59.848308478840615,
1,0,1,0,,,,,,,,,,,,,,,,,,,,,,,,,,711.3653504000977,None,search,29,2,silent,blue,709.3506636000238,None,None,709.3506636000238,None,,,,,,,,,,,,,,,,,,,,,,,,,,,,,,,,,,,70 Silent,001,2022_Nov_03_1342,ProdSingRedoBetween,2021.2.3,59.848308478840615,
2,0,2,0,,,,,,,,,,,,,,,,,,,,,,,,,,713.8675943999551,None,comfort,64,3,silent,red,711.8679920998402,None,None,711.8679920998402,None,,,,,,,,,,,,,,,,,,,,,,,,,,,,,,,,,,,70 Silent,001,2022_Nov_03_1342,ProdSingRedoBetween,2021.2.3,59.848308478840615,
3,0,3,0,,,,,,,,,,,,,,,,,,,,,,,,,,716.3870275998488,None,general,38,4,silent,blue,714.3737309002317,None,None,714.3737309002317,None,,,,,,,,,,,,,,,,,,,,,,,,,,,,,,,,,,,70 Silent,001,2022_Nov_03_1342,ProdSingRedoBetween,2021.2.3,59.848308478840615,
4,0,4,0,,,,,,,,,,,,,,,,,,,,,,,,,,718.8895462001674,None,crowd,76,5,silent,red,716.8879571002908,None,None,716.8879571002908,None,,,,,,,,,,,,,,,,,,,,,,,,,,,,,,,,,,,70 Silent,001,2022_Nov_03_1342,ProdSingRedoBetween,2021.2.3,59.848308478840615,
5,0,5,0,,,,,,,,,,,,,,,,,,,,,,,,,,721.3924146001227,None,chief,33,6,silent,blue,719.3932119002566,None,None,719.3932119002566,None,,,,,,,,,,,,,,,,,,,,,,,,,,,,,,,,,,,70 Silent,001,2022_Nov_03_1342,ProdSingRedoBetween,2021.2.3,59.848308478840615,
6,0,6,0,,,,,,,,,,,,,,,,,,,,,,,,,,723.8945472999476,None,title,46,7,silent,blue,721.8942442000844,None,None,721.8942442000844,None,,,,,,,,,,,,,,,,,,,,,,,,,,,,,,,,,,,70 Silent,001,2022_Nov_03_1342,ProdSingRedoBetween,2021.2.3,59.848308478840615,
7,0,7,0,,,,,,,,,,,,,,,,,,,,,,,,,,726.3972002998926,None,spoke,11,8,silent,yellow,724.3980741002597,None,None,724.3980741002597,None,,,,,,,,,,,,,,,,,,,,,,,,,,,,,,,,,,,70 Silent,001,2022_Nov_03_1342,ProdSingRedoBetween,2021.2.3,59.848308478840615,
8,0,8,0,,,,,,,,,,,,,,,,,,,,,,,,,,728.8994375001639,None,store,49,9,silent,blue,726.9004102000035,None,None,726.9004102000035,None,,,,,,,,,,,,,,,,,,,,,,,,,,,,,,,,,,,70 Silent,001,2022_Nov_03_1342,ProdSingRedoBetween,2021.2.3,59.848308478840615,
9,0,9,0,,,,,,,,,,,,,,,,,,,,,,,,,,731.4019255000167,None,people,86,10,silent,red,729.4022611998953,None,None,729.4022611998953,None,,,,,,,,,,,,,,,,,,,,,,,,,,,,,,,,,,,70 Silent,001,2022_Nov_03_1342,ProdSingRedoBetween,2021.2.3,59.848308478840615,
10,0,10,0,,,,,,,,,,,,,,,,,,,,,,,,,,733.9211528999731,None,institute,25,11,silent,yellow,731.9060236001387,None,None,731.9060236001387,None,,,,,,,,,,,,,,,,,,,,,,,,,,,,,,,,,,,70 Silent,001,2022_Nov_03_1342,ProdSingRedoBetween,2021.2.3,59.848308478840615,
11,0,11,0,,,,,,,,,,,,,,,,,,,,,,,,,,736.4237098000012,None,position,59,12,silent,yellow,734.4237287999131,None,None,734.4237287999131,None,,,,,,,,,,,,,,,,,,,,,,,,,,,,,,,,,,,70 Silent,001,2022_Nov_03_1342,ProdSingRedoBetween,2021.2.3,59.848308478840615,
12,0,12,0,,,,,,,,,,,,,,,,,,,,,,,,,,738.9267706000246,None,accident,17,13,silent,yellow,736.9261159002781,None,None,736.9261159002781,None,,,,,,,,,,,,,,,,,,,,,,,,,,,,,,,,,,,70 Silent,001,2022_Nov_03_1342,ProdSingRedoBetween,2021.2.3,59.848308478840615,
13,0,13,0,,,,,,,,,,,,,,,,,,,,,,,,,,741.4286751998588,None,throw,18,14,silent,yellow,739.4279860001989,None,None,739.4279860001989,None,,,,,,,,,,,,,,,,,,,,,,,,,,,,,,,,,,,70 Silent,001,2022_Nov_03_1342,ProdSingRedoBetween,2021.2.3,59.848308478840615,
14,0,14,0,,,,,,,,,,,,,,,,,,,,,,,,,,743.9311776002869,None,nation,36,15,silent,blue,741.931710800156,None,None,741.931710800156,None,,,,,,,,,,,,,,,,,,,,,,,,,,,,,,,,,,,70 Silent,001,2022_Nov_03_1342,ProdSingRedoBetween,2021.2.3,59.848308478840615,
15,0,15,0,,,,,,,,,,,,,,,,,,,,,,,,,,746.4335503000766,None,empty,75,16,silent,red,744.4335926999338,None,None,744.4335926999338,None,,,,,,,,,,,,,,,,,,,,,,,,,,,,,,,,,,,70 Silent,001,2022_Nov_03_1342,ProdSingRedoBetween,2021.2.3,59.848308478840615,
16,0,16,0,,,,,,,,,,,,,,,,,,,,,,,,,,748.9528923002072,None,measure,60,17,silent,red,746.9496583999135,None,None,746.9496583999135,None,,,,,,,,,,,,,,,,,,,,,,,,,,,,,,,,,,,70 Silent,001,2022_Nov_03_1342,ProdSingRedoBetween,2021.2.3,59.848308478840615,
17,0,17,0,,,,,,,,,,,,,,,,,,,,,,,,,,751.4555212999694,None,burden,28,18,silent,yellow,749.4554233001545,None,None,749.4554233001545,None,,,,,,,,,,,,,,,,,,,,,,,,,,,,,,,,,,,70 Silent,001,2022_Nov_03_1342,ProdSingRedoBetween,2021.2.3,59.848308478840615,
18,0,18,0,,,,,,,,,,,,,,,,,,,,,,,,,,753.9743690001778,None,tragedy,73,19,silent,red,751.9601993998513,None,None,751.9601993998513,None,,,,,,,,,,,,,,,,,,,,,,,,,,,,,,,,,,,70 Silent,001,2022_Nov_03_1342,ProdSingRedoBetween,2021.2.3,59.848308478840615,
19,0,19,0,,,,,,,,,,,,,,,,,,,,,,,,,,756.4938273001462,None,executive,71,20,silent,red,754.4845797000453,None,None,754.4845797000453,None,,,,,,,,,,,,,,,,,,,,,,,,,,,,,,,,,,,70 Silent,001,2022_Nov_03_1342,ProdSingRedoBetween,2021.2.3,59.848308478840615,
20,0,20,0,,,,,,,,,,,,,,,,,,,,,,,,,,759.0127746001817,None,dance,12,21,silent,yellow,757.0043754000217,None,None,757.0043754000217,None,,,,,,,,,,,,,,,,,,,,,,,,,,,,,,,,,,,70 Silent,001,2022_Nov_03_1342,ProdSingRedoBetween,2021.2.3,59.848308478840615,
21,0,21,0,,,,,,,,,,,,,,,,,,,,,,,,,,761.5321868001483,None,hearing,82,22,silent,red,759.5326764001511,None,None,759.5326764001511,None,,,,,,,,,,,,,,,,,,,,,,,,,,,,,,,,,,,70 Silent,001,2022_Nov_03_1342,ProdSingRedoBetween,2021.2.3,59.848308478840615,
22,0,22,0,,,,,,,,,,,,,,,,,,,,,,,,,,764.0345459003001,None,guide,13,23,silent,yellow,762.03443970019,None,None,762.03443970019,None,,,,,,,,,,,,,,,,,,,,,,,,,,,,,,,,,,,70 Silent,001,2022_Nov_03_1342,ProdSingRedoBetween,2021.2.3,59.848308478840615,
23,0,23,0,,,,,,,,,,,,,,,,,,,,,,,,,,766.5536390002817,None,career,35,24,silent,blue,764.5413254001178,None,None,764.5413254001178,None,,,,,,,,,,,,,,,,,,,,,,,,,,,,,,,,,,,70 Silent,001,2022_Nov_03_1342,ProdSingRedoBetween,2021.2.3,59.848308478840615,
24,0,24,0,,,,,,,,,,,,,,,,,,,,,,,,,,769.0562439002097,None,danger,79,25,silent,red,767.0538646001369,None,None,767.0538646001369,None,,,,,,,,,,,,,,,,,,,,,,,,,,,,,,,,,,,70 Silent,001,2022_Nov_03_1342,ProdSingRedoBetween,2021.2.3,59.848308478840615,
25,0,25,0,,,,,,,,,,,,,,,,,,,,,,,,,,771.5587321999483,None,cross,10,26,silent,yellow,769.5587832001038,None,None,769.5587832001038,None,,,,,,,,,,,,,,,,,,,,,,,,,,,,,,,,,,,70 Silent,001,2022_Nov_03_1342,ProdSingRedoBetween,2021.2.3,59.848308478840615,
26,0,26,0,,,,,,,,,,,,,,,,,,,,,,,,,,774.060966799967,None,safety,87,27,silent,red,772.0607678000815,None,None,772.0607678000815,None,,,,,,,,,,,,,,,,,,,,,,,,,,,,,,,,,,,70 Silent,001,2022_Nov_03_1342,ProdSingRedoBetween,2021.2.3,59.848308478840615,
27,0,27,0,,,,,,,,,,,,,,,,,,,,,,,,,,776.563601099886,None,style,40,28,silent,blue,774.5638389000669,None,None,774.5638389000669,None,,,,,,,,,,,,,,,,,,,,,,,,,,,,,,,,,,,70 Silent,001,2022_Nov_03_1342,ProdSingRedoBetween,2021.2.3,59.848308478840615,
28,0,28,0,,,,,,,,,,,,,,,,,,,,,,,,,,779.0834679002874,None,drove,44,29,silent,blue,777.0703298998997,None,None,777.0703298998997,None,,,,,,,,,,,,,,,,,,,,,,,,,,,,,,,,,,,70 Silent,001,2022_Nov_03_1342,ProdSingRedoBetween,2021.2.3,59.848308478840615,
29,0,29,0,,,,,,,,,,,,,,,,,,,,,,,,,,781.5855773002841,None,light,21,30,silent,yellow,779.5836374000646,None,None,779.5836374000646,None,,,,,,,,,,,,,,,,,,,,,,,,,,,,,,,,,,,70 Silent,001,2022_Nov_03_1342,ProdSingRedoBetween,2021.2.3,59.848308478840615,
30,0,30,0,,,,,,,,,,,,,,,,,,,,,,,,,,784.1046045999974,None,welcome,56,31,silent,blue,782.0896401000209,None,None,782.0896401000209,None,,,,,,,,,,,,,,,,,,,,,,,,,,,,,,,,,,,70 Silent,001,2022_Nov_03_1342,ProdSingRedoBetween,2021.2.3,59.848308478840615,
31,0,31,0,,,,,,,,,,,,,,,,,,,,,,,,,,786.6071015000343,None,education,14,32,silent,yellow,784.605206400156,None,None,784.605206400156,None,,,,,,,,,,,,,,,,,,,,,,,,,,,,,,,,,,,70 Silent,001,2022_Nov_03_1342,ProdSingRedoBetween,2021.2.3,59.848308478840615,
32,0,32,0,,,,,,,,,,,,,,,,,,,,,,,,,,789.1095632002689,None,universal,41,33,silent,blue,787.1103552998975,None,None,787.1103552998975,None,,,,,,,,,,,,,,,,,,,,,,,,,,,,,,,,,,,70 Silent,001,2022_Nov_03_1342,ProdSingRedoBetween,2021.2.3,59.848308478840615,
33,0,33,0,,,,,,,,,,,,,,,,,,,,,,,,,,791.6117648002692,None,member,83,34,silent,red,789.6124148000963,None,None,789.6124148000963,None,,,,,,,,,,,,,,,,,,,,,,,,,,,,,,,,,,,70 Silent,001,2022_Nov_03_1342,ProdSingRedoBetween,2021.2.3,59.848308478840615,
34,0,34,0,,,,,,,,,,,,,,,,,,,,,,,,,,794.1146845002659,None,community,4,35,silent,yellow,792.1155632999726,None,None,792.1155632999726,None,,,,,,,,,,,,,,,,,,,,,,,,,,,,,,,,,,,70 Silent,001,2022_Nov_03_1342,ProdSingRedoBetween,2021.2.3,59.848308478840615,
35,0,35,0,,,,,,,,,,,,,,,,,,,,,,,,,,796.6170278000645,None,character,20,36,silent,yellow,794.6152484999038,None,None,794.6152484999038,None,,,,,,,,,,,,,,,,,,,,,,,,,,,,,,,,,,,70 Silent,001,2022_Nov_03_1342,ProdSingRedoBetween,2021.2.3,59.848308478840615,
36,0,36,0,,,,,,,,,,,,,,,,,,,,,,,,,,799.1196178002283,None,review,22,37,silent,yellow,797.1194422002882,None,None,797.1194422002882,None,,,,,,,,,,,,,,,,,,,,,,,,,,,,,,,,,,,70 Silent,001,2022_Nov_03_1342,ProdSingRedoBetween,2021.2.3,59.848308478840615,
37,0,37,0,,,,,,,,,,,,,,,,,,,,,,,,,,801.6221604999155,None,trial,32,38,silent,blue,799.6208931002766,None,None,799.6208931002766,None,,,,,,,,,,,,,,,,,,,,,,,,,,,,,,,,,,,70 Silent,001,2022_Nov_03_1342,ProdSingRedoBetween,2021.2.3,59.848308478840615,
38,0,38,0,,,,,,,,,,,,,,,,,,,,,,,,,,804.1414684001356,None,bureau,39,39,silent,blue,802.1258904999122,None,None,802.1258904999122,None,,,,,,,,,,,,,,,,,,,,,,,,,,,,,,,,,,,70 Silent,001,2022_Nov_03_1342,ProdSingRedoBetween,2021.2.3,59.848308478840615,
39,0,39,0,,,,,,,,,,,,,,,,,,,,,,,,,,806.6434991001152,None,staff,8,40,silent,yellow,804.6442618002184,None,None,804.6442618002184,None,,,,,,,,,,,,,,,,,,,,,,,,,,,,,,,,,,,70 Silent,001,2022_Nov_03_1342,ProdSingRedoBetween,2021.2.3,59.848308478840615,
40,0,40,0,,,,,,,,,,,,,,,,,,,,,,,,,,809.162914799992,None,article,88,41,silent,red,807.1498652999289,None,None,807.1498652999289,None,,,,,,,,,,,,,,,,,,,,,,,,,,,,,,,,,,,70 Silent,001,2022_Nov_03_1342,ProdSingRedoBetween,2021.2.3,59.848308478840615,
41,0,41,0,,,,,,,,,,,,,,,,,,,,,,,,,,811.6819503000006,None,sunset,68,42,silent,red,809.6670373999514,None,None,809.6670373999514,None,,,,,,,,,,,,,,,,,,,,,,,,,,,,,,,,,,,70 Silent,001,2022_Nov_03_1342,ProdSingRedoBetween,2021.2.3,59.848308478840615,
42,0,42,0,,,,,,,,,,,,,,,,,,,,,,,,,,814.1849330998957,None,evidence,45,43,silent,blue,812.1845799000002,None,None,812.1845799000002,None,,,,,,,,,,,,,,,,,,,,,,,,,,,,,,,,,,,70 Silent,001,2022_Nov_03_1342,ProdSingRedoBetween,2021.2.3,59.848308478840615,
43,0,43,0,,,,,,,,,,,,,,,,,,,,,,,,,,816.6873286999762,None,graduate,26,44,silent,yellow,814.6872232998721,None,None,814.6872232998721,None,,,,,,,,,,,,,,,,,,,,,,,,,,,,,,,,,,,70 Silent,001,2022_Nov_03_1342,ProdSingRedoBetween,2021.2.3,59.848308478840615,
44,0,44,0,,,,,,,,,,,,,,,,,,,,,,,,,,819.1899534002878,None,broad,85,45,silent,red,817.1894904002547,None,None,817.1894904002547,None,,,,,,,,,,,,,,,,,,,,,,,,,,,,,,,,,,,70 Silent,001,2022_Nov_03_1342,ProdSingRedoBetween,2021.2.3,59.848308478840615,
45,0,45,0,,,,,,,,,,,,,,,,,,,,,,,,,,821.6937621003017,None,resistance,89,46,silent,red,819.693674699869,None,None,819.693674699869,None,,,,,,,,,,,,,,,,,,,,,,,,,,,,,,,,,,,70 Silent,001,2022_Nov_03_1342,ProdSingRedoBetween,2021.2.3,59.848308478840615,
46,0,46,0,,,,,,,,,,,,,,,,,,,,,,,,,,824.2114908001386,None,fight,72,47,silent,red,822.2111527002417,None,None,822.2111527002417,None,,,,,,,,,,,,,,,,,,,,,,,,,,,,,,,,,,,70 Silent,001,2022_Nov_03_1342,ProdSingRedoBetween,2021.2.3,59.848308478840615,
47,0,47,0,,,,,,,,,,,,,,,,,,,,,,,,,,826.7137918001972,None,rural,23,48,silent,yellow,824.7142793000676,None,None,824.7142793000676,None,,,,,,,,,,,,,,,,,,,,,,,,,,,,,,,,,,,70 Silent,001,2022_Nov_03_1342,ProdSingRedoBetween,2021.2.3,59.848308478840615,
48,0,48,0,,,,,,,,,,,,,,,,,,,,,,,,,,829.2160306000151,None,detective,47,49,silent,blue,827.2163172001019,None,None,827.2163172001019,None,,,,,,,,,,,,,,,,,,,,,,,,,,,,,,,,,,,70 Silent,001,2022_Nov_03_1342,ProdSingRedoBetween,2021.2.3,59.848308478840615,
49,0,49,0,,,,,,,,,,,,,,,,,,,,,,,,,,831.7187216002494,None,country,37,50,silent,blue,829.7186135998927,None,None,829.7186135998927,None,,,,,,,,,,,,,,,,,,,,,,,,,,,,,,,,,,,70 Silent,001,2022_Nov_03_1342,ProdSingRedoBetween,2021.2.3,59.848308478840615,
50,0,50,0,,,,,,,,,,,,,,,,,,,,,,,,,,834.2375513999723,None,department,7,51,silent,yellow,832.2243608999997,None,None,832.2243608999997,None,,,,,,,,,,,,,,,,,,,,,,,,,,,,,,,,,,,70 Silent,001,2022_Nov_03_1342,ProdSingRedoBetween,2021.2.3,59.848308478840615,
51,0,51,0,,,,,,,,,,,,,,,,,,,,,,,,,,836.7404860998504,None,skill,58,52,silent,blue,834.7402888000943,None,None,834.7402888000943,None,,,,,,,,,,,,,,,,,,,,,,,,,,,,,,,,,,,70 Silent,001,2022_Nov_03_1342,ProdSingRedoBetween,2021.2.3,59.848308478840615,
52,0,52,0,,,,,,,,,,,,,,,,,,,,,,,,,,839.2434522998519,None,travel,57,53,silent,blue,837.243365699891,None,None,837.243365699891,None,,,,,,,,,,,,,,,,,,,,,,,,,,,,,,,,,,,70 Silent,001,2022_Nov_03_1342,ProdSingRedoBetween,2021.2.3,59.848308478840615,
53,0,53,0,,,,,,,,,,,,,,,,,,,,,,,,,,841.7456140001304,None,candidate,43,54,silent,blue,839.7443500002846,None,None,839.7443500002846,None,,,,,,,,,,,,,,,,,,,,,,,,,,,,,,,,,,,70 Silent,001,2022_Nov_03_1342,ProdSingRedoBetween,2021.2.3,59.848308478840615,
54,0,54,0,,,,,,,,,,,,,,,,,,,,,,,,,,844.2643988998607,None,frank,70,55,silent,red,842.2504775002599,None,None,842.2504775002599,None,,,,,,,,,,,,,,,,,,,,,,,,,,,,,,,,,,,70 Silent,001,2022_Nov_03_1342,ProdSingRedoBetween,2021.2.3,59.848308478840615,
55,0,55,0,,,,,,,,,,,,,,,,,,,,,,,,,,846.7672004001215,None,agreement,84,56,silent,red,844.7659636000171,None,None,844.7659636000171,None,,,,,,,,,,,,,,,,,,,,,,,,,,,,,,,,,,,70 Silent,001,2022_Nov_03_1342,ProdSingRedoBetween,2021.2.3,59.848308478840615,
56,0,56,0,,,,,,,,,,,,,,,,,,,,,,,,,,849.2692976002581,None,touch,54,57,silent,blue,847.2684185998514,None,None,847.2684185998514,None,,,,,,,,,,,,,,,,,,,,,,,,,,,,,,,,,,,70 Silent,001,2022_Nov_03_1342,ProdSingRedoBetween,2021.2.3,59.848308478840615,
57,0,57,0,,,,,,,,,,,,,,,,,,,,,,,,,,851.7722104000859,None,drink,31,58,silent,blue,849.7721382998861,None,None,849.7721382998861,None,,,,,,,,,,,,,,,,,,,,,,,,,,,,,,,,,,,70 Silent,001,2022_Nov_03_1342,ProdSingRedoBetween,2021.2.3,59.848308478840615,
58,0,58,0,,,,,,,,,,,,,,,,,,,,,,,,,,854.2912955000065,None,platform,16,59,silent,yellow,852.2769217002206,None,None,852.2769217002206,None,,,,,,,,,,,,,,,,,,,,,,,,,,,,,,,,,,,70 Silent,001,2022_Nov_03_1342,ProdSingRedoBetween,2021.2.3,59.848308478840615,
59,0,59,0,,,,,,,,,,,,,,,,,,,,,,,,,,856.7939702998847,None,taste,19,60,silent,yellow,854.7940481002443,None,None,854.7940481002443,None,,,,,,,,,,,,,,,,,,,,,,,,,,,,,,,,,,,70 Silent,001,2022_Nov_03_1342,ProdSingRedoBetween,2021.2.3,59.848308478840615,
60,0,60,0,,,,,,,,,,,,,,,,,,,,,,,,,,859.2960167001002,None,tough,80,61,silent,red,857.2969189998694,None,None,857.2969189998694,None,,,,,,,,,,,,,,,,,,,,,,,,,,,,,,,,,,,70 Silent,001,2022_Nov_03_1342,ProdSingRedoBetween,2021.2.3,59.848308478840615,
61,0,61,0,,,,,,,,,,,,,,,,,,,,,,,,,,861.8151763002388,None,emergency,30,62,silent,blue,859.8037302000448,None,None,859.8037302000448,None,,,,,,,,,,,,,,,,,,,,,,,,,,,,,,,,,,,70 Silent,001,2022_Nov_03_1342,ProdSingRedoBetween,2021.2.3,59.848308478840615,
62,0,62,0,,,,,,,,,,,,,,,,,,,,,,,,,,864.3180212001316,None,appearance,34,63,silent,blue,862.3162557999603,None,None,862.3162557999603,None,,,,,,,,,,,,,,,,,,,,,,,,,,,,,,,,,,,70 Silent,001,2022_Nov_03_1342,ProdSingRedoBetween,2021.2.3,59.848308478840615,
63,0,63,0,,,,,,,,,,,,,,,,,,,,,,,,,,866.8366935001686,None,industry,51,64,silent,blue,864.821836499963,None,None,864.821836499963,None,,,,,,,,,,,,,,,,,,,,,,,,,,,,,,,,,,,70 Silent,001,2022_Nov_03_1342,ProdSingRedoBetween,2021.2.3,59.848308478840615,
64,0,64,0,,,,,,,,,,,,,,,,,,,,,,,,,,869.3396683000028,None,gesture,52,65,silent,blue,867.3380204001442,None,None,867.3380204001442,None,,,,,,,,,,,,,,,,,,,,,,,,,,,,,,,,,,,70 Silent,001,2022_Nov_03_1342,ProdSingRedoBetween,2021.2.3,59.848308478840615,
65,0,65,0,,,,,,,,,,,,,,,,,,,,,,,,,,871.8442056002095,None,research,9,66,silent,yellow,869.8424335001037,None,None,869.8424335001037,None,,,,,,,,,,,,,,,,,,,,,,,,,,,,,,,,,,,70 Silent,001,2022_Nov_03_1342,ProdSingRedoBetween,2021.2.3,59.848308478840615,
66,0,66,0,,,,,,,,,,,,,,,,,,,,,,,,,,874.3610391002148,None,bitter,81,67,silent,red,872.3596081002615,None,None,872.3596081002615,None,,,,,,,,,,,,,,,,,,,,,,,,,,,,,,,,,,,70 Silent,001,2022_Nov_03_1342,ProdSingRedoBetween,2021.2.3,59.848308478840615,
67,0,67,0,,,,,,,,,,,,,,,,,,,,,,,,,,876.8640606999397,None,permit,69,68,silent,red,874.8630027002655,None,None,874.8630027002655,None,,,,,,,,,,,,,,,,,,,,,,,,,,,,,,,,,,,70 Silent,001,2022_Nov_03_1342,ProdSingRedoBetween,2021.2.3,59.848308478840615,
68,0,68,0,,,,,,,,,,,,,,,,,,,,,,,,,,879.3661754000932,None,rough,61,69,silent,red,877.3651111000217,None,None,877.3651111000217,None,,,,,,,,,,,,,,,,,,,,,,,,,,,,,,,,,,,70 Silent,001,2022_Nov_03_1342,ProdSingRedoBetween,2021.2.3,59.848308478840615,
69,0,69,0,,,,,,,,,,,,,,,,,,,,,,,,,,881.8689124002121,None,crime,63,70,silent,red,879.8683862001635,None,None,879.8683862001635,None,,,,,,,,,,,,,,,,,,,,,,,,,,,,,,,,,,,70 Silent,001,2022_Nov_03_1342,ProdSingRedoBetween,2021.2.3,59.848308478840615,
70,0,70,0,,,,,,,,,,,,,,,,,,,,,,,,,,884.3710600999184,None,still,77,71,silent,red,882.3701084000058,None,None,882.3701084000058,None,,,,,,,,,,,,,,,,,,,,,,,,,,,,,,,,,,,70 Silent,001,2022_Nov_03_1342,ProdSingRedoBetween,2021.2.3,59.848308478840615,
71,0,71,0,,,,,,,,,,,,,,,,,,,,,,,,,,886.8736427002586,None,split,65,72,silent,red,884.8742654998787,None,None,884.8742654998787,None,,,,,,,,,,,,,,,,,,,,,,,,,,,,,,,,,,,70 Silent,001,2022_Nov_03_1342,ProdSingRedoBetween,2021.2.3,59.848308478840615,
72,0,72,0,,,,,,,,,,,,,,,,,,,,,,,,,,889.3763311998919,None,trash,55,73,silent,blue,887.376398100052,None,None,887.376398100052,None,,,,,,,,,,,,,,,,,,,,,,,,,,,,,,,,,,,70 Silent,001,2022_Nov_03_1342,ProdSingRedoBetween,2021.2.3,59.848308478840615,
73,0,73,0,,,,,,,,,,,,,,,,,,,,,,,,,,891.8954524002038,None,engineer,50,74,silent,blue,889.8824008000083,None,None,889.8824008000083,None,,,,,,,,,,,,,,,,,,,,,,,,,,,,,,,,,,,70 Silent,001,2022_Nov_03_1342,ProdSingRedoBetween,2021.2.3,59.848308478840615,
74,0,74,0,,,,,,,,,,,,,,,,,,,,,,,,,,894.3981441999786,None,solution,5,75,silent,yellow,892.3965493999422,None,None,892.3965493999422,None,,,,,,,,,,,,,,,,,,,,,,,,,,,,,,,,,,,70 Silent,001,2022_Nov_03_1342,ProdSingRedoBetween,2021.2.3,59.848308478840615,
75,0,75,0,,,,,,,,,,,,,,,,,,,,,,,,,,896.9169562002644,None,dozen,1,76,silent,yellow,894.9084503999911,None,None,894.9084503999911,None,,,,,,,,,,,,,,,,,,,,,,,,,,,,,,,,,,,70 Silent,001,2022_Nov_03_1342,ProdSingRedoBetween,2021.2.3,59.848308478840615,
76,0,76,0,,,,,,,,,,,,,,,,,,,,,,,,,,899.4362086001784,None,background,48,77,silent,blue,897.422874700278,None,None,897.422874700278,None,,,,,,,,,,,,,,,,,,,,,,,,,,,,,,,,,,,70 Silent,001,2022_Nov_03_1342,ProdSingRedoBetween,2021.2.3,59.848308478840615,
77,0,77,0,,,,,,,,,,,,,,,,,,,,,,,,,,901.9563763001934,None,grade,3,78,silent,yellow,899.9483695002273,None,None,899.9483695002273,None,,,,,,,,,,,,,,,,,,,,,,,,,,,,,,,,,,,70 Silent,001,2022_Nov_03_1342,ProdSingRedoBetween,2021.2.3,59.848308478840615,
78,0,78,0,,,,,,,,,,,,,,,,,,,,,,,,,,904.4579620002769,None,contract,0,79,silent,yellow,902.4581732000224,None,None,902.4581732000224,None,,,,,,,,,,,,,,,,,,,,,,,,,,,,,,,,,,,70 Silent,001,2022_Nov_03_1342,ProdSingRedoBetween,2021.2.3,59.848308478840615,
79,0,79,0,,,,,,,,,,,,,,,,,,,,,,,,,,906.9922934998758,None,surface,27,80,silent,yellow,904.9726066999137,None,None,904.9726066999137,None,,,,,,,,,,,,,,,,,,,,,,,,,,,,,,,,,,,70 Silent,001,2022_Nov_03_1342,ProdSingRedoBetween,2021.2.3,59.848308478840615,
80,0,80,0,,,,,,,,,,,,,,,,,,,,,,,,,,909.4796361001208,None,threat,67,81,silent,red,907.4804541999474,None,None,907.4804541999474,None,,,,,,,,,,,,,,,,,,,,,,,,,,,,,,,,,,,70 Silent,001,2022_Nov_03_1342,ProdSingRedoBetween,2021.2.3,59.848308478840615,
81,0,81,0,,,,,,,,,,,,,,,,,,,,,,,,,,911.9824072001502,None,material,24,82,silent,yellow,909.9822975001298,None,None,909.9822975001298,None,,,,,,,,,,,,,,,,,,,,,,,,,,,,,,,,,,,70 Silent,001,2022_Nov_03_1342,ProdSingRedoBetween,2021.2.3,59.848308478840615,
82,0,82,0,,,,,,,,,,,,,,,,,,,,,,,,,,914.501379400026,None,damage,15,83,silent,yellow,912.4856163999066,None,None,912.4856163999066,None,,,,,,,,,,,,,,,,,,,,,,,,,,,,,,,,,,,70 Silent,001,2022_Nov_03_1342,ProdSingRedoBetween,2021.2.3,59.848308478840615,
83,0,83,0,,,,,,,,,,,,,,,,,,,,,,,,,,917.0204520998523,None,color,42,84,silent,blue,915.0061058001593,None,None,915.0061058001593,None,,,,,,,,,,,,,,,,,,,,,,,,,,,,,,,,,,,70 Silent,001,2022_Nov_03_1342,ProdSingRedoBetween,2021.2.3,59.848308478840615,
84,0,84,0,,,,,,,,,,,,,,,,,,,,,,,,,,919.5227549001575,None,beginning,2,85,silent,yellow,917.5230955001898,None,None,917.5230955001898,None,,,,,,,,,,,,,,,,,,,,,,,,,,,,,,,,,,,70 Silent,001,2022_Nov_03_1342,ProdSingRedoBetween,2021.2.3,59.848308478840615,
85,0,85,0,,,,,,,,,,,,,,,,,,,,,,,,,,922.0249545001425,None,poetry,62,86,silent,red,920.0260390001349,None,None,920.0260390001349,None,,,,,,,,,,,,,,,,,,,,,,,,,,,,,,,,,,,70 Silent,001,2022_Nov_03_1342,ProdSingRedoBetween,2021.2.3,59.848308478840615,
86,0,86,0,,,,,,,,,,,,,,,,,,,,,,,,,,924.5278018000536,None,clean,53,87,silent,blue,922.5271153999493,None,None,922.5271153999493,None,,,,,,,,,,,,,,,,,,,,,,,,,,,,,,,,,,,70 Silent,001,2022_Nov_03_1342,ProdSingRedoBetween,2021.2.3,59.848308478840615,
87,0,87,0,,,,,,,,,,,,,,,,,,,,,,,,,,927.0300731002353,None,patient,6,88,silent,yellow,925.0284889000468,None,None,925.0284889000468,None,,,,,,,,,,,,,,,,,,,,,,,,,,,,,,,,,,,70 Silent,001,2022_Nov_03_1342,ProdSingRedoBetween,2021.2.3,59.848308478840615,
88,0,88,0,,,,,,,,,,,,,,,,,,,,,,,,,,929.5329185002483,None,signal,74,89,silent,red,927.5331037999131,None,None,927.5331037999131,None,,,,,,,,,,,,,,,,,,,,,,,,,,,,,,,,,,,70 Silent,001,2022_Nov_03_1342,ProdSingRedoBetween,2021.2.3,59.848308478840615,
89,0,89,0,,,,,,,,,,,,,,,,,,,,,,,,,,932.0523041998968,None,incident,66,90,silent,red,930.0374480001628,None,None,930.0374480001628,None,,,,,,,,,,,,,,,,,,,,,,,,,,,,,,,,,,,70 Silent,001,2022_Nov_03_1342,ProdSingRedoBetween,2021.2.3,59.848308478840615,
,,,,,,,,,,,,,,,,,,,,,,,,,,,,,,,,,,,,,,,,,932.5520343999378,None,k,201.50203120009974,932.5520343999378,None,,,,,,,,,,,,,,,,,,,,,,,,,,,,,70 Silent,001,2022_Nov_03_1342,ProdSingRedoBetween,2021.2.3,59.848308478840615,
,,,,0,0,0,0,,,,,,,,,,,,,,,,,,,,,,1143.6488092001528,None,,,,,,,,,,,,,,,,,measure,60,1,silent,old,red,1134.581612400245,None,1134.581612400245,None,3,4.880400999914855,1134.581612400245,None,4.880400999914855,1139.4985838001594,None,1140.0098836999387,None,1140.0098836999387,None,f,3.620127100031823,1140.0098836999387,None,3.620127100031823,,,70 Silent,001,2022_Nov_03_1342,ProdSingRedoBetween,2021.2.3,59.848308478840615,
,,,,1,0,1,0,,,,,,,,,,,,,,,,,,,,,,1151.1047590998933,None,,,,,,,,,,,,,,,,,comfort,64,2,silent,old,red,1144.1658725999296,None,1144.1658725999296,None,5,3.792118100449443,1144.1658725999296,None,3.792118100449443,1147.986975400243,None,1148.5052422001027,None,1148.5052422001027,None,r,2.572685500141233,1148.5052422001027,None,2.572685500141233,,,70 Silent,001,2022_Nov_03_1342,ProdSingRedoBetween,2021.2.3,59.848308478840615,
,,,,2,0,2,0,,,,,,,,,,,,,,,,,,,,,,1158.5787680000067,None,,,,,,,,,,,,,,,,,range,121,3,silent,new,null,1151.618460000027,None,1151.618460000027,None,3,3.4834925001487136,1151.618460000027,None,3.4834925001487136,1155.1279235002585,None,1155.6559867998585,None,1155.6559867998585,None,f,2.9021211001090705,1155.6559867998585,None,2.9021211001090705,,,70 Silent,001,2022_Nov_03_1342,ProdSingRedoBetween,2021.2.3,59.848308478840615,
,,,,3,0,3,0,,,,,,,,,,,,,,,,,,,,,,1165.0007865000516,None,,,,,,,,,,,,,,,,,quarter,93,4,silent,new,null,1159.0828224001452,None,1159.0828224001452,None,1,3.923148199915886,1159.0828224001452,None,3.923148199915886,1163.0392606998794,None,1163.5517632998526,None,1163.5517632998526,None,n,1.4304169998504221,1163.5517632998526,None,1.4304169998504221,,,70 Silent,001,2022_Nov_03_1342,ProdSingRedoBetween,2021.2.3,59.848308478840615,
,,,,4,0,4,0,,,,,,,,,,,,,,,,,,,,,,1169.4736776002683,None,,,,,,,,,,,,,,,,,prime,168,5,silent,new,null,1165.5063221999444,None,1165.5063221999444,None,1,2.2755966000258923,1165.5063221999444,None,2.2755966000258923,1167.807678699959,None,1168.3210550001822,None,1168.3210550001822,None,n,1.1331092999316752,1168.3210550001822,None,1.1331092999316752,,,70 Silent,001,2022_Nov_03_1342,ProdSingRedoBetween,2021.2.3,59.848308478840615,
,,,,5,0,5,0,,,,,,,,,,,,,,,,,,,,,,1174.7624801001512,None,,,,,,,,,,,,,,,,,welcome,56,6,silent,old,blue,1169.992463100236,None,1169.992463100236,None,6,3.181650099810213,1169.992463100236,None,3.181650099810213,1173.1956472001038,None,1173.7122899000533,None,1173.7122899000533,None,r,1.0299622998572886,1173.7122899000533,None,1.0299622998572886,,,70 Silent,001,2022_Nov_03_1342,ProdSingRedoBetween,2021.2.3,59.848308478840615,
,,,,6,0,6,0,,,,,,,,,,,,,,,,,,,,,,1180.7141036000103,None,,,,,,,,,,,,,,,,,gesture,52,7,silent,old,blue,1175.2801421000622,None,1175.2801421000622,None,2,2.133777600247413,1175.2801421000622,None,2.133777600247413,1177.440776700154,None,1177.9519815002568,None,1177.9519815002568,None,f,2.725892100017518,1177.9519815002568,None,2.725892100017518,,,70 Silent,001,2022_Nov_03_1342,ProdSingRedoBetween,2021.2.3,59.848308478840615,
,,,,7,0,7,0,,,,,,,,,,,,,,,,,,,,,,1186.3864915999584,None,,,,,,,,,,,,,,,,,platform,16,8,silent,old,yellow,1181.221287699882,None,1181.221287699882,None,1,3.1606759997084737,1181.221287699882,None,3.1606759997084737,1184.41117820004,None,1184.9248482002877,None,1184.9248482002877,None,n,1.4251232999376953,1184.9248482002877,None,1.4251232999376953,,,70 Silent,001,2022_Nov_03_1342,ProdSingRedoBetween,2021.2.3,59.848308478840615,
,,,,8,0,8,0,,,,,,,,,,,,,,,,,,,,,,1194.7182053001598,None,,,,,,,,,,,,,,,,,people,86,9,silent,old,red,1186.9099110001698,None,1186.9099110001698,None,4,6.06400839984417,1186.9099110001698,None,6.06400839984417,1192.9995698998682,None,1193.5181841999292,None,1193.5181841999292,None,f,1.1599658001214266,1193.5181841999292,None,1.1599658001214266,,,70 Silent,001,2022_Nov_03_1342,ProdSingRedoBetween,2021.2.3,59.848308478840615,
,,,,9,0,9,0,,,,,,,,,,,,,,,,,,,,,,1201.5553933000192,None,,,,,,,,,,,,,,,,,watch,118,10,silent,new,null,1195.2350324001163,None,1195.2350324001163,None,3,4.65112439962104,1195.2350324001163,None,4.65112439962104,1199.9049475998618,None,1200.4199207001366,None,1200.4199207001366,None,f,1.1143279997631907,1200.4199207001366,None,1.1143279997631907,,,70 Silent,001,2022_Nov_03_1342,ProdSingRedoBetween,2021.2.3,59.848308478840615,
,,,,10,0,10,0,,,,,,,,,,,,,,,,,,,,,,1206.0265704998747,None,,,,,,,,,,,,,,,,,silence,94,11,silent,new,null,1202.060621399898,None,1202.060621399898,None,6,1.961290500126779,1202.060621399898,None,1.961290500126779,1204.041850999929,None,1204.5576710002497,None,1204.5576710002497,None,r,1.440171499736607,1204.5576710002497,None,1.440171499736607,,,70 Silent,001,2022_Nov_03_1342,ProdSingRedoBetween,2021.2.3,59.848308478840615,
,,,,11,0,11,0,,,,,,,,,,,,,,,,,,,,,,1211.2003641002811,None,,,,,,,,,,,,,,,,,employment,145,12,silent,new,null,1206.5303569003008,None,1206.5303569003008,None,2,3.3316959999501705,1206.5303569003008,None,3.3316959999501705,1209.8819794999436,None,1210.3995567001402,None,1210.3995567001402,None,n,0.7743266997858882,1210.3995567001402,None,0.7743266997858882,,,70 Silent,001,2022_Nov_03_1342,ProdSingRedoBetween,2021.2.3,59.848308478840615,
,,,,12,0,12,0,,,,,,,,,,,,,,,,,,,,,,1216.7055406002328,None,,,,,,,,,,,,,,,,,treatment,151,13,silent,new,null,1211.7165351002477,None,1211.7165351002477,None,4,3.5133001999929547,1211.7165351002477,None,3.5133001999929547,1215.255023600068,None,1215.770580000244,None,1215.770580000244,None,f,0.9075194001197815,1215.770580000244,None,0.9075194001197815,,,70 Silent,001,2022_Nov_03_1342,ProdSingRedoBetween,2021.2.3,59.848308478840615,
,,,,13,0,13,0,,,,,,,,,,,,,,,,,,,,,,1220.6242309999652,None,,,,,,,,,,,,,,,,,material,24,14,silent,old,yellow,1217.2283069998957,None,1217.2283069998957,None,6,2.057809100020677,1217.2283069998957,None,2.057809100020677,1219.3070832001977,None,1219.8224428999238,None,1219.8224428999238,None,r,0.7836409998126328,1219.8224428999238,None,0.7836409998126328,,,70 Silent,001,2022_Nov_03_1342,ProdSingRedoBetween,2021.2.3,59.848308478840615,
,,,,14,0,14,0,,,,,,,,,,,,,,,,,,,,,,1224.1953549999744,None,,,,,,,,,,,,,,,,,notice,97,15,silent,new,null,1221.134533900302,None,1221.134533900302,None,1,1.36729669990018,1221.134533900302,None,1.36729669990018,1222.5269877002575,None,1223.0420472002588,None,1223.0420472002588,None,n,1.131998599972576,1223.0420472002588,None,1.131998599972576,,,70 Silent,001,2022_Nov_03_1342,ProdSingRedoBetween,2021.2.3,59.848308478840615,
,,,,15,0,15,0,,,,,,,,,,,,,,,,,,,,,,1229.5834210002795,None,,,,,,,,,,,,,,,,,judge,172,16,silent,new,null,1224.7174149001949,None,1224.7174149001949,None,4,3.000468600075692,1224.7174149001949,None,3.000468600075692,1227.7491621002555,None,1228.2648836001754,None,1228.2648836001754,None,f,1.3008857001550496,1228.2648836001754,None,1.3008857001550496,,,70 Silent,001,2022_Nov_03_1342,ProdSingRedoBetween,2021.2.3,59.848308478840615,
,,,,16,0,16,0,,,,,,,,,,,,,,,,,,,,,,1234.0974476002157,None,,,,,,,,,,,,,,,,,clean,53,17,silent,old,blue,1230.0849629999138,None,1230.0849629999138,None,2,2.136926299892366,1230.0849629999138,None,2.136926299892366,1232.2657332001254,None,1232.7684005000629,None,1232.7684005000629,None,n,1.285815500188619,1232.7684005000629,None,1.285815500188619,,,70 Silent,001,2022_Nov_03_1342,ProdSingRedoBetween,2021.2.3,59.848308478840615,
,,,,17,0,17,0,,,,,,,,,,,,,,,,,,,,,,1241.22879069997,None,,,,,,,,,,,,,,,,,music,100,18,silent,new,null,1234.614697800018,None,1234.614697800018,None,3,4.7592265997081995,1234.614697800018,None,4.7592265997081995,1239.405372099951,None,1239.9086164999753,None,1239.9086164999753,None,f,1.2892126999795437,1239.9086164999753,None,1.2892126999795437,,,70 Silent,001,2022_Nov_03_1342,ProdSingRedoBetween,2021.2.3,59.848308478840615,
,,,,18,0,18,0,,,,,,,,,,,,,,,,,,,,,,1244.7640130002983,None,,,,,,,,,,,,,,,,,general,38,19,silent,old,blue,1241.7460901001468,None,1241.7460901001468,None,6,1.5317915002815425,1241.7460901001468,None,1.5317915002815425,1243.2979831001721,None,1243.8135159001686,None,1243.8135159001686,None,r,0.9202779000625014,1243.8135159001686,None,0.9202779000625014,,,70 Silent,001,2022_Nov_03_1342,ProdSingRedoBetween,2021.2.3,59.848308478840615,
,,,,19,0,19,0,,,,,,,,,,,,,,,,,,,,,,1249.1868711998686,None,,,,,,,,,,,,,,,,,revolution,137,20,silent,new,null,1245.268816899974,None,1245.268816899974,None,1,2.041040599811822,1245.268816899974,None,2.041040599811822,1247.3388700000942,None,1247.8616514001042,None,1247.8616514001042,None,n,1.2960713999345899,1247.8616514001042,None,1.2960713999345899,,,70 Silent,001,2022_Nov_03_1342,ProdSingRedoBetween,2021.2.3,59.848308478840615,
,,,,20,0,20,0,,,,,,,,,,,,,,,,,,,,,,1255.3459892002866,None,,,,,,,,,,,,,,,,,short,130,21,silent,new,null,1249.7043969999067,None,1249.7043969999067,None,6,3.453371400013566,1249.7043969999067,None,3.453371400013566,1253.1906242002733,None,1253.693914399948,None,1253.693914399948,None,r,1.631781100295484,1253.693914399948,None,1.631781100295484,,,70 Silent,001,2022_Nov_03_1342,ProdSingRedoBetween,2021.2.3,59.848308478840615,
,,,,21,0,21,0,,,,,,,,,,,,,,,,,,,,,,1260.3797667999752,None,,,,,,,,,,,,,,,,,detective,47,22,silent,old,blue,1255.862612800207,None,1255.862612800207,None,4,2.863438999745995,1255.862612800207,None,2.863438999745995,1258.7469286001287,None,1259.2622211002745,None,1259.2622211002745,None,f,1.0955520998686552,1259.2622211002745,None,1.0955520998686552,,,70 Silent,001,2022_Nov_03_1342,ProdSingRedoBetween,2021.2.3,59.848308478840615,
,,,,22,0,22,0,,,,,,,,,,,,,,,,,,,,,,1264.1020201002248,None,,,,,,,,,,,,,,,,,threat,67,23,silent,old,red,1260.885194099974,None,1260.885194099974,None,2,1.5607833000831306,1260.885194099974,None,1.5607833000831306,1262.466994700022,None,1262.9822936002165,None,1262.9822936002165,None,n,1.087565700057894,1262.9822936002165,None,1.087565700057894,,,70 Silent,001,2022_Nov_03_1342,ProdSingRedoBetween,2021.2.3,59.848308478840615,
,,,,23,0,23,0,,,,,,,,,,,,,,,,,,,,,,1274.278618299868,None,,,,,,,,,,,,,,,,,guide,13,24,silent,old,yellow,1264.6192908002995,None,1264.6192908002995,None,3,7.978379899635911,1264.6192908002995,None,7.978379899635911,1272.6269089002162,None,1273.141926500015,None,1273.141926500015,None,f,1.103822700213641,1273.141926500015,None,1.103822700213641,,,70 Silent,001,2022_Nov_03_1342,ProdSingRedoBetween,2021.2.3,59.848308478840615,
,,,,24,0,24,0,,,,,,,,,,,,,,,,,,,,,,1277.7987033999525,None,,,,,,,,,,,,,,,,,scene,165,25,silent,new,null,1274.7956854999065,None,1274.7956854999065,None,6,1.6501335999928415,1274.7956854999065,None,1.6501335999928415,1276.465823800303,None,1276.994011899922,None,1276.994011899922,None,r,0.787755100056529,1276.994011899922,None,0.787755100056529,,,70 Silent,001,2022_Nov_03_1342,ProdSingRedoBetween,2021.2.3,59.848308478840615,
,,,,25,0,25,0,,,,,,,,,,,,,,,,,,,,,,1282.184550799895,None,,,,,,,,,,,,,,,,,throw,18,26,silent,old,yellow,1278.3177527999505,None,1278.3177527999505,None,3,2.1439227000810206,1278.3177527999505,None,2.1439227000810206,1280.4853817000985,None,1280.9990742001683,None,1280.9990742001683,None,f,1.1587578998878598,1280.9990742001683,None,1.1587578998878598,,,70 Silent,001,2022_Nov_03_1342,ProdSingRedoBetween,2021.2.3,59.848308478840615,
,,,,26,0,26,0,,,,,,,,,,,,,,,,,,,,,,1285.7896743998863,None,,,,,,,,,,,,,,,,,captain,157,27,silent,new,null,1282.6943161999807,None,1282.6943161999807,None,6,1.4395662997849286,1282.6943161999807,None,1.4395662997849286,1284.1567990002222,None,1284.6743200002238,None,1284.6743200002238,None,r,1.0832936000078917,1284.6743200002238,None,1.0832936000078917,,,70 Silent,001,2022_Nov_03_1342,ProdSingRedoBetween,2021.2.3,59.848308478840615,
,,,,27,0,27,0,,,,,,,,,,,,,,,,,,,,,,1291.176813900005,None,,,,,,,,,,,,,,,,,surface,27,28,silent,old,yellow,1286.292977300007,None,1286.292977300007,None,6,3.352909800130874,1286.292977300007,None,3.352909800130874,1289.6825987002812,None,1290.1965729999356,None,1290.1965729999356,None,r,0.9530953001230955,1290.1965729999356,None,0.9530953001230955,,,70 Silent,001,2022_Nov_03_1342,ProdSingRedoBetween,2021.2.3,59.848308478840615,
,,,,28,0,28,0,,,,,,,,,,,,,,,,,,,,,,1296.533532100264,None,,,,,,,,,,,,,,,,,institute,25,29,silent,old,yellow,1291.6949356999248,None,1291.6949356999248,None,2,2.5348251000978053,1291.6949356999248,None,2.5348251000978053,1294.2489439002238,None,1294.7644686000422,None,1294.7644686000422,None,n,1.7372399000450969,1294.7644686000422,None,1.7372399000450969,,,70 Silent,001,2022_Nov_03_1342,ProdSingRedoBetween,2021.2.3,59.848308478840615,
,,,,29,0,29,0,,,,,,,,,,,,,,,,,,,,,,1300.2716319998726,None,,,,,,,,,,,,,,,,,rapid,159,30,silent,new,null,1297.0422256002203,None,1297.0422256002203,None,2,1.7715046000666916,1297.0422256002203,None,1.7715046000666916,1298.8399340999313,None,1299.353643400129,None,1299.353643400129,None,n,0.892166499979794,1299.353643400129,None,0.892166499979794,,,70 Silent,001,2022_Nov_03_1342,ProdSingRedoBetween,2021.2.3,59.848308478840615,
,,,,30,0,30,0,,,,,,,,,,,,,,,,,,,,,,1304.341562199872,None,,,,,,,,,,,,,,,,,hearing,82,31,silent,old,red,1300.7899982002564,None,1300.7899982002564,None,1,2.063717700075358,1300.7899982002564,None,2.063717700075358,1302.873966400046,None,1303.3889851998538,None,1303.3889851998538,None,n,0.9287224002182484,1303.3889851998538,None,0.9287224002182484,,,70 Silent,001,2022_Nov_03_1342,ProdSingRedoBetween,2021.2.3,59.848308478840615,
,,,,31,0,31,0,,,,,,,,,,,,,,,,,,,,,,1309.3801596001722,None,,,,,,,,,,,,,,,,,poetry,62,32,silent,old,red,1304.8441420998424,None,1304.8441420998424,None,3,2.3935719998553395,1304.8441420998424,None,2.3935719998553395,1307.2622723001987,None,1307.7786233001389,None,1307.7786233001389,None,f,1.5791377001442015,1307.7786233001389,None,1.5791377001442015,,,70 Silent,001,2022_Nov_03_1342,ProdSingRedoBetween,2021.2.3,59.848308478840615,
,,,,32,0,32,0,,,,,,,,,,,,,,,,,,,,,,1314.234943700023,None,,,,,,,,,,,,,,,,,dream,115,33,silent,new,null,1309.9059537001885,None,1309.9059537001885,None,4,2.9956527003087103,1309.9059537001885,None,2.9956527003087103,1312.9340754998848,None,1313.4487057998776,None,1313.4487057998776,None,f,0.765346699859947,1313.4487057998776,None,0.765346699859947,,,70 Silent,001,2022_Nov_03_1342,ProdSingRedoBetween,2021.2.3,59.848308478840615,
,,,,33,0,33,0,,,,,,,,,,,,,,,,,,,,,,1318.4385644001886,None,,,,,,,,,,,,,,,,,emergency,30,34,silent,old,blue,1314.7599587999284,None,1314.7599587999284,None,6,2.0217540999874473,1314.7599587999284,None,2.0217540999874473,1316.804528000299,None,1317.3240956002846,None,1317.3240956002846,None,r,1.0975263002328575,1317.3240956002846,None,1.0975263002328575,,,70 Silent,001,2022_Nov_03_1342,ProdSingRedoBetween,2021.2.3,59.848308478840615,
,,,,34,0,34,0,,,,,,,,,,,,,,,,,,,,,,1323.0104872002266,None,,,,,,,,,,,,,,,,,distance,169,35,silent,new,null,1318.9407406998798,None,1318.9407406998798,None,4,2.6089804000221193,1318.9407406998798,None,2.6089804000221193,1321.5771427000873,None,1322.090877099894,None,1322.090877099894,None,f,0.8990981997922063,1322.090877099894,None,0.8990981997922063,,,70 Silent,001,2022_Nov_03_1342,ProdSingRedoBetween,2021.2.3,59.848308478840615,
,,,,35,0,35,0,,,,,,,,,,,,,,,,,,,,,,1328.832609300036,None,,,,,,,,,,,,,,,,,cross,10,36,silent,old,yellow,1323.5278369002044,None,1323.5278369002044,None,5,3.7660899003967643,1323.5278369002044,None,3.7660899003967643,1327.3147589000873,None,1327.8308081002906,None,1327.8308081002906,None,f,0.983132999856025,1327.8308081002906,None,0.983132999856025,,,70 Silent,001,2022_Nov_03_1342,ProdSingRedoBetween,2021.2.3,59.848308478840615,
,,,,36,0,36,0,,,,,,,,,,,,,,,,,,,,,,1332.452094799839,None,,,,,,,,,,,,,,,,,length,132,37,silent,new,null,1329.3338136002421,None,1329.3338136002421,None,3,1.848254700191319,1329.3338136002421,None,1.848254700191319,1331.2021790998988,None,1331.7174857002683,None,1331.7174857002683,None,n,0.7122614998370409,1331.7174857002683,None,0.7122614998370409,,,70 Silent,001,2022_Nov_03_1342,ProdSingRedoBetween,2021.2.3,59.848308478840615,
,,,,37,0,37,0,,,,,,,,,,,,,,,,,,,,,,1336.072346900124,None,,,,,,,,,,,,,,,,,accident,17,38,silent,old,yellow,1332.9546823999844,None,1332.9546823999844,None,5,1.4989114999771118,1332.9546823999844,None,1.4989114999771118,1334.4734598998912,None,1334.9877176000737,None,1334.9877176000737,None,f,1.057937600184232,1334.9877176000737,None,1.057937600184232,,,70 Silent,001,2022_Nov_03_1342,ProdSingRedoBetween,2021.2.3,59.848308478840615,
,,,,38,0,38,0,,,,,,,,,,,,,,,,,,,,,,1339.8065241998993,None,,,,,,,,,,,,,,,,,second,117,39,silent,new,null,1336.5766545999795,None,1336.5766545999795,None,6,1.9569876999594271,1336.5766545999795,None,1.9569876999594271,1338.561023700051,None,1339.0754197998904,None,1339.0754197998904,None,r,0.6902573001571,1339.0754197998904,None,0.6902573001571,,,70 Silent,001,2022_Nov_03_1342,ProdSingRedoBetween,2021.2.3,59.848308478840615,
,,,,39,0,39,0,,,,,,,,,,,,,,,,,,,,,,1343.7141527999192,None,,,,,,,,,,,,,,,,,still,77,40,silent,old,red,1340.3116927999072,None,1340.3116927999072,None,2,1.5019463002681732,1340.3116927999072,None,1.5019463002681732,1341.8471687999554,None,1342.3613086999394,None,1342.3613086999394,None,n,1.3243121998384595,1342.3613086999394,None,1.3243121998384595,,,70 Silent,001,2022_Nov_03_1342,ProdSingRedoBetween,2021.2.3,59.848308478840615,
,,,,40,0,40,0,,,,,,,,,,,,,,,,,,,,,,1347.967630600091,None,,,,,,,,,,,,,,,,,bicycle,166,41,silent,new,null,1344.2243528999388,None,1344.2243528999388,None,6,2.3896388998255134,1344.2243528999388,None,2.3896388998255134,1346.6363805001602,None,1347.1494223000482,None,1347.1494223000482,None,r,0.8003815999254584,1347.1494223000482,None,0.8003815999254584,,,70 Silent,001,2022_Nov_03_1342,ProdSingRedoBetween,2021.2.3,59.848308478840615,
,,,,41,0,41,0,,,,,,,,,,,,,,,,,,,,,,1352.0391915002838,None,,,,,,,,,,,,,,,,,republic,129,42,silent,new,null,1348.470288200304,None,1348.470288200304,None,4,2.1913896002806723,1348.470288200304,None,2.1913896002806723,1350.688608400058,None,1351.2096589999273,None,1351.2096589999273,None,f,0.8121142000891268,1351.2096589999273,None,0.8121142000891268,,,70 Silent,001,2022_Nov_03_1342,ProdSingRedoBetween,2021.2.3,59.848308478840615,
,,,,42,0,42,0,,,,,,,,,,,,,,,,,,,,,,1356.4594566999003,None,,,,,,,,,,,,,,,,,sunset,68,43,silent,old,red,1352.5432529998943,None,1352.5432529998943,None,1,2.2863901001401246,1352.5432529998943,None,2.2863901001401246,1354.8612391999923,None,1355.3744530002587,None,1355.3744530002587,None,n,1.0631198999471962,1355.3744530002587,None,1.0631198999471962,,,70 Silent,001,2022_Nov_03_1342,ProdSingRedoBetween,2021.2.3,59.848308478840615,
,,,,43,0,43,0,,,,,,,,,,,,,,,,,,,,,,1361.449815200176,None,,,,,,,,,,,,,,,,,bitter,81,44,silent,old,red,1356.961580700241,None,1356.961580700241,None,5,2.971959000453353,1356.961580700241,None,2.971959000453353,1359.965101600159,None,1360.479805199895,None,1360.479805199895,None,f,0.9499463001266122,1360.479805199895,None,0.9499463001266122,,,70 Silent,001,2022_Nov_03_1342,ProdSingRedoBetween,2021.2.3,59.848308478840615,
,,,,44,0,44,0,,,,,,,,,,,,,,,,,,,,,,1366.553676099982,None,,,,,,,,,,,,,,,,,light,21,45,silent,old,yellow,1361.9650028999895,None,1361.9650028999895,None,6,2.072498000226915,1361.9650028999895,None,2.072498000226915,1364.0684342002496,None,1364.5848344000988,None,1364.5848344000988,None,r,1.9490650999359787,1364.5848344000988,None,1.9490650999359787,,,70 Silent,001,2022_Nov_03_1342,ProdSingRedoBetween,2021.2.3,59.848308478840615,
,,,,45,0,45,0,,,,,,,,,,,,,,,,,,,,,,1369.5741722001694,None,,,,,,,,,,,,,,,,,center,125,46,silent,new,null,1367.0835994998924,None,1367.0835994998924,None,6,1.2980557000264525,1367.0835994998924,None,1.2980557000264525,1368.4086825000122,None,1368.921942200046,None,1368.921942200046,None,r,0.6277330000884831,1368.921942200046,None,0.6277330000884831,,,70 Silent,001,2022_Nov_03_1342,ProdSingRedoBetween,2021.2.3,59.848308478840615,
,,,,46,0,46,0,,,,,,,,,,,,,,,,,,,,,,1373.1437206999399,None,,,,,,,,,,,,,,,,,damage,15,47,silent,old,yellow,1370.0903948000632,None,1370.0903948000632,None,6,1.8032094999216497,1370.0903948000632,None,1.8032094999216497,1371.9263855000027,None,1372.4416887001134,None,1372.4416887001134,None,r,0.6839912999421358,1372.4416887001134,None,0.6839912999421358,,,70 Silent,001,2022_Nov_03_1342,ProdSingRedoBetween,2021.2.3,59.848308478840615,
,,,,47,0,47,0,,,,,,,,,,,,,,,,,,,,,,1376.6471895999275,None,,,,,,,,,,,,,,,,,broad,85,48,silent,old,red,1373.6686972999014,None,1373.6686972999014,None,3,1.2647846001200378,1373.6686972999014,None,1.2647846001200378,1374.9694408001378,None,1375.4773674001917,None,1375.4773674001917,None,f,1.1442891000770032,1375.4773674001917,None,1.1442891000770032,,,70 Silent,001,2022_Nov_03_1342,ProdSingRedoBetween,2021.2.3,59.848308478840615,
,,,,48,0,48,0,,,,,,,,,,,,,,,,,,,,,,1380.8002729001455,None,,,,,,,,,,,,,,,,,running,141,49,silent,new,null,1377.1482485998422,None,1377.1482485998422,None,2,2.3373325001448393,1377.1482485998422,None,2.3373325001448393,1379.5163643001579,None,1380.0167201999575,None,1380.0167201999575,None,n,0.7568116998299956,1380.0167201999575,None,0.7568116998299956,,,70 Silent,001,2022_Nov_03_1342,ProdSingRedoBetween,2021.2.3,59.848308478840615,
,,,,49,0,49,0,,,,,,,,,,,,,,,,,,,,,,1384.3868489000015,None,,,,,,,,,,,,,,,,,religion,162,50,silent,new,null,1381.3019456998445,None,1381.3019456998445,None,1,1.4395755999721587,1381.3019456998445,None,1.4395755999721587,1382.7697331001982,None,1383.2829680000432,None,1383.2829680000432,None,n,1.0746618998236954,1383.2829680000432,None,1.0746618998236954,,,70 Silent,001,2022_Nov_03_1342,ProdSingRedoBetween,2021.2.3,59.848308478840615,
,,,,50,0,50,0,,,,,,,,,,,,,,,,,,,,,,1387.8916458999738,None,,,,,,,,,,,,,,,,,message,92,51,silent,new,null,1384.899667700287,None,1384.899667700287,None,6,1.529966200236231,1384.899667700287,None,1.529966200236231,1386.4625067999586,None,1386.981421700213,None,1386.981421700213,None,r,0.888162000104785,1386.981421700213,None,0.888162000104785,,,70 Silent,001,2022_Nov_03_1342,ProdSingRedoBetween,2021.2.3,59.848308478840615,
,,,,51,0,51,0,,,,,,,,,,,,,,,,,,,,,,1393.6370151001029,None,,,,,,,,,,,,,,,,,dozen,1,52,silent,old,yellow,1388.4109904002398,None,1388.4109904002398,None,4,3.522499700076878,1388.4109904002398,None,3.522499700076878,1391.9631938999519,None,1392.4785791002214,None,1392.4785791002214,None,f,1.13513209996745,1392.4785791002214,None,1.13513209996745,,,70 Silent,001,2022_Nov_03_1342,ProdSingRedoBetween,2021.2.3,59.848308478840615,
,,,,52,0,52,0,,,,,,,,,,,,,,,,,,,,,,1399.6851308001205,None,,,,,,,,,,,,,,,,,contract,0,53,silent,old,yellow,1394.1516339001246,None,1394.1516339001246,None,6,4.453857199754566,1394.1516339001246,None,4.453857199754566,1398.6364593002945,None,1399.1517086001113,None,1399.1517086001113,None,r,0.501883199904114,1399.1517086001113,None,0.501883199904114,,,70 Silent,001,2022_Nov_03_1342,ProdSingRedoBetween,2021.2.3,59.848308478840615,
,,,,53,0,53,0,,,,,,,,,,,,,,,,,,,,,,1405.9762991000898,None,,,,,,,,,,,,,,,,,title,46,54,silent,old,blue,1400.1911980998702,None,1400.1911980998702,None,4,4.246767200063914,1400.1911980998702,None,4.246767200063914,1404.46029060008,None,1404.9769633999094,None,1404.9769633999094,None,f,0.9726134003140032,1404.9769633999094,None,0.9726134003140032,,,70 Silent,001,2022_Nov_03_1342,ProdSingRedoBetween,2021.2.3,59.848308478840615,
,,,,54,0,54,0,,,,,,,,,,,,,,,,,,,,,,1411.6484910999425,None,,,,,,,,,,,,,,,,,testimony,138,55,silent,new,null,1406.4931842000224,None,1406.4931842000224,None,1,3.4884544000960886,1406.4931842000224,None,3.4884544000960886,1410.022357699927,None,1410.5295307002962,None,1410.5295307002962,None,n,1.0920286998152733,1410.5295307002962,None,1.0920286998152733,,,70 Silent,001,2022_Nov_03_1342,ProdSingRedoBetween,2021.2.3,59.848308478840615,
,,,,55,0,55,0,,,,,,,,,,,,,,,,,,,,,,1417.1194616998546,None,,,,,,,,,,,,,,,,,master,148,56,silent,new,null,1412.152750399895,None,1412.152750399895,None,5,1.9247995000332594,1412.152750399895,None,1.9247995000332594,1414.1028181002475,None,1414.6182702002116,None,1414.6182702002116,None,r,2.475343099795282,1414.6182702002116,None,2.475343099795282,,,70 Silent,001,2022_Nov_03_1342,ProdSingRedoBetween,2021.2.3,59.848308478840615,
,,,,56,0,56,0,,,,,,,,,,,,,,,,,,,,,,1420.3802546998486,None,,,,,,,,,,,,,,,,,danger,79,57,silent,old,red,1417.6217980002984,None,1417.6217980002984,None,6,1.3917359998449683,1417.6217980002984,None,1.3917359998449683,1419.0407515000552,None,1419.561897000298,None,1419.561897000298,None,r,0.7875372003763914,1419.561897000298,None,0.7875372003763914,,,70 Silent,001,2022_Nov_03_1342,ProdSingRedoBetween,2021.2.3,59.848308478840615,
,,,,57,0,57,0,,,,,,,,,,,,,,,,,,,,,,1424.9453457002528,None,,,,,,,,,,,,,,,,,travel,57,58,silent,old,blue,1420.9028727998957,None,1420.9028727998957,None,4,2.2868340997956693,1420.9028727998957,None,2.2868340997956693,1423.2168689998798,None,1423.727301100269,None,1423.727301100269,None,f,1.1901471000164747,1423.727301100269,None,1.1901471000164747,,,70 Silent,001,2022_Nov_03_1342,ProdSingRedoBetween,2021.2.3,59.848308478840615,
,,,,58,0,58,0,,,,,,,,,,,,,,,,,,,,,,1430.1203968999907,None,,,,,,,,,,,,,,,,,passage,176,59,silent,new,null,1425.470843799878,None,1425.470843799878,None,3,3.2306703003123403,1425.470843799878,None,3.2306703003123403,1428.7337957001291,None,1429.250037800055,None,1429.250037800055,None,n,0.8355040000751615,1429.250037800055,None,0.8355040000751615,,,70 Silent,001,2022_Nov_03_1342,ProdSingRedoBetween,2021.2.3,59.848308478840615,
,,,,59,0,59,0,,,,,,,,,,,,,,,,,,,,,,1434.1201985999942,None,,,,,,,,,,,,,,,,,command,174,60,silent,new,null,1430.6364842001349,None,1430.6364842001349,None,6,2.5049678003415465,1430.6364842001349,None,2.5049678003415465,1433.1702956999652,None,1433.6854174998589,None,1433.6854174998589,None,r,0.40807879995554686,1433.6854174998589,None,0.40807879995554686,,,70 Silent,001,2022_Nov_03_1342,ProdSingRedoBetween,2021.2.3,59.848308478840615,
,,,,60,0,60,0,,,,,,,,,,,,,,,,,,,,,,1439.6428045001812,None,,,,,,,,,,,,,,,,,citizen,140,61,silent,new,null,1434.6227385001257,None,1434.6227385001257,None,5,3.390699500218034,1434.6227385001257,None,3.390699500218034,1438.0425575003028,None,1438.5578576000407,None,1438.5578576000407,None,r,1.0638422002084553,1438.5578576000407,None,1.0638422002084553,,,70 Silent,001,2022_Nov_03_1342,ProdSingRedoBetween,2021.2.3,59.848308478840615,
,,,,61,0,61,0,,,,,,,,,,,,,,,,,,,,,,1444.0322871999815,None,,,,,,,,,,,,,,,,,staff,8,62,silent,old,yellow,1440.147406199947,None,1440.147406199947,None,2,2.2821280998177826,1440.147406199947,None,2.2821280998177826,1442.462924899999,None,1442.9825569000095,None,1442.9825569000095,None,n,1.022914499975741,1442.9825569000095,None,1.022914499975741,,,70 Silent,001,2022_Nov_03_1342,ProdSingRedoBetween,2021.2.3,59.848308478840615,
,,,,62,0,62,0,,,,,,,,,,,,,,,,,,,,,,1448.736517299898,None,,,,,,,,,,,,,,,,,background,48,63,silent,old,blue,1444.5460609998554,None,1444.5460609998554,None,6,2.979561499785632,1444.5460609998554,None,2.979561499785632,1447.5532686002553,None,1448.0686462000012,None,1448.0686462000012,None,r,0.6489646998234093,1448.0686462000012,None,0.6489646998234093,,,70 Silent,001,2022_Nov_03_1342,ProdSingRedoBetween,2021.2.3,59.848308478840615,
,,,,63,0,63,0,,,,,,,,,,,,,,,,,,,,,,1452.0221695001237,None,,,,,,,,,,,,,,,,,edition,171,64,silent,new,null,1449.2525901999325,None,1449.2525901999325,None,6,1.6568470997735858,1449.2525901999325,None,1.6568470997735858,1450.9377938001417,None,1451.4421041002497,None,1451.4421041002497,None,r,0.5553878997452557,1451.4421041002497,None,0.5553878997452557,,,70 Silent,001,2022_Nov_03_1342,ProdSingRedoBetween,2021.2.3,59.848308478840615,
,,,,64,0,64,0,,,,,,,,,,,,,,,,,,,,,,1456.2916414998472,None,,,,,,,,,,,,,,,,,capital,101,65,silent,new,null,1452.539738399908,None,1452.539738399908,None,4,2.6577035998925567,1452.539738399908,None,2.6577035998925567,1455.2263491000049,None,1455.7408406999893,None,1455.7408406999893,None,f,0.5286004999652505,1455.7408406999893,None,0.5286004999652505,,,70 Silent,001,2022_Nov_03_1342,ProdSingRedoBetween,2021.2.3,59.848308478840615,
,,,,65,0,65,0,,,,,,,,,,,,,,,,,,,,,,1462.4661616999656,None,,,,,,,,,,,,,,,,,primary,158,66,silent,new,null,1456.794808600098,None,1456.794808600098,None,6,4.578642500098795,1456.794808600098,None,4.578642500098795,1461.3987739002332,None,1461.9144986001775,None,1461.9144986001775,None,r,0.5311441998928785,1461.9144986001775,None,0.5311441998928785,,,70 Silent,001,2022_Nov_03_1342,ProdSingRedoBetween,2021.2.3,59.848308478840615,
,,,,66,0,66,0,,,,,,,,,,,,,,,,,,,,,,1465.8692151000723,None,,,,,,,,,,,,,,,,,community,4,67,silent,old,yellow,1462.983390700072,None,1462.983390700072,None,3,1.4059713003225625,1462.983390700072,None,1.4059713003225625,1464.4185720002279,None,1464.9354507001117,None,1464.9354507001117,None,f,0.9098789002746344,1464.9354507001117,None,0.9098789002746344,,,70 Silent,001,2022_Nov_03_1342,ProdSingRedoBetween,2021.2.3,59.848308478840615,
,,,,67,0,67,0,,,,,,,,,,,,,,,,,,,,,,1470.1027092002332,None,,,,,,,,,,,,,,,,,suspect,120,68,silent,new,null,1466.3703057998791,None,1466.3703057998791,None,6,1.7472664997912943,1466.3703057998791,None,1.7472664997912943,1468.140394499991,None,1468.6545472000726,None,1468.6545472000726,None,r,1.4068259997293353,1468.6545472000726,None,1.4068259997293353,,,70 Silent,001,2022_Nov_03_1342,ProdSingRedoBetween,2021.2.3,59.848308478840615,
,,,,68,0,68,0,,,,,,,,,,,,,,,,,,,,,,1473.8733930001035,None,,,,,,,,,,,,,,,,,industry,51,69,silent,old,blue,1470.6105655999854,None,1470.6105655999854,None,2,1.4029044001363218,1470.6105655999854,None,1.4029044001363218,1472.0445848000236,None,1472.5580198001117,None,1472.5580198001117,None,n,1.2793827001005411,1472.5580198001117,None,1.2793827001005411,,,70 Silent,001,2022_Nov_03_1342,ProdSingRedoBetween,2021.2.3,59.848308478840615,
,,,,69,0,69,0,,,,,,,,,,,,,,,,,,,,,,1478.9822229002602,None,,,,,,,,,,,,,,,,,style,40,70,silent,old,blue,1474.3772716000676,None,1474.3772716000676,None,6,3.0201036003418267,1474.3772716000676,None,3.0201036003418267,1477.4153569000773,None,1477.9301543002948,None,1477.9301543002948,None,r,1.0352322002872825,1477.9301543002948,None,1.0352322002872825,,,70 Silent,001,2022_Nov_03_1342,ProdSingRedoBetween,2021.2.3,59.848308478840615,
,,,,70,0,70,0,,,,,,,,,,,,,,,,,,,,,,1483.7372198998928,None,,,,,,,,,,,,,,,,,subject,90,71,silent,new,null,1479.4871625001542,None,1479.4871625001542,None,5,2.8702372000552714,1479.4871625001542,None,2.8702372000552714,1482.3877217001282,None,1482.902158900164,None,1482.902158900164,None,f,0.815336000174284,1482.902158900164,None,0.815336000174284,,,70 Silent,001,2022_Nov_03_1342,ProdSingRedoBetween,2021.2.3,59.848308478840615,
,,,,71,0,71,0,,,,,,,,,,,,,,,,,,,,,,1488.5753072001971,None,,,,,,,,,,,,,,,,,degree,124,72,silent,new,null,1484.2545703998767,None,1484.2545703998767,None,1,2.054744599852711,1484.2545703998767,None,2.054744599852711,1486.3438940001652,None,1486.8574319002219,None,1486.8574319002219,None,n,1.6919580004177988,1486.8574319002219,None,1.6919580004177988,,,70 Silent,001,2022_Nov_03_1342,ProdSingRedoBetween,2021.2.3,59.848308478840615,
,,,,72,0,72,0,,,,,,,,,,,,,,,,,,,,,,1492.8787452001125,None,,,,,,,,,,,,,,,,,trash,55,73,silent,old,blue,1489.0932177002542,None,1489.0932177002542,None,2,2.2241604002192616,1489.0932177002542,None,2.2241604002192616,1491.3458762001246,None,1491.8613670999184,None,1491.8613670999184,None,f,0.9920383002609015,1491.8613670999184,None,0.9920383002609015,,,70 Silent,001,2022_Nov_03_1342,ProdSingRedoBetween,2021.2.3,59.848308478840615,
,,,,73,0,73,0,,,,,,,,,,,,,,,,,,,,,,1500.953346800059,None,,,,,,,,,,,,,,,,,salary,127,74,silent,new,null,1493.38052659994,None,1493.38052659994,None,1,6.601041799876839,1493.38052659994,None,6.601041799876839,1500.0047392998822,None,1500.5192268001847,None,1500.5192268001847,None,n,0.40609929990023375,1500.5192268001847,None,0.40609929990023375,,,70 Silent,001,2022_Nov_03_1342,ProdSingRedoBetween,2021.2.3,59.848308478840615,
,,,,74,0,74,0,,,,,,,,,,,,,,,,,,,,,,1503.6074971002527,None,,,,,,,,,,,,,,,,,oxygen,116,75,silent,new,null,1501.455823900178,None,1501.455823900178,None,1,1.357472900301218,1501.455823900178,None,1.357472900301218,1502.8405953999609,None,1503.3558264002204,None,1503.3558264002204,None,n,0.23357859998941422,1503.3558264002204,None,0.23357859998941422,,,70 Silent,001,2022_Nov_03_1342,ProdSingRedoBetween,2021.2.3,59.848308478840615,
,,,,75,0,75,0,,,,,,,,,,,,,,,,,,,,,,1506.7759206001647,None,,,,,,,,,,,,,,,,,estate,99,76,silent,new,null,1504.1242669001222,None,1504.1242669001222,None,3,1.5137593001127243,1504.1242669001222,None,1.5137593001127243,1505.666887300089,None,1506.1747305998579,None,1506.1747305998579,None,n,0.5747333001345396,1506.1747305998579,None,0.5747333001345396,,,70 Silent,001,2022_Nov_03_1342,ProdSingRedoBetween,2021.2.3,59.848308478840615,
,,,,76,0,76,0,,,,,,,,,,,,,,,,,,,,,,1509.9811570001766,None,,,,,,,,,,,,,,,,,graduate,26,77,silent,old,yellow,1507.2852906002663,None,1507.2852906002663,None,6,1.6800783998332918,1507.2852906002663,None,1.6800783998332918,1508.9955954002216,None,1509.5115868998691,None,1509.5115868998691,None,r,0.43771929992362857,1509.5115868998691,None,0.43771929992362857,,,70 Silent,001,2022_Nov_03_1342,ProdSingRedoBetween,2021.2.3,59.848308478840615,
,,,,77,0,77,0,,,,,,,,,,,,,,,,,,,,,,1514.0332192000933,None,,,,,,,,,,,,,,,,,drove,44,78,silent,old,blue,1510.5003725001588,None,1510.5003725001588,None,6,2.249004799872637,1510.5003725001588,None,2.249004799872637,1512.766663200222,None,1513.2845474001952,None,1513.2845474001952,None,r,0.7209211001172662,1513.2845474001952,None,0.7209211001172662,,,70 Silent,001,2022_Nov_03_1342,ProdSingRedoBetween,2021.2.3,59.848308478840615,
,,,,78,0,78,0,,,,,,,,,,,,,,,,,,,,,,1518.140605099965,None,,,,,,,,,,,,,,,,,rough,61,79,silent,old,red,1514.5356729999185,None,1514.5356729999185,None,3,2.517693500034511,1514.5356729999185,None,2.517693500034511,1517.071662100032,None,1517.5904163001105,None,1517.5904163001105,None,f,0.5189633001573384,1517.5904163001105,None,0.5189633001573384,,,70 Silent,001,2022_Nov_03_1342,ProdSingRedoBetween,2021.2.3,59.848308478840615,
,,,,79,0,79,0,,,,,,,,,,,,,,,,,,,,,,1524.1936253998429,None,,,,,,,,,,,,,,,,,error,134,80,silent,new,null,1518.6608262001537,None,1518.6608262001537,None,1,3.952429400291294,1518.6608262001537,None,3.952429400291294,1522.6429616999812,None,1523.158863299992,None,1523.158863299992,None,n,1.0065040001645684,1523.158863299992,None,1.0065040001645684,,,70 Silent,001,2022_Nov_03_1342,ProdSingRedoBetween,2021.2.3,59.848308478840615,
,,,,80,0,80,0,,,,,,,,,,,,,,,,,,,,,,1528.2492916001938,None,,,,,,,,,,,,,,,,,research,9,81,silent,old,yellow,1524.7026668000035,None,1524.7026668000035,None,3,2.4068550998345017,1524.7026668000035,None,2.4068550998345017,1527.1313219000585,None,1527.6602650000714,None,1527.6602650000714,None,f,0.561118499841541,1527.6602650000714,None,0.561118499841541,,,70 Silent,001,2022_Nov_03_1342,ProdSingRedoBetween,2021.2.3,59.848308478840615,
,,,,81,0,81,0,,,,,,,,,,,,,,,,,,,,,,1532.6858542002738,None,,,,,,,,,,,,,,,,,colonel,131,82,silent,new,null,1528.7650600001216,None,1528.7650600001216,None,6,2.744235200341791,1528.7650600001216,None,2.744235200341791,1531.5354943000712,None,1532.0501764998771,None,1532.0501764998771,None,r,0.6111393002793193,1532.0501764998771,None,0.6111393002793193,,,70 Silent,001,2022_Nov_03_1342,ProdSingRedoBetween,2021.2.3,59.848308478840615,
,,,,82,0,82,0,,,,,,,,,,,,,,,,,,,,,,1538.2577277999371,None,,,,,,,,,,,,,,,,,society,112,83,silent,new,null,1533.1953580998816,None,1533.1953580998816,None,4,3.953932899981737,1533.1953580998816,None,3.953932899981737,1537.174089900218,None,1537.6944047999568,None,1537.6944047999568,None,f,0.534865400288254,1537.6944047999568,None,0.534865400288254,,,70 Silent,001,2022_Nov_03_1342,ProdSingRedoBetween,2021.2.3,59.848308478840615,
,,,,83,0,83,0,,,,,,,,,,,,,,,,,,,,,,1542.2288970001973,None,,,,,,,,,,,,,,,,,character,20,84,silent,old,yellow,1538.7689363001846,None,1538.7689363001846,None,2,2.340500599704683,1538.7689363001846,None,2.340500599704683,1541.135273099877,None,1541.6438779002056,None,1541.6438779002056,None,n,0.5534111000597477,1541.6438779002056,None,0.5534111000597477,,,70 Silent,001,2022_Nov_03_1342,ProdSingRedoBetween,2021.2.3,59.848308478840615,
,,,,84,0,84,0,,,,,,,,,,,,,,,,,,,,,,1545.5342951999046,None,,,,,,,,,,,,,,,,,collection,102,85,silent,new,null,1542.7305128001608,None,1542.7305128001608,None,4,1.85076309973374,1542.7305128001608,None,1.85076309973374,1544.5984964002855,None,1545.1133818002418,None,1545.1133818002418,None,f,0.388071299996227,1545.1133818002418,None,0.388071299996227,,,70 Silent,001,2022_Nov_03_1342,ProdSingRedoBetween,2021.2.3,59.848308478840615,
,,,,85,0,85,0,,,,,,,,,,,,,,,,,,,,,,1550.352324000094,None,,,,,,,,,,,,,,,,,evidence,45,86,silent,old,blue,1546.0508594000712,None,1546.0508594000712,None,6,3.098449300043285,1546.0508594000712,None,3.098449300043285,1549.171423499938,None,1549.6851894999854,None,1549.6851894999854,None,r,0.6400764998979867,1549.6851894999854,None,0.6400764998979867,,,70 Silent,001,2022_Nov_03_1342,ProdSingRedoBetween,2021.2.3,59.848308478840615,
,,,,86,0,86,0,,,,,,,,,,,,,,,,,,,,,,1555.2917622001842,None,,,,,,,,,,,,,,,,,close,156,87,silent,new,null,1550.8554155998863,None,1550.8554155998863,None,1,3.3981393999420106,1550.8554155998863,None,3.3981393999420106,1554.2750464002602,None,1554.7922287001275,None,1554.7922287001275,None,n,0.46900130016729236,1554.7922287001275,None,0.46900130016729236,,,70 Silent,001,2022_Nov_03_1342,ProdSingRedoBetween,2021.2.3,59.848308478840615,
,,,,87,0,87,0,,,,,,,,,,,,,,,,,,,,,,1559.4790574000217,None,,,,,,,,,,,,,,,,,skill,58,88,silent,old,blue,1555.8092801002786,None,1555.8092801002786,None,2,1.6200780998915434,1555.8092801002786,None,1.6200780998915434,1557.4618493001908,None,1557.9771838001907,None,1557.9771838001907,None,n,1.4840412000194192,1557.9771838001907,None,1.4840412000194192,,,70 Silent,001,2022_Nov_03_1342,ProdSingRedoBetween,2021.2.3,59.848308478840615,
,,,,88,0,88,0,,,,,,,,,,,,,,,,,,,,,,1563.2321413001046,None,,,,,,,,,,,,,,,,,review,22,89,silent,old,yellow,1559.9896348998882,None,1559.9896348998882,None,4,1.7837177999317646,1559.9896348998882,None,1.7837177999317646,1561.8002980002202,None,1562.3145377999172,None,1562.3145377999172,None,f,0.8906870000064373,1562.3145377999172,None,0.8906870000064373,,,70 Silent,001,2022_Nov_03_1342,ProdSingRedoBetween,2021.2.3,59.848308478840615,
,,,,89,0,89,0,,,,,,,,,,,,,,,,,,,,,,1566.9854581998661,None,,,,,,,,,,,,,,,,,number,163,90,silent,new,null,1563.7341431998648,None,1563.7341431998648,None,3,1.9352775001898408,1563.7341431998648,None,1.9352775001898408,1565.7021022001281,None,1566.2175357001834,None,1566.2175357001834,None,n,0.7479504002258182,1566.2175357001834,None,0.7479504002258182,,,70 Silent,001,2022_Nov_03_1342,ProdSingRedoBetween,2021.2.3,59.848308478840615,
,,,,90,0,90,0,,,,,,,,,,,,,,,,,,,,,,1570.3747924999334,None,,,,,,,,,,,,,,,,,crime,63,91,silent,old,red,1567.4930028999224,None,1567.4930028999224,None,6,1.3925267001613975,1567.4930028999224,None,1.3925267001613975,1568.9109805999324,None,1569.4215778000653,None,1569.4215778000653,None,r,0.9278822997584939,1569.4215778000653,None,0.9278822997584939,,,70 Silent,001,2022_Nov_03_1342,ProdSingRedoBetween,2021.2.3,59.848308478840615,
,,,,91,0,91,0,,,,,,,,,,,,,,,,,,,,,,1573.6263482002541,None,,,,,,,,,,,,,,,,,entrance,161,92,silent,new,null,1570.8914505001158,None,1570.8914505001158,None,6,1.7858152999542654,1570.8914505001158,None,1.7858152999542654,1572.7159684998915,None,1573.2252704002894,None,1573.2252704002894,None,r,0.38020450016483665,1573.2252704002894,None,0.38020450016483665,,,70 Silent,001,2022_Nov_03_1342,ProdSingRedoBetween,2021.2.3,59.848308478840615,
,,,,92,0,92,0,,,,,,,,,,,,,,,,,,,,,,1580.9334825002588,None,,,,,,,,,,,,,,,,,election,119,93,silent,new,null,1574.1316017000936,None,1574.1316017000936,None,6,5.5856106001883745,1574.1316017000936,None,5.5856106001883745,1579.7510677999817,None,1580.265043000225,None,1580.265043000225,None,r,0.6444139000959694,1580.265043000225,None,0.6444139000959694,,,70 Silent,001,2022_Nov_03_1342,ProdSingRedoBetween,2021.2.3,59.848308478840615,
,,,,93,0,93,0,,,,,,,,,,,,,,,,,,,,,,1583.9197574001737,None,,,,,,,,,,,,,,,,,agreement,84,94,silent,old,red,1581.4352251002565,None,1581.4352251002565,None,4,1.5219255997799337,1581.4352251002565,None,1.5219255997799337,1582.9861661000177,None,1583.501495399978,None,1583.501495399978,None,f,0.3917184001766145,1583.501495399978,None,0.3917184001766145,,,70 Silent,001,2022_Nov_03_1342,ProdSingRedoBetween,2021.2.3,59.848308478840615,
,,,,94,0,94,0,,,,,,,,,,,,,,,,,,,,,,1587.8573565999977,None,,,,,,,,,,,,,,,,,solution,5,95,silent,old,yellow,1584.4249526001513,None,1584.4249526001513,None,2,2.0123637998476624,1584.4249526001513,None,2.0123637998476624,1586.457608200144,None,1586.9723338000476,None,1586.9723338000476,None,n,0.8568722000345588,1586.9723338000476,None,0.8568722000345588,,,70 Silent,001,2022_Nov_03_1342,ProdSingRedoBetween,2021.2.3,59.848308478840615,
,,,,95,0,95,0,,,,,,,,,,,,,,,,,,,,,,1590.2226325999945,None,,,,,,,,,,,,,,,,,smell,123,96,silent,new,null,1588.3647743002512,None,1588.3647743002512,None,1,1.1766371997073293,1588.3647743002512,None,1.1766371997073293,1589.5611987002194,None,1590.0755459000356,None,1590.0755459000356,None,n,0.10557959973812103,1590.0755459000356,None,0.10557959973812103,,,70 Silent,001,2022_Nov_03_1342,ProdSingRedoBetween,2021.2.3,59.848308478840615,
,,,,96,0,96,0,,,,,,,,,,,,,,,,,,,,,,1594.5631019002758,None,,,,,,,,,,,,,,,,,tough,80,97,silent,old,red,1590.7323737000115,None,1590.7323737000115,None,5,2.768756899982691,1590.7323737000115,None,2.768756899982691,1593.531063800212,None,1594.0457109999843,None,1594.0457109999843,None,f,0.49552279990166426,1594.0457109999843,None,0.49552279990166426,,,70 Silent,001,2022_Nov_03_1342,ProdSingRedoBetween,2021.2.3,59.848308478840615,
,,,,97,0,97,0,,,,,,,,,,,,,,,,,,,,,,1597.6842956002802,None,,,,,,,,,,,,,,,,,weather,177,98,silent,new,null,1595.0739577002823,None,1595.0739577002823,None,2,1.7471537999808788,1595.0739577002823,None,1.7471537999808788,1596.8526634001173,None,1597.366098199971,None,1597.366098199971,None,n,0.2871468998491764,1597.366098199971,None,0.2871468998491764,,,70 Silent,001,2022_Nov_03_1342,ProdSingRedoBetween,2021.2.3,59.848308478840615,
,,,,98,0,98,0,,,,,,,,,,,,,,,,,,,,,,1601.705169199966,None,,,,,,,,,,,,,,,,,fight,72,99,silent,old,red,1598.202385299839,None,1598.202385299839,None,4,1.7868249001912773,1598.202385299839,None,1.7868249001912773,1600.0205581998453,None,1600.5360460001975,None,1600.5360460001975,None,f,1.1411319999024272,1600.5360460001975,None,1.1411319999024272,,,70 Silent,001,2022_Nov_03_1342,ProdSingRedoBetween,2021.2.3,59.848308478840615,
,,,,99,0,99,0,,,,,,,,,,,,,,,,,,,,,,1604.624380900059,None,,,,,,,,,,,,,,,,,relation,175,100,silent,new,null,1602.2349891001359,None,1602.2349891001359,None,6,1.5704613998532295,1602.2349891001359,None,1.5704613998532295,1603.8293547001667,None,1604.3402343001217,None,1604.3402343001217,None,r,0.2570621999911964,1604.3402343001217,None,0.2570621999911964,,,70 Silent,001,2022_Nov_03_1342,ProdSingRedoBetween,2021.2.3,59.848308478840615,
,,,,100,0,100,0,,,,,,,,,,,,,,,,,,,,,,1610.1650825999677,None,,,,,,,,,,,,,,,,,dance,12,101,silent,old,yellow,1605.1405969001353,None,1605.1405969001353,None,4,4.024610500317067,1605.1405969001353,None,4.024610500317067,1609.1960212001577,None,1609.7123038000427,None,1609.7123038000427,None,f,0.428817399777472,1609.7123038000427,None,0.428817399777472,,,70 Silent,001,2022_Nov_03_1342,ProdSingRedoBetween,2021.2.3,59.848308478840615,
,,,,101,0,101,0,,,,,,,,,,,,,,,,,,,,,,1613.032736999914,None,,,,,,,,,,,,,,,,,scale,144,102,silent,new,null,1610.686860000249,None,1610.686860000249,None,1,1.5342975002713501,1610.686860000249,None,1.5342975002713501,1612.253825200256,None,1612.7640674998984,None,1612.7640674998984,None,n,0.2491003000177443,1612.7640674998984,None,0.2491003000177443,,,70 Silent,001,2022_Nov_03_1342,ProdSingRedoBetween,2021.2.3,59.848308478840615,
,,,,102,0,102,0,,,,,,,,,,,,,,,,,,,,,,1620.2061582002789,None,,,,,,,,,,,,,,,,,sound,128,103,silent,new,null,1613.5501581002027,None,1613.5501581002027,None,5,5.079200800042599,1613.5501581002027,None,5.079200800042599,1618.6573299998417,None,1619.170917400159,None,1619.170917400159,None,r,1.0182682001031935,1619.170917400159,None,1.0182682001031935,,,70 Silent,001,2022_Nov_03_1342,ProdSingRedoBetween,2021.2.3,59.848308478840615,
,,,,103,0,103,0,,,,,,,,,,,,,,,,,,,,,,1624.0269681001082,None,,,,,,,,,,,,,,,,,swift,167,104,silent,new,null,1620.7142292000353,None,1620.7142292000353,None,2,2.386993299704045,1620.7142292000353,None,2.386993299704045,1623.126591200009,None,1623.6422141999938,None,1623.6422141999938,None,n,0.363136800006032,1623.6422141999938,None,0.363136800006032,,,70 Silent,001,2022_Nov_03_1342,ProdSingRedoBetween,2021.2.3,59.848308478840615,
,,,,104,0,104,0,,,,,,,,,,,,,,,,,,,,,,1634.521450100001,None,,,,,,,,,,,,,,,,,place,150,105,silent,new,null,1624.5292000002228,None,1624.5292000002228,None,6,9.043957599904388,1624.5292000002228,None,9.043957599904388,1633.6041331002489,None,1634.1253137001768,None,1634.1253137001768,None,r,0.3758824998512864,1634.1253137001768,None,0.3758824998512864,,,70 Silent,001,2022_Nov_03_1342,ProdSingRedoBetween,2021.2.3,59.848308478840615,
,,,,105,0,105,0,,,,,,,,,,,,,,,,,,,,,,1638.891850600019,None,,,,,,,,,,,,,,,,,executive,71,106,silent,old,red,1635.042358000297,None,1635.042358000297,None,3,2.027003000024706,1635.042358000297,None,2.027003000024706,1637.0964420000091,None,1637.6076646000147,None,1637.6076646000147,None,f,1.2614513002336025,1637.6076646000147,None,1.2614513002336025,,,70 Silent,001,2022_Nov_03_1342,ProdSingRedoBetween,2021.2.3,59.848308478840615,
,,,,106,0,106,0,,,,,,,,,,,,,,,,,,,,,,1644.9331447998993,None,,,,,,,,,,,,,,,,,waste,106,107,silent,new,null,1639.4020177000202,None,1639.4020177000202,None,1,2.4192837001755834,1639.4020177000202,None,2.4192837001755834,1641.8556272001006,None,1642.3745071999729,None,1642.3745071999729,None,n,2.5345482998527586,1642.3745071999729,None,2.5345482998527586,,,70 Silent,001,2022_Nov_03_1342,ProdSingRedoBetween,2021.2.3,59.848308478840615,
,,,,107,0,107,0,,,,,,,,,,,,,,,,,,,,,,1648.8843374000862,None,,,,,,,,,,,,,,,,,childhood,96,108,silent,new,null,1645.4497138001025,None,1645.4497138001025,None,3,2.307455999776721,1645.4497138001025,None,2.307455999776721,1647.7869072998874,None,1648.2997739999555,None,1648.2997739999555,None,f,0.5533513003028929,1648.2997739999555,None,0.5533513003028929,,,70 Silent,001,2022_Nov_03_1342,ProdSingRedoBetween,2021.2.3,59.848308478840615,
,,,,108,0,108,0,,,,,,,,,,,,,,,,,,,,,,1651.5535825998522,None,,,,,,,,,,,,,,,,,engineer,50,109,silent,old,blue,1649.3950160001405,None,1649.3950160001405,None,3,1.2259790003299713,1649.3950160001405,None,1.2259790003299713,1650.6599055002443,None,1651.1688458998688,None,1651.1688458998688,None,f,0.3562211999669671,1651.1688458998688,None,0.3562211999669671,,,70 Silent,001,2022_Nov_03_1342,ProdSingRedoBetween,2021.2.3,59.848308478840615,
,,,,109,0,109,0,,,,,,,,,,,,,,,,,,,,,,1654.4397983001545,None,,,,,,,,,,,,,,,,,rural,23,110,silent,old,yellow,1652.0553641002625,None,1652.0553641002625,None,6,1.477794200181961,1652.0553641002625,None,1.477794200181961,1653.5609118002467,None,1654.0743964998983,None,1654.0743964998983,None,r,0.34693909995257854,1654.0743964998983,None,0.34693909995257854,,,70 Silent,001,2022_Nov_03_1342,ProdSingRedoBetween,2021.2.3,59.848308478840615,
,,,,110,0,110,0,,,,,,,,,,,,,,,,,,,,,,1660.9487264002673,None,,,,,,,,,,,,,,,,,little,78,111,silent,old,red,1654.944985399954,None,1654.944985399954,None,4,3.9241844001226127,1654.944985399954,None,3.9241844001226127,1658.8981857001781,None,1659.4108714000322,None,1659.4108714000322,None,f,1.506131200119853,1659.4108714000322,None,1.506131200119853,,,70 Silent,001,2022_Nov_03_1342,ProdSingRedoBetween,2021.2.3,59.848308478840615,
,,,,111,0,111,0,,,,,,,,,,,,,,,,,,,,,,1663.8160649999045,None,,,,,,,,,,,,,,,,,husband,143,112,silent,new,null,1661.470164200291,None,1661.470164200291,None,1,1.5429352996870875,1661.470164200291,None,1.5429352996870875,1663.0340444999747,None,1663.5480257999152,None,1663.5480257999152,None,n,0.2491299998946488,1663.5480257999152,None,0.2491299998946488,,,70 Silent,001,2022_Nov_03_1342,ProdSingRedoBetween,2021.2.3,59.848308478840615,
,,,,112,0,112,0,,,,,,,,,,,,,,,,,,,,,,1666.9699066001922,None,,,,,,,,,,,,,,,,,trial,32,113,silent,old,blue,1664.3232962000184,None,1664.3232962000184,None,6,1.785777899902314,1664.3232962000184,None,1.785777899902314,1666.142262800131,None,1666.6515267002396,None,1666.6515267002396,None,r,0.2895141998305917,1666.6515267002396,None,0.2895141998305917,,,70 Silent,001,2022_Nov_03_1342,ProdSingRedoBetween,2021.2.3,59.848308478840615,
,,,,113,0,113,0,,,,,,,,,,,,,,,,,,,,,,1673.0303281000815,None,,,,,,,,,,,,,,,,,sight,114,114,silent,new,null,1667.487914999947,None,1667.487914999947,None,3,2.213333200197667,1667.487914999947,None,2.213333200197667,1669.7235425999388,None,1670.2388041000813,None,1670.2388041000813,None,n,2.7664836002513766,1670.2388041000813,None,2.7664836002513766,,,70 Silent,001,2022_Nov_03_1342,ProdSingRedoBetween,2021.2.3,59.848308478840615,
,,,,114,0,114,0,,,,,,,,,,,,,,,,,,,,,,1676.7466313000768,None,,,,,,,,,,,,,,,,,grade,3,115,silent,old,yellow,1673.5468112002127,None,1673.5468112002127,None,2,2.466218799818307,1673.5468112002127,None,2.466218799818307,1676.0466908002272,None,1676.5613803998567,None,1676.5613803998567,None,n,0.15571389999240637,1676.5613803998567,None,0.15571389999240637,,,70 Silent,001,2022_Nov_03_1342,ProdSingRedoBetween,2021.2.3,59.848308478840615,
,,,,115,0,115,0,,,,,,,,,,,,,,,,,,,,,,1680.6652370998636,None,,,,,,,,,,,,,,,,,column,91,116,silent,new,null,1677.2665049000643,None,1677.2665049000643,None,2,1.9544974998570979,1677.2665049000643,None,1.9544974998570979,1679.2494486998767,None,1679.768816899974,None,1679.768816899974,None,n,0.8766820002347231,1679.768816899974,None,0.8766820002347231,,,70 Silent,001,2022_Nov_03_1342,ProdSingRedoBetween,2021.2.3,59.848308478840615,
,,,,116,0,116,0,,,,,,,,,,,,,,,,,,,,,,1684.9670796999708,None,,,,,,,,,,,,,,,,,alert,155,117,silent,new,null,1681.1674716998823,None,1681.1674716998823,None,5,2.629777599591762,1681.1674716998823,None,2.629777599591762,1683.8218852002174,None,1684.3357077999972,None,1684.3357077999972,None,f,0.5894892998039722,1684.3357077999972,None,0.5894892998039722,,,70 Silent,001,2022_Nov_03_1342,ProdSingRedoBetween,2021.2.3,59.848308478840615,
,,,,117,0,117,0,,,,,,,,,,,,,,,,,,,,,,1688.6586098000407,None,,,,,,,,,,,,,,,,,whole,103,118,silent,new,null,1685.4821477001533,None,1685.4821477001533,None,5,2.3872468997724354,1685.4821477001533,None,2.3872468997724354,1687.8921973998658,None,1688.4060483002104,None,1688.4060483002104,None,f,0.22291839960962534,1688.4060483002104,None,0.22291839960962534,,,70 Silent,001,2022_Nov_03_1342,ProdSingRedoBetween,2021.2.3,59.848308478840615,
,,,,118,0,118,0,,,,,,,,,,,,,,,,,,,,,,1691.3451423002407,None,,,,,,,,,,,,,,,,,country,37,119,silent,old,blue,1689.1788530000485,None,1689.1788530000485,None,6,1.4342366997152567,1689.1788530000485,None,1.4342366997152567,1690.6451131002977,None,1691.1620021001436,None,1691.1620021001436,None,r,0.16333290003240108,1691.1620021001436,None,0.16333290003240108,,,70 Silent,001,2022_Nov_03_1342,ProdSingRedoBetween,2021.2.3,59.848308478840615,
,,,,119,0,119,0,,,,,,,,,,,,,,,,,,,,,,1695.4811630002223,None,,,,,,,,,,,,,,,,,beginning,2,120,silent,old,yellow,1691.8725972999819,None,1691.8725972999819,None,6,2.9003990003839135,1691.8725972999819,None,2.9003990003839135,1694.7987230001017,None,1695.313684800174,None,1695.313684800174,None,r,0.1476443000137806,1695.313684800174,None,0.1476443000137806,,,70 Silent,001,2022_Nov_03_1342,ProdSingRedoBetween,2021.2.3,59.848308478840615,
,,,,120,0,120,0,,,,,,,,,,,,,,,,,,,,,,1698.968886599876,None,,,,,,,,,,,,,,,,,education,14,121,silent,old,yellow,1695.9829052998684,None,1695.9829052998684,None,4,2.126133299898356,1695.9829052998684,None,2.126133299898356,1698.1345730000176,None,1698.649912300054,None,1698.649912300054,None,f,0.2910810001194477,1698.649912300054,None,0.2910810001194477,,,70 Silent,001,2022_Nov_03_1342,ProdSingRedoBetween,2021.2.3,59.848308478840615,
,,,,121,0,121,0,,,,,,,,,,,,,,,,,,,,,,1702.5244432999752,None,,,,,,,,,,,,,,,,,shock,113,122,silent,new,null,1699.4862267002463,None,1699.4862267002463,None,2,2.078767499886453,1699.4862267002463,None,2.078767499886453,1701.590366399847,None,1702.1037242002785,None,1702.1037242002785,None,n,0.3976026000455022,1702.1037242002785,None,0.3976026000455022,,,70 Silent,001,2022_Nov_03_1342,ProdSingRedoBetween,2021.2.3,59.848308478840615,
,,,,122,0,122,0,,,,,,,,,,,,,,,,,,,,,,1705.5228194002993,None,,,,,,,,,,,,,,,,,impact,126,123,silent,new,null,1703.0411888002418,None,1703.0411888002418,None,2,1.6279203002341092,1703.0411888002418,None,1.6279203002341092,1704.7094858000055,None,1705.208621200174,None,1705.208621200174,None,n,0.2922986997291446,1705.208621200174,None,0.2922986997291446,,,70 Silent,001,2022_Nov_03_1342,ProdSingRedoBetween,2021.2.3,59.848308478840615,
,,,,123,0,123,0,,,,,,,,,,,,,,,,,,,,,,1709.1789265000261,None,,,,,,,,,,,,,,,,,career,35,124,silent,old,blue,1706.02586540021,None,1706.02586540021,None,6,2.4911080999299884,1706.02586540021,None,2.4911080999299884,1708.5461667999625,None,1709.0610297000967,None,1709.0610297000967,None,r,0.09641569992527366,1709.0610297000967,None,0.09641569992527366,,,70 Silent,001,2022_Nov_03_1342,ProdSingRedoBetween,2021.2.3,59.848308478840615,
,,,,124,0,124,0,,,,,,,,,,,,,,,,,,,,,,1713.299672999885,None,,,,,,,,,,,,,,,,,split,65,125,silent,old,red,1709.7019918998703,None,1709.7019918998703,None,2,2.343133899848908,1709.7019918998703,None,2.343133899848908,1712.0661466000602,None,1712.5812106002122,None,1712.5812106002122,None,n,0.6878759996034205,1712.5812106002122,None,0.6878759996034205,,,70 Silent,001,2022_Nov_03_1342,ProdSingRedoBetween,2021.2.3,59.848308478840615,
,,,,125,0,125,0,,,,,,,,,,,,,,,,,,,,,,1718.387920500245,None,,,,,,,,,,,,,,,,,escape,170,126,silent,new,null,1713.8172015999444,None,1713.8172015999444,None,6,3.300018100067973,1713.8172015999444,None,3.300018100067973,1717.138252499979,None,1717.6528636999428,None,1717.6528636999428,None,r,0.7120893001556396,1717.6528636999428,None,0.7120893001556396,,,70 Silent,001,2022_Nov_03_1342,ProdSingRedoBetween,2021.2.3,59.848308478840615,
,,,,126,0,126,0,,,,,,,,,,,,,,,,,,,,,,1721.3578618001193,None,,,,,,,,,,,,,,,,,conference,107,127,silent,new,null,1718.905065299943,None,1718.905065299943,None,2,1.6919149002060294,1718.905065299943,None,1.6919149002060294,1720.6243095002137,None,1721.1397044002078,None,1721.1397044002078,None,n,0.1933325999416411,1721.1397044002078,None,0.1933325999416411,,,70 Silent,001,2022_Nov_03_1342,ProdSingRedoBetween,2021.2.3,59.848308478840615,
,,,,127,0,127,0,,,,,,,,,,,,,,,,,,,,,,1725.2786952001043,None,,,,,,,,,,,,,,,,,group,111,128,silent,new,null,1721.8785854000598,None,1721.8785854000598,None,5,2.3825572999194264,1721.8785854000598,None,2.3825572999194264,1724.294300199952,None,1724.8120039999485,None,1724.8120039999485,None,f,0.4410278997384012,1724.8120039999485,None,0.4410278997384012,,,70 Silent,001,2022_Nov_03_1342,ProdSingRedoBetween,2021.2.3,59.848308478840615,
,,,,128,0,128,0,,,,,,,,,,,,,,,,,,,,,,1730.6822361000814,None,,,,,,,,,,,,,,,,,permit,69,129,silent,old,red,1725.807895900216,None,1725.807895900216,None,3,3.8851242000237107,1725.807895900216,None,3.8851242000237107,1729.7201143000275,None,1730.2337346998975,None,1730.2337346998975,None,f,0.42715129954740405,1730.2337346998975,None,0.42715129954740405,,,70 Silent,001,2022_Nov_03_1342,ProdSingRedoBetween,2021.2.3,59.848308478840615,
,,,,129,0,129,0,,,,,,,,,,,,,,,,,,,,,,1734.0867388001643,None,,,,,,,,,,,,,,,,,taste,19,130,silent,old,yellow,1731.1851234999485,None,1731.1851234999485,None,6,1.6997405998408794,1731.1851234999485,None,1.6997405998408794,1732.9037064001895,None,1733.417752600275,None,1733.417752600275,None,r,0.6432777997106314,1733.417752600275,None,0.6432777997106314,,,70 Silent,001,2022_Nov_03_1342,ProdSingRedoBetween,2021.2.3,59.848308478840615,
,,,,130,0,130,0,,,,,,,,,,,,,,,,,,,,,,1736.7741987002082,None,,,,,,,,,,,,,,,,,meeting,98,131,silent,new,null,1734.6026449999772,None,1734.6026449999772,None,6,1.37822309974581,1734.6026449999772,None,1.37822309974581,1736.006507600192,None,1736.5264769000933,None,1736.5264769000933,None,r,0.2145190997980535,1736.5264769000933,None,0.2145190997980535,,,70 Silent,001,2022_Nov_03_1342,ProdSingRedoBetween,2021.2.3,59.848308478840615,
,,,,131,0,131,0,,,,,,,,,,,,,,,,,,,,,,1739.7884670002386,None,,,,,,,,,,,,,,,,,bureau,39,132,silent,old,blue,1737.2893341002055,None,1737.2893341002055,None,4,1.4756074999459088,1737.2893341002055,None,1.4756074999459088,1738.792983500287,None,1739.3076431001537,None,1739.3076431001537,None,f,0.4494977002032101,1739.3076431001537,None,0.4494977002032101,,,70 Silent,001,2022_Nov_03_1342,ProdSingRedoBetween,2021.2.3,59.848308478840615,
,,,,132,0,132,0,,,,,,,,,,,,,,,,,,,,,,1742.9458094001748,None,,,,,,,,,,,,,,,,,benefit,136,133,silent,new,null,1740.2988951001316,None,1740.2988951001316,None,4,1.738056800328195,1740.2988951001316,None,1.738056800328195,1742.0630709002726,None,1742.5776515002362,None,1742.5776515002362,None,f,0.3476167996414006,1742.5776515002362,None,0.3476167996414006,,,70 Silent,001,2022_Nov_03_1342,ProdSingRedoBetween,2021.2.3,59.848308478840615,
,,,,133,0,133,0,,,,,,,,,,,,,,,,,,,,,,1746.2831508000381,None,,,,,,,,,,,,,,,,,touch,54,134,silent,old,blue,1743.4543230002746,None,1743.4543230002746,None,3,1.7748702000826597,1743.4543230002746,None,1.7748702000826597,1745.2485706000589,None,1745.7685789000243,None,1745.7685789000243,None,n,0.4843223001807928,1745.7685789000243,None,0.4843223001807928,,,70 Silent,001,2022_Nov_03_1342,ProdSingRedoBetween,2021.2.3,59.848308478840615,
,,,,134,0,134,0,,,,,,,,,,,,,,,,,,,,,,1749.769465399906,None,,,,,,,,,,,,,,,,,guest,104,135,silent,new,null,1746.8006410002708,None,1746.8006410002708,None,5,1.7403577002696693,1746.8006410002708,None,1.7403577002696693,1748.5751807000488,None,1749.0835350998677,None,1749.0835350998677,None,f,0.665660799946636,1749.0835350998677,None,0.665660799946636,,,70 Silent,001,2022_Nov_03_1342,ProdSingRedoBetween,2021.2.3,59.848308478840615,
,,,,135,0,135,0,,,,,,,,,,,,,,,,,,,,,,1754.1727117998526,None,,,,,,,,,,,,,,,,,candidate,43,136,silent,old,blue,1750.2862185002305,None,1750.2862185002305,None,6,3.0227843998000026,1750.2862185002305,None,3.0227843998000026,1753.3398466999643,None,1753.8547650002874,None,1753.8547650002874,None,r,0.30214549973607063,1753.8547650002874,None,0.30214549973607063,,,70 Silent,001,2022_Nov_03_1342,ProdSingRedoBetween,2021.2.3,59.848308478840615,
,,,,136,0,136,0,,,,,,,,,,,,,,,,,,,,,,1757.3601092002355,None,,,,,,,,,,,,,,,,,patient,6,137,silent,old,yellow,1754.676234100014,None,1754.676234100014,None,2,1.104738200083375,1754.676234100014,None,1.104738200083375,1755.8109339000657,None,1756.3305758000351,None,1756.3305758000351,None,n,1.0023733000271022,1756.3305758000351,None,1.0023733000271022,,,70 Silent,001,2022_Nov_03_1342,ProdSingRedoBetween,2021.2.3,59.848308478840615,
,,,,137,0,137,0,,,,,,,,,,,,,,,,,,,,,,1761.8305160002783,None,,,,,,,,,,,,,,,,,empty,75,138,silent,old,red,1757.8774550999515,None,1757.8774550999515,None,3,2.199614000041038,1757.8774550999515,None,2.199614000041038,1760.0967882000841,None,1760.6133349998854,None,1760.6133349998854,None,f,1.1996149001643062,1760.6133349998854,None,1.1996149001643062,,,70 Silent,001,2022_Nov_03_1342,ProdSingRedoBetween,2021.2.3,59.848308478840615,
,,,,138,0,138,0,,,,,,,,,,,,,,,,,,,,,,1771.5913904998451,None,,,,,,,,,,,,,,,,,color,42,139,silent,old,blue,1762.3385195001028,None,1762.3385195001028,None,3,6.242369399871677,1762.3385195001028,None,6.242369399871677,1768.6056643999182,None,1769.1208239998668,None,1769.1208239998668,None,f,2.4441388002596796,1769.1208239998668,None,2.4441388002596796,,,70 Silent,001,2022_Nov_03_1342,ProdSingRedoBetween,2021.2.3,59.848308478840615,
,,,,139,0,139,0,,,,,,,,,,,,,,,,,,,,,,1775.3773358999752,None,,,,,,,,,,,,,,,,,drink,31,140,silent,old,blue,1772.1131502999924,None,1772.1131502999924,None,1,1.4197676996700466,1772.1131502999924,None,1.4197676996700466,1773.5643330002204,None,1774.0777814001776,None,1774.0777814001776,None,n,1.279349900316447,1774.0777814001776,None,1.279349900316447,,,70 Silent,001,2022_Nov_03_1342,ProdSingRedoBetween,2021.2.3,59.848308478840615,
,,,,140,0,140,0,,,,,,,,,,,,,,,,,,,,,,1779.9980498002842,None,,,,,,,,,,,,,,,,,author,146,141,silent,new,null,1775.8842802001163,None,1775.8842802001163,None,4,3.2406691000796854,1775.8842802001163,None,3.2406691000796854,1779.1525043998845,None,1779.6641454999335,None,1779.6641454999335,None,f,0.3089246996678412,1779.6641454999335,None,0.3089246996678412,,,70 Silent,001,2022_Nov_03_1342,ProdSingRedoBetween,2021.2.3,59.848308478840615,
,,,,141,0,141,0,,,,,,,,,,,,,,,,,,,,,,1783.302374199964,None,,,,,,,,,,,,,,,,,count,153,142,silent,new,null,1780.5076184999198,None,1780.5076184999198,None,4,1.7931532002985477,1780.5076184999198,None,1.7931532002985477,1782.3194180000573,None,1782.8373628999107,None,1782.8373628999107,None,f,0.44769270019605756,1782.8373628999107,None,0.44769270019605756,,,70 Silent,001,2022_Nov_03_1342,ProdSingRedoBetween,2021.2.3,59.848308478840615,
,,,,142,0,142,0,,,,,,,,,,,,,,,,,,,,,,1787.9733649999835,None,,,,,,,,,,,,,,,,,working,95,143,silent,new,null,1783.80483870022,None,1783.80483870022,None,6,3.0642269998788834,1783.80483870022,None,3.0642269998788834,1786.892891400028,None,1787.4076502001844,None,1787.4076502001844,None,r,0.5411404999904335,1787.4076502001844,None,0.5411404999904335,,,70 Silent,001,2022_Nov_03_1342,ProdSingRedoBetween,2021.2.3,59.848308478840615,
,,,,143,0,143,0,,,,,,,,,,,,,,,,,,,,,,1790.7255891002715,None,,,,,,,,,,,,,,,,,safety,87,144,silent,old,red,1788.4753884999081,None,1788.4753884999081,None,5,1.4735326999798417,1788.4753884999081,None,1.4735326999798417,1789.9763234001584,None,1790.4914806000888,None,1790.4914806000888,None,r,0.21726449998095632,1790.4914806000888,None,0.21726449998095632,,,70 Silent,001,2022_Nov_03_1342,ProdSingRedoBetween,2021.2.3,59.848308478840615,
,,,,144,0,144,0,,,,,,,,,,,,,,,,,,,,,,1794.4636336001568,None,,,,,,,,,,,,,,,,,nation,36,145,silent,old,blue,1791.2292710999027,None,1791.2292710999027,None,4,2.415594399906695,1791.2292710999027,None,2.415594399906695,1793.6628474001773,None,1794.1644808002748,None,1794.1644808002748,None,f,0.27242180006578565,1794.1644808002748,None,0.27242180006578565,,,70 Silent,001,2022_Nov_03_1342,ProdSingRedoBetween,2021.2.3,59.848308478840615,
,,,,145,0,145,0,,,,,,,,,,,,,,,,,,,,,,1797.448948000092,None,,,,,,,,,,,,,,,,,resistance,89,146,silent,old,red,1794.9847327000462,None,1794.9847327000462,None,1,1.6442933003418148,1794.9847327000462,None,1.6442933003418148,1796.6527388999239,None,1797.1708475998603,None,1797.1708475998603,None,n,0.2499469998292625,1797.1708475998603,None,0.2499469998292625,,,70 Silent,001,2022_Nov_03_1342,ProdSingRedoBetween,2021.2.3,59.848308478840615,
,,,,146,0,146,0,,,,,,,,,,,,,,,,,,,,,,1801.103625799995,None,,,,,,,,,,,,,,,,,tragedy,73,147,silent,old,red,1797.9607673999853,None,1797.9607673999853,None,4,2.244069100357592,1797.9607673999853,None,2.244069100357592,1800.2366547002457,None,1800.7524172998965,None,1800.7524172998965,None,f,0.33268170012161136,1800.7524172998965,None,0.33268170012161136,,,70 Silent,001,2022_Nov_03_1342,ProdSingRedoBetween,2021.2.3,59.848308478840615,
,,,,147,0,147,0,,,,,,,,,,,,,,,,,,,,,,1804.5219477000646,None,,,,,,,,,,,,,,,,,corner,139,148,silent,new,null,1801.604732400272,None,1801.604732400272,None,2,1.9521777001209557,1801.604732400272,None,1.9521777001209557,1803.590323000215,None,1804.1049359999597,None,1804.1049359999597,None,n,0.38782820012420416,1804.1049359999597,None,0.38782820012420416,,,70 Silent,001,2022_Nov_03_1342,ProdSingRedoBetween,2021.2.3,59.848308478840615,
,,,,148,0,148,0,,,,,,,,,,,,,,,,,,,,,,1807.3607890000567,None,,,,,,,,,,,,,,,,,universal,41,149,silent,old,blue,1805.0337188001722,None,1805.0337188001722,None,1,1.5553513998165727,1805.0337188001722,None,1.5553513998165727,1806.6117618000135,None,1807.1262169000693,None,1807.1262169000693,None,n,0.21480969991534948,1807.1262169000693,None,0.21480969991534948,,,70 Silent,001,2022_Nov_03_1342,ProdSingRedoBetween,2021.2.3,59.848308478840615,
,,,,149,0,149,0,,,,,,,,,,,,,,,,,,,,,,1811.7325552999973,None,,,,,,,,,,,,,,,,,stand,108,150,silent,new,null,1807.877590900287,None,1807.877590900287,None,3,1.6231956998817623,1807.877590900287,None,1.6231956998817623,1809.5301932999864,None,1810.0585596999153,None,1810.0585596999153,None,f,1.6421854998916388,1810.0585596999153,None,1.6421854998916388,,,70 Silent,001,2022_Nov_03_1342,ProdSingRedoBetween,2021.2.3,59.848308478840615,
,,,,150,0,150,0,,,,,,,,,,,,,,,,,,,,,,1815.4017290999182,None,,,,,,,,,,,,,,,,,search,29,151,silent,old,blue,1812.2485811002553,None,1812.2485811002553,None,4,1.740235200151801,1812.2485811002553,None,1.740235200151801,1814.0177394002676,None,1814.5383553998545,None,1814.5383553998545,None,f,0.8344446001574397,1814.5383553998545,None,0.8344446001574397,,,70 Silent,001,2022_Nov_03_1342,ProdSingRedoBetween,2021.2.3,59.848308478840615,
,,,,151,0,151,0,,,,,,,,,,,,,,,,,,,,,,1818.0879493001848,None,,,,,,,,,,,,,,,,,medicine,154,152,silent,new,null,1815.9186900998466,None,1815.9186900998466,None,1,1.2462954996153712,1815.9186900998466,None,1.2462954996153712,1817.1869578002952,None,1817.70337569993,None,1817.70337569993,None,n,0.3576182001270354,1817.70337569993,None,0.3576182001270354,,,70 Silent,001,2022_Nov_03_1342,ProdSingRedoBetween,2021.2.3,59.848308478840615,
,,,,152,0,152,0,,,,,,,,,,,,,,,,,,,,,,1822.2068348000757,None,,,,,,,,,,,,,,,,,chief,33,153,silent,old,blue,1818.603962500114,None,1818.603962500114,None,6,1.6248277998529375,1818.603962500114,None,1.6248277998529375,1820.2609351002611,None,1820.7721354998648,None,1820.7721354998648,None,r,1.4086290998384356,1820.7721354998648,None,1.4086290998384356,,,70 Silent,001,2022_Nov_03_1342,ProdSingRedoBetween,2021.2.3,59.848308478840615,
,,,,153,0,153,0,,,,,,,,,,,,,,,,,,,,,,1826.5445610000752,None,,,,,,,,,,,,,,,,,burden,28,154,silent,old,yellow,1822.7210953002796,None,1822.7210953002796,None,3,1.5637457999400795,1822.7210953002796,None,1.5637457999400795,1824.3129388000816,None,1824.8259601001628,None,1824.8259601001628,None,n,1.6990901003591716,1824.8259601001628,None,1.6990901003591716,,,70 Silent,001,2022_Nov_03_1342,ProdSingRedoBetween,2021.2.3,59.848308478840615,
,,,,154,0,154,0,,,,,,,,,,,,,,,,,,,,,,1830.1828137002885,None,,,,,,,,,,,,,,,,,instrument,122,155,silent,new,null,1827.053421500139,None,1827.053421500139,None,3,1.767369699664414,1827.053421500139,None,1.767369699664414,1828.8488683998585,None,1829.36718450021,None,1829.36718450021,None,n,0.7976128999143839,1829.36718450021,None,0.7976128999143839,,,70 Silent,001,2022_Nov_03_1342,ProdSingRedoBetween,2021.2.3,59.848308478840615,
,,,,155,0,155,0,,,,,,,,,,,,,,,,,,,,,,1834.2450476000085,None,,,,,,,,,,,,,,,,,symbol,105,156,silent,new,null,1830.7004587999545,None,1830.7004587999545,None,5,1.9362141997553408,1830.7004587999545,None,1.9362141997553408,1832.6760732000694,None,1833.183907700237,None,1833.183907700237,None,f,1.0288513996638358,1833.183907700237,None,1.0288513996638358,,,70 Silent,001,2022_Nov_03_1342,ProdSingRedoBetween,2021.2.3,59.848308478840615,
,,,,156,0,156,0,,,,,,,,,,,,,,,,,,,,,,1839.206498300191,None,,,,,,,,,,,,,,,,,dispute,173,157,silent,new,null,1834.762526200153,None,1834.762526200153,None,4,3.8102593002840877,1834.762526200153,None,3.8102593002840877,1838.6046808999963,None,1839.1083118999377,None,1839.1083118999377,None,f,0.0806376002728939,1839.1083118999377,None,0.0806376002728939,,,70 Silent,001,2022_Nov_03_1342,ProdSingRedoBetween,2021.2.3,59.848308478840615,
,,,,157,0,157,0,,,,,,,,,,,,,,,,,,,,,,1843.694869400002,None,,,,,,,,,,,,,,,,,beauty,178,158,silent,new,null,1839.709916099906,None,1839.709916099906,None,5,2.6388111002743244,1839.709916099906,None,2.6388111002743244,1842.3930903999135,None,1842.8936912002973,None,1842.8936912002973,None,r,0.7752184001728892,1842.8936912002973,None,0.7752184001728892,,,70 Silent,001,2022_Nov_03_1342,ProdSingRedoBetween,2021.2.3,59.848308478840615,
,,,,158,0,158,0,,,,,,,,,,,,,,,,,,,,,,1849.7528030001558,None,,,,,,,,,,,,,,,,,weight,133,159,silent,new,null,1844.1982690999284,None,1844.1982690999284,None,5,4.454523399937898,1844.1982690999284,None,4.454523399937898,1848.685008800123,None,1849.2024170998484,None,1849.2024170998484,None,f,0.5305212996900082,1849.2024170998484,None,0.5305212996900082,,,70 Silent,001,2022_Nov_03_1342,ProdSingRedoBetween,2021.2.3,59.848308478840615,
,,,,159,0,159,0,,,,,,,,,,,,,,,,,,,,,,1853.0395150003023,None,,,,,,,,,,,,,,,,,frank,70,160,silent,old,red,1850.2696803002618,None,1850.2696803002618,None,6,2.071006499696523,1850.2696803002618,None,2.071006499696523,1852.374747700058,None,1852.8876986000687,None,1852.8876986000687,None,r,0.12514640018343925,1852.8876986000687,None,0.12514640018343925,,,70 Silent,001,2022_Nov_03_1342,ProdSingRedoBetween,2021.2.3,59.848308478840615,
,,,,160,0,160,0,,,,,,,,,,,,,,,,,,,,,,1857.499218699988,None,,,,,,,,,,,,,,,,,charter,149,161,silent,new,null,1853.5584698002785,None,1853.5584698002785,None,6,1.7581782997585833,1853.5584698002785,None,1.7581782997585833,1855.347596900072,None,1855.8570536002517,None,1855.8570536002517,None,r,1.6116787996143103,1855.8570536002517,None,1.6116787996143103,,,70 Silent,001,2022_Nov_03_1342,ProdSingRedoBetween,2021.2.3,59.848308478840615,
,,,,161,0,161,0,,,,,,,,,,,,,,,,,,,,,,1860.979502900038,None,,,,,,,,,,,,,,,,,finance,135,162,silent,new,null,1858.0211785999127,None,1858.0211785999127,None,4,1.927592399995774,1858.0211785999127,None,1.927592399995774,1859.9800277999602,None,1860.4950311002322,None,1860.4950311002322,None,f,0.453638999722898,1860.4950311002322,None,0.453638999722898,,,70 Silent,001,2022_Nov_03_1342,ProdSingRedoBetween,2021.2.3,59.848308478840615,
,,,,162,0,162,0,,,,,,,,,,,,,,,,,,,,,,1864.2315922002308,None,,,,,,,,,,,,,,,,,member,83,163,silent,old,red,1861.4928342001513,None,1861.4928342001513,None,6,1.7681582001969218,1861.4928342001513,None,1.7681582001969218,1863.2829613001086,None,1863.7983355000615,None,1863.7983355000615,None,r,0.4063639002852142,1863.7983355000615,None,0.4063639002852142,,,70 Silent,001,2022_Nov_03_1342,ProdSingRedoBetween,2021.2.3,59.848308478840615,
,,,,163,0,163,0,,,,,,,,,,,,,,,,,,,,,,1869.0880674002692,None,,,,,,,,,,,,,,,,,design,179,164,silent,new,null,1864.7369348001666,None,1864.7369348001666,None,6,3.587734099943191,1864.7369348001666,None,3.587734099943191,1868.356402200181,None,1868.8701626001857,None,1868.8701626001857,None,r,0.1987291001714766,1868.8701626001857,None,0.1987291001714766,,,70 Silent,001,2022_Nov_03_1342,ProdSingRedoBetween,2021.2.3,59.848308478840615,
,,,,164,0,164,0,,,,,,,,,,,,,,,,,,,,,,1872.3746730000712,None,,,,,,,,,,,,,,,,,article,88,165,silent,old,red,1869.6062272000127,None,1869.6062272000127,None,2,1.3425178998149931,1869.6062272000127,None,1.3425178998149931,1870.9747497001663,None,1871.4889989001676,None,1871.4889989001676,None,n,0.8679144000634551,1871.4889989001676,None,0.8679144000634551,,,70 Silent,001,2022_Nov_03_1342,ProdSingRedoBetween,2021.2.3,59.848308478840615,
,,,,165,0,165,0,,,,,,,,,,,,,,,,,,,,,,1876.0788910998963,None,,,,,,,,,,,,,,,,,provision,109,166,silent,new,null,1872.87914500013,None,1872.87914500013,None,1,2.2458917000330985,1872.87914500013,None,2.2458917000330985,1875.152266900055,None,1875.660446099937,None,1875.660446099937,None,n,0.3923226003535092,1875.660446099937,None,0.3923226003535092,,,70 Silent,001,2022_Nov_03_1342,ProdSingRedoBetween,2021.2.3,59.848308478840615,
,,,,166,0,166,0,,,,,,,,,,,,,,,,,,,,,,1880.298410499934,None,,,,,,,,,,,,,,,,,express,142,167,silent,new,null,1876.6141762002371,None,1876.6141762002371,None,4,2.654504899866879,1876.6141762002371,None,2.654504899866879,1879.2989718001336,None,1879.814532900229,None,1879.814532900229,None,f,0.45420359959825873,1879.814532900229,None,0.45420359959825873,,,70 Silent,001,2022_Nov_03_1342,ProdSingRedoBetween,2021.2.3,59.848308478840615,
,,,,167,0,167,0,,,,,,,,,,,,,,,,,,,,,,1884.1533801001497,None,,,,,,,,,,,,,,,,,incident,66,168,silent,old,red,1880.8005786002614,None,1880.8005786002614,None,3,1.684064599685371,1880.8005786002614,None,1.684064599685371,1882.5033789998852,None,1883.0168713000603,None,1883.0168713000603,None,n,1.116021899972111,1883.0168713000603,None,1.116021899972111,,,70 Silent,001,2022_Nov_03_1342,ProdSingRedoBetween,2021.2.3,59.848308478840615,
,,,,168,0,168,0,,,,,,,,,,,,,,,,,,,,,,1887.0566079001874,None,,,,,,,,,,,,,,,,,harmony,110,169,silent,new,null,1884.6690499000251,None,1884.6690499000251,None,3,1.5997541998513043,1884.6690499000251,None,1.5997541998513043,1886.290210899897,None,1886.8185723000206,None,1886.8185723000206,None,n,0.2101473999209702,1886.8185723000206,None,0.2101473999209702,,,70 Silent,001,2022_Nov_03_1342,ProdSingRedoBetween,2021.2.3,59.848308478840615,
,,,,169,0,169,0,,,,,,,,,,,,,,,,,,,,,,1889.9916232000105,None,,,,,,,,,,,,,,,,,store,49,170,silent,old,blue,1887.572421300225,None,1887.572421300225,None,4,1.3042840003035963,1887.572421300225,None,1.3042840003035963,1888.9085873002186,None,1889.4249386000447,None,1889.4249386000447,None,f,0.5478835999965668,1889.4249386000447,None,0.5478835999965668,,,70 Silent,001,2022_Nov_03_1342,ProdSingRedoBetween,2021.2.3,59.848308478840615,
,,,,170,0,170,0,,,,,,,,,,,,,,,,,,,,,,1892.961187900044,None,,,,,,,,,,,,,,,,,enemy,164,171,silent,new,null,1890.4948535002768,None,1890.4948535002768,None,5,1.4058704003691673,1890.4948535002768,None,1.4058704003691673,1891.9289874001406,None,1892.4433599999174,None,1892.4433599999174,None,r,0.49769299989566207,1892.4433599999174,None,0.49769299989566207,,,70 Silent,001,2022_Nov_03_1342,ProdSingRedoBetween,2021.2.3,59.848308478840615,
,,,,171,0,171,0,,,,,,,,,,,,,,,,,,,,,,1896.6149694002233,None,,,,,,,,,,,,,,,,,spoke,11,172,silent,old,yellow,1893.4637310998514,None,1893.4637310998514,None,3,1.9489897000603378,1893.4637310998514,None,1.9489897000603378,1895.43374520028,None,1895.9475758001208,None,1895.9475758001208,None,n,0.6493824999779463,1895.9475758001208,None,0.6493824999779463,,,70 Silent,001,2022_Nov_03_1342,ProdSingRedoBetween,2021.2.3,59.848308478840615,
,,,,172,0,172,0,,,,,,,,,,,,,,,,,,,,,,1899.384786200244,None,,,,,,,,,,,,,,,,,sleep,147,173,silent,new,null,1897.1349460999481,None,1897.1349460999481,None,6,1.4297794997692108,1897.1349460999481,None,1.4297794997692108,1898.586852400098,None,1899.1005170000717,None,1899.1005170000717,None,r,0.2561645000241697,1899.1005170000717,None,0.2561645000241697,,,70 Silent,001,2022_Nov_03_1342,ProdSingRedoBetween,2021.2.3,59.848308478840615,
,,,,173,0,173,0,,,,,,,,,,,,,,,,,,,,,,1909.073996399995,None,,,,,,,,,,,,,,,,,position,59,174,silent,old,yellow,1899.8868821002543,None,1899.8868821002543,None,4,8.45431699976325,1899.8868821002543,None,8.45431699976325,1908.3805184001103,None,1908.8932031001896,None,1908.8932031001896,None,n,0.13557989988476038,1908.8932031001896,None,0.13557989988476038,,,70 Silent,001,2022_Nov_03_1342,ProdSingRedoBetween,2021.2.3,59.848308478840615,
