StudyLoop.thisRepN,StudyLoop.thisTrialN,StudyLoop.thisN,StudyLoop.thisIndex,TestLoop.thisRepN,TestLoop.thisTrialN,TestLoop.thisN,TestLoop.thisIndex,textCondition.started,textCondition.stopped,keyCondition.keys,keyCondition.rt,keyCondition.started,keyCondition.stopped,Condition,textWelcome.started,textWelcome.stopped,keyWelcome.keys,keyWelcome.rt,keyWelcome.started,keyWelcome.stopped,textAloud.started,textAloud.stopped,textSilent.started,textSilent.stopped,textSing.started,textSing.stopped,conditional_text.started,conditional_text.stopped,textBlank500.started,textBlank500.stopped,study_word,study_num,study_order,study_type,word_color,textStudy.started,textStudy.stopped,keyStudy.keys,keyStudy.started,keyStudy.stopped,textTestInstructions.started,textTestInstructions.stopped,key_resp_3.keys,key_resp_3.rt,key_resp_3.started,key_resp_3.stopped,test_word,test_num,test_order,test_condition,old_new_test,test_word_original_color,textConf.started,textConf.stopped,textConfScale.started,textConfScale.stopped,keyConf.keys,keyConf.rt,keyConf.started,keyConf.stopped,confidence response time,textTestBlank.started,textTestBlank.stopped,textRKN.started,textRKN.stopped,textRKNScale.started,textRKNScale.stopped,keyRKN.keys,keyRKN.rt,keyRKN.started,keyRKN.stopped,rkn response time,textEnd.started,textEnd.stopped,participant,session,date,expName,psychopyVersion,frameRate,
,,,,,,,,30.787002900149673,None,b,3.475156799890101,30.787002900149673,None,,,,,,,,,,,,,,,,,,,,,,,,,,,,,,,,,,,,,,,,,,,,,,,,,,,,,,,,,,,,,,71 Aloud,001,2022_Nov_03_1505,ProdSingRedoBetween,2021.2.3,59.93306668799621,
,,,,,,,,,,,,,,AloudTest,34.30453079985455,None,space,1089.2068690997548,34.30453079985455,None,,,,,,,,,,,,,,,,,,,,,,,,,,,,,,,,,,,,,,,,,,,,,,,,,,,,,,,71 Aloud,001,2022_Nov_03_1505,ProdSingRedoBetween,2021.2.3,59.93306668799621,
0,0,0,0,,,,,,,,,,,,,,,,,,34.30453079985455,None,34.30453079985455,None,34.30453079985455,None,34.30453079985455,None,1126.0591837000102,None,trail,14,1,aloud,yellow,1124.051916600205,None,None,1124.051916600205,None,,,,,,,,,,,,,,,,,,,,,,,,,,,,,,,,,,,71 Aloud,001,2022_Nov_03_1505,ProdSingRedoBetween,2021.2.3,59.93306668799621,
1,0,1,0,,,,,,,,,,,,,,,,,,,,,,,,,,1128.5782854999416,None,native,19,2,aloud,yellow,1126.5701375999488,None,None,1126.5701375999488,None,,,,,,,,,,,,,,,,,,,,,,,,,,,,,,,,,,,71 Aloud,001,2022_Nov_03_1505,ProdSingRedoBetween,2021.2.3,59.93306668799621,
2,0,2,0,,,,,,,,,,,,,,,,,,,,,,,,,,1131.0808024001308,None,blind,54,3,aloud,blue,1129.0788532998413,None,None,1129.0788532998413,None,,,,,,,,,,,,,,,,,,,,,,,,,,,,,,,,,,,71 Aloud,001,2022_Nov_03_1505,ProdSingRedoBetween,2021.2.3,59.93306668799621,
3,0,3,0,,,,,,,,,,,,,,,,,,,,,,,,,,1133.5999806001782,None,short,49,4,aloud,blue,1131.585522999987,None,None,1131.585522999987,None,,,,,,,,,,,,,,,,,,,,,,,,,,,,,,,,,,,71 Aloud,001,2022_Nov_03_1505,ProdSingRedoBetween,2021.2.3,59.93306668799621,
4,0,4,0,,,,,,,,,,,,,,,,,,,,,,,,,,1136.1022576000541,None,production,35,5,aloud,blue,1134.100485399831,None,None,1134.100485399831,None,,,,,,,,,,,,,,,,,,,,,,,,,,,,,,,,,,,71 Aloud,001,2022_Nov_03_1505,ProdSingRedoBetween,2021.2.3,59.93306668799621,
5,0,5,0,,,,,,,,,,,,,,,,,,,,,,,,,,1138.6216776999645,None,display,86,6,aloud,red,1136.606180800125,None,None,1136.606180800125,None,,,,,,,,,,,,,,,,,,,,,,,,,,,,,,,,,,,71 Aloud,001,2022_Nov_03_1505,ProdSingRedoBetween,2021.2.3,59.93306668799621,
6,0,6,0,,,,,,,,,,,,,,,,,,,,,,,,,,1141.124009899795,None,interview,68,7,aloud,red,1139.1240469999611,None,None,1139.1240469999611,None,,,,,,,,,,,,,,,,,,,,,,,,,,,,,,,,,,,71 Aloud,001,2022_Nov_03_1505,ProdSingRedoBetween,2021.2.3,59.93306668799621,
7,0,7,0,,,,,,,,,,,,,,,,,,,,,,,,,,1143.6431212997995,None,appearance,81,8,aloud,red,1141.6317985998467,None,None,1141.6317985998467,None,,,,,,,,,,,,,,,,,,,,,,,,,,,,,,,,,,,71 Aloud,001,2022_Nov_03_1505,ProdSingRedoBetween,2021.2.3,59.93306668799621,
8,0,8,0,,,,,,,,,,,,,,,,,,,,,,,,,,1146.1459527998231,None,business,78,9,aloud,red,1144.1438402999192,None,None,1144.1438402999192,None,,,,,,,,,,,,,,,,,,,,,,,,,,,,,,,,,,,71 Aloud,001,2022_Nov_03_1505,ProdSingRedoBetween,2021.2.3,59.93306668799621,
9,0,9,0,,,,,,,,,,,,,,,,,,,,,,,,,,1148.6650021001697,None,general,89,10,aloud,red,1146.6523838997819,None,None,1146.6523838997819,None,,,,,,,,,,,,,,,,,,,,,,,,,,,,,,,,,,,71 Aloud,001,2022_Nov_03_1505,ProdSingRedoBetween,2021.2.3,59.93306668799621,
10,0,10,0,,,,,,,,,,,,,,,,,,,,,,,,,,1151.184142000042,None,sight,46,11,aloud,blue,1149.1692610001191,None,None,1149.1692610001191,None,,,,,,,,,,,,,,,,,,,,,,,,,,,,,,,,,,,71 Aloud,001,2022_Nov_03_1505,ProdSingRedoBetween,2021.2.3,59.93306668799621,
11,0,11,0,,,,,,,,,,,,,,,,,,,,,,,,,,1153.6865628999658,None,count,82,12,aloud,red,1151.6856553000398,None,None,1151.6856553000398,None,,,,,,,,,,,,,,,,,,,,,,,,,,,,,,,,,,,71 Aloud,001,2022_Nov_03_1505,ProdSingRedoBetween,2021.2.3,59.93306668799621,
12,0,12,0,,,,,,,,,,,,,,,,,,,,,,,,,,1156.188917200081,None,still,27,13,aloud,yellow,1154.1897184001282,None,None,1154.1897184001282,None,,,,,,,,,,,,,,,,,,,,,,,,,,,,,,,,,,,71 Aloud,001,2022_Nov_03_1505,ProdSingRedoBetween,2021.2.3,59.93306668799621,
13,0,13,0,,,,,,,,,,,,,,,,,,,,,,,,,,1158.6916800001636,None,motion,29,14,aloud,blue,1156.6897148997523,None,None,1156.6897148997523,None,,,,,,,,,,,,,,,,,,,,,,,,,,,,,,,,,,,71 Aloud,001,2022_Nov_03_1505,ProdSingRedoBetween,2021.2.3,59.93306668799621,
14,0,14,0,,,,,,,,,,,,,,,,,,,,,,,,,,1161.1941693997942,None,husband,63,15,aloud,red,1159.1951121999882,None,None,1159.1951121999882,None,,,,,,,,,,,,,,,,,,,,,,,,,,,,,,,,,,,71 Aloud,001,2022_Nov_03_1505,ProdSingRedoBetween,2021.2.3,59.93306668799621,
15,0,15,0,,,,,,,,,,,,,,,,,,,,,,,,,,1163.7132673999295,None,group,28,16,aloud,yellow,1161.7060862001963,None,None,1161.7060862001963,None,,,,,,,,,,,,,,,,,,,,,,,,,,,,,,,,,,,71 Aloud,001,2022_Nov_03_1505,ProdSingRedoBetween,2021.2.3,59.93306668799621,
16,0,16,0,,,,,,,,,,,,,,,,,,,,,,,,,,1166.215970700141,None,author,53,17,aloud,blue,1164.215106099844,None,None,1164.215106099844,None,,,,,,,,,,,,,,,,,,,,,,,,,,,,,,,,,,,71 Aloud,001,2022_Nov_03_1505,ProdSingRedoBetween,2021.2.3,59.93306668799621,
17,0,17,0,,,,,,,,,,,,,,,,,,,,,,,,,,1168.7348715998232,None,route,9,18,aloud,yellow,1166.7218371997587,None,None,1166.7218371997587,None,,,,,,,,,,,,,,,,,,,,,,,,,,,,,,,,,,,71 Aloud,001,2022_Nov_03_1505,ProdSingRedoBetween,2021.2.3,59.93306668799621,
18,0,18,0,,,,,,,,,,,,,,,,,,,,,,,,,,1171.2542503001168,None,question,34,19,aloud,blue,1169.2442279998213,None,None,1169.2442279998213,None,,,,,,,,,,,,,,,,,,,,,,,,,,,,,,,,,,,71 Aloud,001,2022_Nov_03_1505,ProdSingRedoBetween,2021.2.3,59.93306668799621,
19,0,19,0,,,,,,,,,,,,,,,,,,,,,,,,,,1173.7567046000622,None,engineer,6,20,aloud,yellow,1171.755744600203,None,None,1171.755744600203,None,,,,,,,,,,,,,,,,,,,,,,,,,,,,,,,,,,,71 Aloud,001,2022_Nov_03_1505,ProdSingRedoBetween,2021.2.3,59.93306668799621,
20,0,20,0,,,,,,,,,,,,,,,,,,,,,,,,,,1176.2759044999257,None,state,33,21,aloud,blue,1174.2621875000186,None,None,1174.2621875000186,None,,,,,,,,,,,,,,,,,,,,,,,,,,,,,,,,,,,71 Aloud,001,2022_Nov_03_1505,ProdSingRedoBetween,2021.2.3,59.93306668799621,
21,0,21,0,,,,,,,,,,,,,,,,,,,,,,,,,,1178.7782238000073,None,youth,2,22,aloud,yellow,1176.776446599979,None,None,1176.776446599979,None,,,,,,,,,,,,,,,,,,,,,,,,,,,,,,,,,,,71 Aloud,001,2022_Nov_03_1505,ProdSingRedoBetween,2021.2.3,59.93306668799621,
22,0,22,0,,,,,,,,,,,,,,,,,,,,,,,,,,1181.280964099802,None,notice,44,23,aloud,blue,1179.2787660001777,None,None,1179.2787660001777,None,,,,,,,,,,,,,,,,,,,,,,,,,,,,,,,,,,,71 Aloud,001,2022_Nov_03_1505,ProdSingRedoBetween,2021.2.3,59.93306668799621,
23,0,23,0,,,,,,,,,,,,,,,,,,,,,,,,,,1183.7834104998037,None,incident,5,24,aloud,yellow,1181.7812061998993,None,None,1181.7812061998993,None,,,,,,,,,,,,,,,,,,,,,,,,,,,,,,,,,,,71 Aloud,001,2022_Nov_03_1505,ProdSingRedoBetween,2021.2.3,59.93306668799621,
24,0,24,0,,,,,,,,,,,,,,,,,,,,,,,,,,1186.3026247001253,None,universal,75,25,aloud,red,1184.289795699995,None,None,1184.289795699995,None,,,,,,,,,,,,,,,,,,,,,,,,,,,,,,,,,,,71 Aloud,001,2022_Nov_03_1505,ProdSingRedoBetween,2021.2.3,59.93306668799621,
25,0,25,0,,,,,,,,,,,,,,,,,,,,,,,,,,1188.8219595998526,None,staff,84,26,aloud,red,1186.8069655997679,None,None,1186.8069655997679,None,,,,,,,,,,,,,,,,,,,,,,,,,,,,,,,,,,,71 Aloud,001,2022_Nov_03_1505,ProdSingRedoBetween,2021.2.3,59.93306668799621,
26,0,26,0,,,,,,,,,,,,,,,,,,,,,,,,,,1191.3242250001058,None,figure,51,27,aloud,blue,1189.3239092999138,None,None,1189.3239092999138,None,,,,,,,,,,,,,,,,,,,,,,,,,,,,,,,,,,,71 Aloud,001,2022_Nov_03_1505,ProdSingRedoBetween,2021.2.3,59.93306668799621,
27,0,27,0,,,,,,,,,,,,,,,,,,,,,,,,,,1193.826706000138,None,alert,37,28,aloud,blue,1191.8247747998685,None,None,1191.8247747998685,None,,,,,,,,,,,,,,,,,,,,,,,,,,,,,,,,,,,71 Aloud,001,2022_Nov_03_1505,ProdSingRedoBetween,2021.2.3,59.93306668799621,
28,0,28,0,,,,,,,,,,,,,,,,,,,,,,,,,,1196.3290606997907,None,session,52,29,aloud,blue,1194.3292812001891,None,None,1194.3292812001891,None,,,,,,,,,,,,,,,,,,,,,,,,,,,,,,,,,,,71 Aloud,001,2022_Nov_03_1505,ProdSingRedoBetween,2021.2.3,59.93306668799621,
29,0,29,0,,,,,,,,,,,,,,,,,,,,,,,,,,1198.831597100012,None,education,58,30,aloud,blue,1196.8297660001554,None,None,1196.8297660001554,None,,,,,,,,,,,,,,,,,,,,,,,,,,,,,,,,,,,71 Aloud,001,2022_Nov_03_1505,ProdSingRedoBetween,2021.2.3,59.93306668799621,
30,0,30,0,,,,,,,,,,,,,,,,,,,,,,,,,,1201.350560599938,None,provision,47,31,aloud,blue,1199.3362201000564,None,None,1199.3362201000564,None,,,,,,,,,,,,,,,,,,,,,,,,,,,,,,,,,,,71 Aloud,001,2022_Nov_03_1505,ProdSingRedoBetween,2021.2.3,59.93306668799621,
31,0,31,0,,,,,,,,,,,,,,,,,,,,,,,,,,1203.8534576999955,None,industry,36,32,aloud,blue,1201.8512883000076,None,None,1201.8512883000076,None,,,,,,,,,,,,,,,,,,,,,,,,,,,,,,,,,,,71 Aloud,001,2022_Nov_03_1505,ProdSingRedoBetween,2021.2.3,59.93306668799621,
32,0,32,0,,,,,,,,,,,,,,,,,,,,,,,,,,1206.3726125000976,None,length,57,33,aloud,blue,1204.359554800205,None,None,1204.359554800205,None,,,,,,,,,,,,,,,,,,,,,,,,,,,,,,,,,,,71 Aloud,001,2022_Nov_03_1505,ProdSingRedoBetween,2021.2.3,59.93306668799621,
33,0,33,0,,,,,,,,,,,,,,,,,,,,,,,,,,1208.8750787000172,None,harmony,22,34,aloud,yellow,1206.8730659000576,None,None,1206.8730659000576,None,,,,,,,,,,,,,,,,,,,,,,,,,,,,,,,,,,,71 Aloud,001,2022_Nov_03_1505,ProdSingRedoBetween,2021.2.3,59.93306668799621,
34,0,34,0,,,,,,,,,,,,,,,,,,,,,,,,,,1211.3775837998837,None,appeal,50,35,aloud,blue,1209.3756980998442,None,None,1209.3756980998442,None,,,,,,,,,,,,,,,,,,,,,,,,,,,,,,,,,,,71 Aloud,001,2022_Nov_03_1505,ProdSingRedoBetween,2021.2.3,59.93306668799621,
35,0,35,0,,,,,,,,,,,,,,,,,,,,,,,,,,1213.8967182999477,None,council,85,36,aloud,red,1211.8894223999232,None,None,1211.8894223999232,None,,,,,,,,,,,,,,,,,,,,,,,,,,,,,,,,,,,71 Aloud,001,2022_Nov_03_1505,ProdSingRedoBetween,2021.2.3,59.93306668799621,
36,0,36,0,,,,,,,,,,,,,,,,,,,,,,,,,,1216.3991899001412,None,public,11,37,aloud,yellow,1214.3972459998913,None,None,1214.3972459998913,None,,,,,,,,,,,,,,,,,,,,,,,,,,,,,,,,,,,71 Aloud,001,2022_Nov_03_1505,ProdSingRedoBetween,2021.2.3,59.93306668799621,
37,0,37,0,,,,,,,,,,,,,,,,,,,,,,,,,,1218.9184571998194,None,attack,41,38,aloud,blue,1216.9041737997904,None,None,1216.9041737997904,None,,,,,,,,,,,,,,,,,,,,,,,,,,,,,,,,,,,71 Aloud,001,2022_Nov_03_1505,ProdSingRedoBetween,2021.2.3,59.93306668799621,
38,0,38,0,,,,,,,,,,,,,,,,,,,,,,,,,,1221.4209253997542,None,beginning,66,39,aloud,red,1219.4198074000888,None,None,1219.4198074000888,None,,,,,,,,,,,,,,,,,,,,,,,,,,,,,,,,,,,71 Aloud,001,2022_Nov_03_1505,ProdSingRedoBetween,2021.2.3,59.93306668799621,
39,0,39,0,,,,,,,,,,,,,,,,,,,,,,,,,,1223.9242337001488,None,brilliant,21,40,aloud,yellow,1221.9226715997793,None,None,1221.9226715997793,None,,,,,,,,,,,,,,,,,,,,,,,,,,,,,,,,,,,71 Aloud,001,2022_Nov_03_1505,ProdSingRedoBetween,2021.2.3,59.93306668799621,
40,0,40,0,,,,,,,,,,,,,,,,,,,,,,,,,,1226.4259060998447,None,smell,45,41,aloud,blue,1224.424827999901,None,None,1224.424827999901,None,,,,,,,,,,,,,,,,,,,,,,,,,,,,,,,,,,,71 Aloud,001,2022_Nov_03_1505,ProdSingRedoBetween,2021.2.3,59.93306668799621,
41,0,41,0,,,,,,,,,,,,,,,,,,,,,,,,,,1228.945024299901,None,evidence,8,42,aloud,yellow,1226.93260189984,None,None,1226.93260189984,None,,,,,,,,,,,,,,,,,,,,,,,,,,,,,,,,,,,71 Aloud,001,2022_Nov_03_1505,ProdSingRedoBetween,2021.2.3,59.93306668799621,
42,0,42,0,,,,,,,,,,,,,,,,,,,,,,,,,,1231.4475428001024,None,emergency,64,43,aloud,red,1229.4456060999073,None,None,1229.4456060999073,None,,,,,,,,,,,,,,,,,,,,,,,,,,,,,,,,,,,71 Aloud,001,2022_Nov_03_1505,ProdSingRedoBetween,2021.2.3,59.93306668799621,
43,0,43,0,,,,,,,,,,,,,,,,,,,,,,,,,,1233.9668477000669,None,fellow,26,44,aloud,yellow,1231.957474600058,None,None,1231.957474600058,None,,,,,,,,,,,,,,,,,,,,,,,,,,,,,,,,,,,71 Aloud,001,2022_Nov_03_1505,ProdSingRedoBetween,2021.2.3,59.93306668799621,
44,0,44,0,,,,,,,,,,,,,,,,,,,,,,,,,,1236.4692846001126,None,pancakes,60,45,aloud,red,1234.4672675998881,None,None,1234.4672675998881,None,,,,,,,,,,,,,,,,,,,,,,,,,,,,,,,,,,,71 Aloud,001,2022_Nov_03_1505,ProdSingRedoBetween,2021.2.3,59.93306668799621,
45,0,45,0,,,,,,,,,,,,,,,,,,,,,,,,,,1238.9885460999794,None,waste,61,46,aloud,red,1236.9733202997595,None,None,1236.9733202997595,None,,,,,,,,,,,,,,,,,,,,,,,,,,,,,,,,,,,71 Aloud,001,2022_Nov_03_1505,ProdSingRedoBetween,2021.2.3,59.93306668799621,
46,0,46,0,,,,,,,,,,,,,,,,,,,,,,,,,,1241.5076271998696,None,track,77,47,aloud,red,1239.4926521000452,None,None,1239.4926521000452,None,,,,,,,,,,,,,,,,,,,,,,,,,,,,,,,,,,,71 Aloud,001,2022_Nov_03_1505,ProdSingRedoBetween,2021.2.3,59.93306668799621,
47,0,47,0,,,,,,,,,,,,,,,,,,,,,,,,,,1244.0102474000305,None,medicine,10,48,aloud,yellow,1242.0093684000894,None,None,1242.0093684000894,None,,,,,,,,,,,,,,,,,,,,,,,,,,,,,,,,,,,71 Aloud,001,2022_Nov_03_1505,ProdSingRedoBetween,2021.2.3,59.93306668799621,
48,0,48,0,,,,,,,,,,,,,,,,,,,,,,,,,,1246.529341599904,None,stand,67,49,aloud,red,1244.516474999953,None,None,1244.516474999953,None,,,,,,,,,,,,,,,,,,,,,,,,,,,,,,,,,,,71 Aloud,001,2022_Nov_03_1505,ProdSingRedoBetween,2021.2.3,59.93306668799621,
49,0,49,0,,,,,,,,,,,,,,,,,,,,,,,,,,1249.0485410997644,None,mayor,3,50,aloud,yellow,1247.0343233998865,None,None,1247.0343233998865,None,,,,,,,,,,,,,,,,,,,,,,,,,,,,,,,,,,,71 Aloud,001,2022_Nov_03_1505,ProdSingRedoBetween,2021.2.3,59.93306668799621,
50,0,50,0,,,,,,,,,,,,,,,,,,,,,,,,,,1251.5510796997696,None,right,83,51,aloud,red,1249.5517331999727,None,None,1249.5517331999727,None,,,,,,,,,,,,,,,,,,,,,,,,,,,,,,,,,,,71 Aloud,001,2022_Nov_03_1505,ProdSingRedoBetween,2021.2.3,59.93306668799621,
51,0,51,0,,,,,,,,,,,,,,,,,,,,,,,,,,1254.053533299826,None,health,69,52,aloud,red,1252.0543899000622,None,None,1252.0543899000622,None,,,,,,,,,,,,,,,,,,,,,,,,,,,,,,,,,,,71 Aloud,001,2022_Nov_03_1505,ProdSingRedoBetween,2021.2.3,59.93306668799621,
52,0,52,0,,,,,,,,,,,,,,,,,,,,,,,,,,1256.5559955998324,None,committee,0,53,aloud,yellow,1254.5539822997525,None,None,1254.5539822997525,None,,,,,,,,,,,,,,,,,,,,,,,,,,,,,,,,,,,71 Aloud,001,2022_Nov_03_1505,ProdSingRedoBetween,2021.2.3,59.93306668799621,
53,0,53,0,,,,,,,,,,,,,,,,,,,,,,,,,,1259.0583390998654,None,pretty,76,54,aloud,red,1257.0591394999065,None,None,1257.0591394999065,None,,,,,,,,,,,,,,,,,,,,,,,,,,,,,,,,,,,71 Aloud,001,2022_Nov_03_1505,ProdSingRedoBetween,2021.2.3,59.93306668799621,
54,0,54,0,,,,,,,,,,,,,,,,,,,,,,,,,,1261.5777866998687,None,dozen,87,55,aloud,red,1259.5685641998425,None,None,1259.5685641998425,None,,,,,,,,,,,,,,,,,,,,,,,,,,,,,,,,,,,71 Aloud,001,2022_Nov_03_1505,ProdSingRedoBetween,2021.2.3,59.93306668799621,
55,0,55,0,,,,,,,,,,,,,,,,,,,,,,,,,,1264.0800278000534,None,height,20,56,aloud,yellow,1262.0778934000991,None,None,1262.0778934000991,None,,,,,,,,,,,,,,,,,,,,,,,,,,,,,,,,,,,71 Aloud,001,2022_Nov_03_1505,ProdSingRedoBetween,2021.2.3,59.93306668799621,
56,0,56,0,,,,,,,,,,,,,,,,,,,,,,,,,,1266.5824008001946,None,society,18,57,aloud,yellow,1264.5806554998271,None,None,1264.5806554998271,None,,,,,,,,,,,,,,,,,,,,,,,,,,,,,,,,,,,71 Aloud,001,2022_Nov_03_1505,ProdSingRedoBetween,2021.2.3,59.93306668799621,
57,0,57,0,,,,,,,,,,,,,,,,,,,,,,,,,,1269.101845299825,None,dream,42,58,aloud,blue,1267.087299999781,None,None,1267.087299999781,None,,,,,,,,,,,,,,,,,,,,,,,,,,,,,,,,,,,71 Aloud,001,2022_Nov_03_1505,ProdSingRedoBetween,2021.2.3,59.93306668799621,
58,0,58,0,,,,,,,,,,,,,,,,,,,,,,,,,,1271.6210535997525,None,substance,48,59,aloud,blue,1269.614450899884,None,None,1269.614450899884,None,,,,,,,,,,,,,,,,,,,,,,,,,,,,,,,,,,,71 Aloud,001,2022_Nov_03_1505,ProdSingRedoBetween,2021.2.3,59.93306668799621,
59,0,59,0,,,,,,,,,,,,,,,,,,,,,,,,,,1274.1234666001983,None,court,17,60,aloud,yellow,1272.1228757998906,None,None,1272.1228757998906,None,,,,,,,,,,,,,,,,,,,,,,,,,,,,,,,,,,,71 Aloud,001,2022_Nov_03_1505,ProdSingRedoBetween,2021.2.3,59.93306668799621,
60,0,60,0,,,,,,,,,,,,,,,,,,,,,,,,,,1276.6426702002063,None,fight,73,61,aloud,red,1274.630124299787,None,None,1274.630124299787,None,,,,,,,,,,,,,,,,,,,,,,,,,,,,,,,,,,,71 Aloud,001,2022_Nov_03_1505,ProdSingRedoBetween,2021.2.3,59.93306668799621,
61,0,61,0,,,,,,,,,,,,,,,,,,,,,,,,,,1279.145099400077,None,growth,25,62,aloud,yellow,1277.1450009997934,None,None,1277.1450009997934,None,,,,,,,,,,,,,,,,,,,,,,,,,,,,,,,,,,,71 Aloud,001,2022_Nov_03_1505,ProdSingRedoBetween,2021.2.3,59.93306668799621,
62,0,62,0,,,,,,,,,,,,,,,,,,,,,,,,,,1281.6476537999697,None,defeat,31,63,aloud,blue,1279.6482795998454,None,None,1279.6482795998454,None,,,,,,,,,,,,,,,,,,,,,,,,,,,,,,,,,,,71 Aloud,001,2022_Nov_03_1505,ProdSingRedoBetween,2021.2.3,59.93306668799621,
63,0,63,0,,,,,,,,,,,,,,,,,,,,,,,,,,1284.1667998000048,None,private,12,64,aloud,yellow,1282.1550893997774,None,None,1282.1550893997774,None,,,,,,,,,,,,,,,,,,,,,,,,,,,,,,,,,,,71 Aloud,001,2022_Nov_03_1505,ProdSingRedoBetween,2021.2.3,59.93306668799621,
64,0,64,0,,,,,,,,,,,,,,,,,,,,,,,,,,1286.6691590999253,None,finish,65,65,aloud,red,1284.6684391000308,None,None,1284.6684391000308,None,,,,,,,,,,,,,,,,,,,,,,,,,,,,,,,,,,,71 Aloud,001,2022_Nov_03_1505,ProdSingRedoBetween,2021.2.3,59.93306668799621,
65,0,65,0,,,,,,,,,,,,,,,,,,,,,,,,,,1289.188512899913,None,birth,15,66,aloud,yellow,1287.172625000123,None,None,1287.172625000123,None,,,,,,,,,,,,,,,,,,,,,,,,,,,,,,,,,,,71 Aloud,001,2022_Nov_03_1505,ProdSingRedoBetween,2021.2.3,59.93306668799621,
66,0,66,0,,,,,,,,,,,,,,,,,,,,,,,,,,1291.7077283998951,None,guard,70,67,aloud,red,1289.6991348001175,None,None,1289.6991348001175,None,,,,,,,,,,,,,,,,,,,,,,,,,,,,,,,,,,,71 Aloud,001,2022_Nov_03_1505,ProdSingRedoBetween,2021.2.3,59.93306668799621,
67,0,67,0,,,,,,,,,,,,,,,,,,,,,,,,,,1294.2113294000737,None,territory,59,68,aloud,yellow,1292.211187900044,None,None,1292.211187900044,None,,,,,,,,,,,,,,,,,,,,,,,,,,,,,,,,,,,71 Aloud,001,2022_Nov_03_1505,ProdSingRedoBetween,2021.2.3,59.93306668799621,
68,0,68,0,,,,,,,,,,,,,,,,,,,,,,,,,,1296.7127605001442,None,device,71,69,aloud,red,1294.71152719995,None,None,1294.71152719995,None,,,,,,,,,,,,,,,,,,,,,,,,,,,,,,,,,,,71 Aloud,001,2022_Nov_03_1505,ProdSingRedoBetween,2021.2.3,59.93306668799621,
69,0,69,0,,,,,,,,,,,,,,,,,,,,,,,,,,1299.2319219000638,None,welcome,30,70,aloud,blue,1297.2183929998428,None,None,1297.2183929998428,None,,,,,,,,,,,,,,,,,,,,,,,,,,,,,,,,,,,71 Aloud,001,2022_Nov_03_1505,ProdSingRedoBetween,2021.2.3,59.93306668799621,
70,0,70,0,,,,,,,,,,,,,,,,,,,,,,,,,,1301.7344484999776,None,range,23,71,aloud,yellow,1299.7320368001238,None,None,1299.7320368001238,None,,,,,,,,,,,,,,,,,,,,,,,,,,,,,,,,,,,71 Aloud,001,2022_Nov_03_1505,ProdSingRedoBetween,2021.2.3,59.93306668799621,
71,0,71,0,,,,,,,,,,,,,,,,,,,,,,,,,,1304.236852500122,None,permit,7,72,aloud,yellow,1302.2358101997524,None,None,1302.2358101997524,None,,,,,,,,,,,,,,,,,,,,,,,,,,,,,,,,,,,71 Aloud,001,2022_Nov_03_1505,ProdSingRedoBetween,2021.2.3,59.93306668799621,
72,0,72,0,,,,,,,,,,,,,,,,,,,,,,,,,,1306.7559846998192,None,suggestion,72,73,aloud,red,1304.7443373999558,None,None,1304.7443373999558,None,,,,,,,,,,,,,,,,,,,,,,,,,,,,,,,,,,,71 Aloud,001,2022_Nov_03_1505,ProdSingRedoBetween,2021.2.3,59.93306668799621,
73,0,73,0,,,,,,,,,,,,,,,,,,,,,,,,,,1309.2749101999216,None,express,39,74,aloud,blue,1307.2606866001152,None,None,1307.2606866001152,None,,,,,,,,,,,,,,,,,,,,,,,,,,,,,,,,,,,71 Aloud,001,2022_Nov_03_1505,ProdSingRedoBetween,2021.2.3,59.93306668799621,
74,0,74,0,,,,,,,,,,,,,,,,,,,,,,,,,,1311.7776605999097,None,narrow,56,75,aloud,blue,1309.7760975998826,None,None,1309.7760975998826,None,,,,,,,,,,,,,,,,,,,,,,,,,,,,,,,,,,,71 Aloud,001,2022_Nov_03_1505,ProdSingRedoBetween,2021.2.3,59.93306668799621,
75,0,75,0,,,,,,,,,,,,,,,,,,,,,,,,,,1314.2967515997589,None,silence,88,76,aloud,red,1312.2883824999444,None,None,1312.2883824999444,None,,,,,,,,,,,,,,,,,,,,,,,,,,,,,,,,,,,71 Aloud,001,2022_Nov_03_1505,ProdSingRedoBetween,2021.2.3,59.93306668799621,
76,0,76,0,,,,,,,,,,,,,,,,,,,,,,,,,,1316.7993658999912,None,empty,62,77,aloud,red,1314.7986881998368,None,None,1314.7986881998368,None,,,,,,,,,,,,,,,,,,,,,,,,,,,,,,,,,,,71 Aloud,001,2022_Nov_03_1505,ProdSingRedoBetween,2021.2.3,59.93306668799621,
77,0,77,0,,,,,,,,,,,,,,,,,,,,,,,,,,1319.3019282999448,None,citizen,4,78,aloud,yellow,1317.3020383999683,None,None,1317.3020383999683,None,,,,,,,,,,,,,,,,,,,,,,,,,,,,,,,,,,,71 Aloud,001,2022_Nov_03_1505,ProdSingRedoBetween,2021.2.3,59.93306668799621,
78,0,78,0,,,,,,,,,,,,,,,,,,,,,,,,,,1321.821084599942,None,thick,24,79,aloud,yellow,1319.809779800009,None,None,1319.809779800009,None,,,,,,,,,,,,,,,,,,,,,,,,,,,,,,,,,,,71 Aloud,001,2022_Nov_03_1505,ProdSingRedoBetween,2021.2.3,59.93306668799621,
79,0,79,0,,,,,,,,,,,,,,,,,,,,,,,,,,1324.323467799928,None,recall,43,80,aloud,blue,1322.3243407998234,None,None,1322.3243407998234,None,,,,,,,,,,,,,,,,,,,,,,,,,,,,,,,,,,,71 Aloud,001,2022_Nov_03_1505,ProdSingRedoBetween,2021.2.3,59.93306668799621,
80,0,80,0,,,,,,,,,,,,,,,,,,,,,,,,,,1326.8260788000189,None,little,38,81,aloud,blue,1324.8240891001187,None,None,1324.8240891001187,None,,,,,,,,,,,,,,,,,,,,,,,,,,,,,,,,,,,71 Aloud,001,2022_Nov_03_1505,ProdSingRedoBetween,2021.2.3,59.93306668799621,
81,0,81,0,,,,,,,,,,,,,,,,,,,,,,,,,,1329.328385999892,None,touch,16,82,aloud,yellow,1327.326506599784,None,None,1327.326506599784,None,,,,,,,,,,,,,,,,,,,,,,,,,,,,,,,,,,,71 Aloud,001,2022_Nov_03_1505,ProdSingRedoBetween,2021.2.3,59.93306668799621,
82,0,82,0,,,,,,,,,,,,,,,,,,,,,,,,,,1331.8310171999037,None,opening,79,83,aloud,red,1329.8295570001937,None,None,1329.8295570001937,None,,,,,,,,,,,,,,,,,,,,,,,,,,,,,,,,,,,71 Aloud,001,2022_Nov_03_1505,ProdSingRedoBetween,2021.2.3,59.93306668799621,
83,0,83,0,,,,,,,,,,,,,,,,,,,,,,,,,,1334.350184299983,None,account,32,84,aloud,blue,1332.340097299777,None,None,1332.340097299777,None,,,,,,,,,,,,,,,,,,,,,,,,,,,,,,,,,,,71 Aloud,001,2022_Nov_03_1505,ProdSingRedoBetween,2021.2.3,59.93306668799621,
84,0,84,0,,,,,,,,,,,,,,,,,,,,,,,,,,1336.852679700125,None,present,40,85,aloud,blue,1334.8519176999107,None,None,1334.8519176999107,None,,,,,,,,,,,,,,,,,,,,,,,,,,,,,,,,,,,71 Aloud,001,2022_Nov_03_1505,ProdSingRedoBetween,2021.2.3,59.93306668799621,
85,0,85,0,,,,,,,,,,,,,,,,,,,,,,,,,,1339.355278099887,None,passage,1,86,aloud,yellow,1337.3539860001765,None,None,1337.3539860001765,None,,,,,,,,,,,,,,,,,,,,,,,,,,,,,,,,,,,71 Aloud,001,2022_Nov_03_1505,ProdSingRedoBetween,2021.2.3,59.93306668799621,
86,0,86,0,,,,,,,,,,,,,,,,,,,,,,,,,,1341.874161500018,None,taste,80,87,aloud,red,1339.8591729998589,None,None,1339.8591729998589,None,,,,,,,,,,,,,,,,,,,,,,,,,,,,,,,,,,,71 Aloud,001,2022_Nov_03_1505,ProdSingRedoBetween,2021.2.3,59.93306668799621,
87,0,87,0,,,,,,,,,,,,,,,,,,,,,,,,,,1344.3768643001094,None,household,55,88,aloud,blue,1342.377621000167,None,None,1342.377621000167,None,,,,,,,,,,,,,,,,,,,,,,,,,,,,,,,,,,,71 Aloud,001,2022_Nov_03_1505,ProdSingRedoBetween,2021.2.3,59.93306668799621,
88,0,88,0,,,,,,,,,,,,,,,,,,,,,,,,,,1346.8791995001957,None,mechanical,13,89,aloud,yellow,1344.8775840997696,None,None,1344.8775840997696,None,,,,,,,,,,,,,,,,,,,,,,,,,,,,,,,,,,,71 Aloud,001,2022_Nov_03_1505,ProdSingRedoBetween,2021.2.3,59.93306668799621,
89,0,89,0,,,,,,,,,,,,,,,,,,,,,,,,,,1349.381954499986,None,breath,74,90,aloud,red,1347.3818419999443,None,None,1347.3818419999443,None,,,,,,,,,,,,,,,,,,,,,,,,,,,,,,,,,,,71 Aloud,001,2022_Nov_03_1505,ProdSingRedoBetween,2021.2.3,59.93306668799621,
,,,,,,,,,,,,,,,,,,,,,,,,,,,,,,,,,,,,,,,,,1349.8826594999991,None,k,214.0681186998263,1349.8826594999991,None,,,,,,,,,,,,,,,,,,,,,,,,,,,,,71 Aloud,001,2022_Nov_03_1505,ProdSingRedoBetween,2021.2.3,59.93306668799621,
,,,,0,0,0,0,,,,,,,,,,,,,,,,,,,,,,1576.275443200022,None,,,,,,,,,,,,,,,,,order,168,1,aloud,new,null,1564.487385599874,None,1564.487385599874,None,6,9.255323300138116,1564.487385599874,None,9.255323300138116,1573.7828656001948,None,1574.292100199964,None,1574.292100199964,None,r,1.9546679998748004,1574.292100199964,None,1.9546679998748004,,,71 Aloud,001,2022_Nov_03_1505,ProdSingRedoBetween,2021.2.3,59.93306668799621,
,,,,1,0,1,0,,,,,,,,,,,,,,,,,,,,,,1580.2286431998946,None,,,,,,,,,,,,,,,,,audience,167,2,aloud,new,null,1576.7799518001266,None,1576.7799518001266,None,6,1.8026350997388363,1576.7799518001266,None,1.8026350997388363,1578.611124199815,None,1579.110814999789,None,1579.110814999789,None,r,1.09599220007658,1579.110814999789,None,1.09599220007658,,,71 Aloud,001,2022_Nov_03_1505,ProdSingRedoBetween,2021.2.3,59.93306668799621,
,,,,2,0,2,0,,,,,,,,,,,,,,,,,,,,,,1583.069599099923,None,,,,,,,,,,,,,,,,,piece,110,3,aloud,new,null,1580.7405933998525,None,1580.7405933998525,None,6,1.6341961002908647,1580.7405933998525,None,1.6341961002908647,1582.3990151998587,None,1582.9148895000108,None,1582.9148895000108,None,r,0.12380450032651424,1582.9148895000108,None,0.12380450032651424,,,71 Aloud,001,2022_Nov_03_1505,ProdSingRedoBetween,2021.2.3,59.93306668799621,
,,,,3,0,3,0,,,,,,,,,,,,,,,,,,,,,,1585.8673883997835,None,,,,,,,,,,,,,,,,,still,27,4,aloud,old,yellow,1583.5820972998627,None,1583.5820972998627,None,6,1.5206789001822472,1583.5820972998627,None,1.5206789001822472,1585.1393948001787,None,1585.6510883998126,None,1585.6510883998126,None,r,0.1956451996229589,1585.6510883998126,None,0.1956451996229589,,,71 Aloud,001,2022_Nov_03_1505,ProdSingRedoBetween,2021.2.3,59.93306668799621,
,,,,4,0,4,0,,,,,,,,,,,,,,,,,,,,,,1588.3075846000575,None,,,,,,,,,,,,,,,,,population,175,5,aloud,new,null,1586.3829969000071,None,1586.3829969000071,None,6,1.119667099788785,1586.3829969000071,None,1.119667099788785,1587.5206781998277,None,1588.037104499992,None,1588.037104499992,None,r,0.24165680026635528,1588.037104499992,None,0.24165680026635528,,,71 Aloud,001,2022_Nov_03_1505,ProdSingRedoBetween,2021.2.3,59.93306668799621,
,,,,5,0,5,0,,,,,,,,,,,,,,,,,,,,,,1590.4556475998834,None,,,,,,,,,,,,,,,,,business,78,6,aloud,old,red,1588.8257078998722,None,1588.8257078998722,None,6,0.8530168998986483,1588.8257078998722,None,0.8530168998986483,1589.7069358997978,None,1590.2223155000247,None,1590.2223155000247,None,r,0.21628159983083606,1590.2223155000247,None,0.21628159983083606,,,71 Aloud,001,2022_Nov_03_1505,ProdSingRedoBetween,2021.2.3,59.93306668799621,
,,,,6,0,6,0,,,,,,,,,,,,,,,,,,,,,,1592.6588976997882,None,,,,,,,,,,,,,,,,,taste,80,7,aloud,old,red,1590.9607282001525,None,1590.9607282001525,None,6,0.9099404001608491,1590.9607282001525,None,0.9099404001608491,1591.8965186001733,None,1592.412561699748,None,1592.412561699748,None,r,0.21804700000211596,1592.412561699748,None,0.21804700000211596,,,71 Aloud,001,2022_Nov_03_1505,ProdSingRedoBetween,2021.2.3,59.93306668799621,
,,,,7,0,7,0,,,,,,,,,,,,,,,,,,,,,,1595.1435914998874,None,,,,,,,,,,,,,,,,,sunset,109,8,aloud,new,null,1593.1646111998707,None,1593.1646111998707,None,6,1.2422449002042413,1593.1646111998707,None,1.2422449002042413,1594.4341166000813,None,1594.943748800084,None,1594.943748800084,None,r,0.18284220015630126,1594.943748800084,None,0.18284220015630126,,,71 Aloud,001,2022_Nov_03_1505,ProdSingRedoBetween,2021.2.3,59.93306668799621,
,,,,8,0,8,0,,,,,,,,,,,,,,,,,,,,,,1597.2652714001015,None,,,,,,,,,,,,,,,,,exchange,117,9,aloud,new,null,1595.663713700138,None,1595.663713700138,None,6,0.8228485998697579,1595.663713700138,None,0.8228485998697579,1596.5160488998517,None,1597.0331657999195,None,1597.0331657999195,None,r,0.21351070003584027,1597.0331657999195,None,0.21351070003584027,,,71 Aloud,001,2022_Nov_03_1505,ProdSingRedoBetween,2021.2.3,59.93306668799621,
,,,,9,0,9,0,,,,,,,,,,,,,,,,,,,,,,1599.2477612998337,None,,,,,,,,,,,,,,,,,dream,42,10,aloud,old,blue,1597.7796240001917,None,1597.7796240001917,None,6,0.7948942999355495,1597.7796240001917,None,0.7948942999355495,1598.5974944997579,None,1599.097615600098,None,1599.097615600098,None,r,0.1330062998458743,1599.097615600098,None,0.1330062998458743,,,71 Aloud,001,2022_Nov_03_1505,ProdSingRedoBetween,2021.2.3,59.93306668799621,
,,,,10,0,10,0,,,,,,,,,,,,,,,,,,,,,,1601.1199010000564,None,,,,,,,,,,,,,,,,,display,86,11,aloud,old,red,1599.7524131000973,None,1599.7524131000973,None,6,0.750080100260675,1599.7524131000973,None,0.750080100260675,1600.5356164998375,None,1601.0524877998978,None,1601.0524877998978,None,r,0.04241380002349615,1601.0524877998978,None,0.04241380002349615,,,71 Aloud,001,2022_Nov_03_1505,ProdSingRedoBetween,2021.2.3,59.93306668799621,
,,,,11,0,11,0,,,,,,,,,,,,,,,,,,,,,,1603.018187600188,None,,,,,,,,,,,,,,,,,universal,75,12,aloud,old,red,1601.645508099813,None,1601.645508099813,None,6,0.7610500999726355,1601.645508099813,None,0.7610500999726355,1602.438881999813,None,1602.9554767999798,None,1602.9554767999798,None,r,0.043130300007760525,1602.9554767999798,None,0.043130300007760525,,,71 Aloud,001,2022_Nov_03_1505,ProdSingRedoBetween,2021.2.3,59.93306668799621,
,,,,12,0,12,0,,,,,,,,,,,,,,,,,,,,,,1606.1212674998678,None,,,,,,,,,,,,,,,,,committee,0,13,aloud,old,yellow,1603.526169099845,None,1603.526169099845,None,6,0.7284001000225544,1603.526169099845,None,0.7284001000225544,1604.2993128998205,None,1604.8033182998188,None,1604.8033182998188,None,r,1.2993064001202583,1604.8033182998188,None,1.2993064001202583,,,71 Aloud,001,2022_Nov_03_1505,ProdSingRedoBetween,2021.2.3,59.93306668799621,
,,,,13,0,13,0,,,,,,,,,,,,,,,,,,,,,,1609.0074120000936,None,,,,,,,,,,,,,,,,,reading,123,14,aloud,new,null,1606.635128099937,None,1606.635128099937,None,6,1.4115893999114633,1606.635128099937,None,1.4115893999114633,1608.080823900178,None,1608.5949527998455,None,1608.5949527998455,None,r,0.38762900000438094,1608.5949527998455,None,0.38762900000438094,,,71 Aloud,001,2022_Nov_03_1505,ProdSingRedoBetween,2021.2.3,59.93306668799621,
,,,,14,0,14,0,,,,,,,,,,,,,,,,,,,,,,1611.643375699874,None,,,,,,,,,,,,,,,,,staff,84,15,aloud,old,red,1609.5133664999157,None,1609.5133664999157,None,6,1.5332725001499057,1609.5133664999157,None,1.5332725001499057,1611.0761808999814,None,1611.576752500143,None,1611.576752500143,None,r,0.045879899989813566,1611.576752500143,None,0.045879899989813566,,,71 Aloud,001,2022_Nov_03_1505,ProdSingRedoBetween,2021.2.3,59.93306668799621,
,,,,15,0,15,0,,,,,,,,,,,,,,,,,,,,,,1614.0792824998498,None,,,,,,,,,,,,,,,,,dozen,87,16,aloud,old,red,1612.1508673997596,None,1612.1508673997596,None,6,0.7438526996411383,1612.1508673997596,None,0.7438526996411383,1612.9132805997506,None,1613.4359368998557,None,1613.4359368998557,None,r,0.6267412998713553,1613.4359368998557,None,0.6267412998713553,,,71 Aloud,001,2022_Nov_03_1505,ProdSingRedoBetween,2021.2.3,59.93306668799621,
,,,,16,0,16,0,,,,,,,,,,,,,,,,,,,,,,1616.0811497997493,None,,,,,,,,,,,,,,,,,position,145,17,aloud,new,null,1614.5828105998226,None,1614.5828105998226,None,6,0.7038223999552429,1614.5828105998226,None,0.7038223999552429,1615.3195580998436,None,1615.8351810998283,None,1615.8351810998283,None,r,0.2193439002148807,1615.8351810998283,None,0.2193439002148807,,,71 Aloud,001,2022_Nov_03_1505,ProdSingRedoBetween,2021.2.3,59.93306668799621,
,,,,17,0,17,0,,,,,,,,,,,,,,,,,,,,,,1618.1500284997746,None,,,,,,,,,,,,,,,,,sight,46,18,aloud,old,blue,1616.5914982999675,None,1616.5914982999675,None,6,0.7992364000529051,1616.5914982999675,None,0.7992364000529051,1617.421153999865,None,1617.9413256999105,None,1617.9413256999105,None,r,0.18533149966970086,1617.9413256999105,None,0.18533149966970086,,,71 Aloud,001,2022_Nov_03_1505,ProdSingRedoBetween,2021.2.3,59.93306668799621,
,,,,18,0,18,0,,,,,,,,,,,,,,,,,,,,,,1620.372089699842,None,,,,,,,,,,,,,,,,,space,119,19,aloud,new,null,1618.6530185998417,None,1618.6530185998417,None,6,0.8495499002747238,1618.6530185998417,None,0.8495499002747238,1619.5212689000182,None,1620.0389767000452,None,1620.0389767000452,None,r,0.30372759979218245,1620.0389767000452,None,0.30372759979218245,,,71 Aloud,001,2022_Nov_03_1505,ProdSingRedoBetween,2021.2.3,59.93306668799621,
,,,,19,0,19,0,,,,,,,,,,,,,,,,,,,,,,1624.0724002001807,None,,,,,,,,,,,,,,,,,provision,47,20,aloud,old,blue,1620.8931627999991,None,1620.8931627999991,None,4,1.7054239003919065,1620.8931627999991,None,1.7054239003919065,1622.6257965001278,None,1623.1383643001318,None,1623.1383643001318,None,f,0.9082289002835751,1623.1383643001318,None,0.9082289002835751,,,71 Aloud,001,2022_Nov_03_1505,ProdSingRedoBetween,2021.2.3,59.93306668799621,
,,,,20,0,20,0,,,,,,,,,,,,,,,,,,,,,,1627.3590909000486,None,,,,,,,,,,,,,,,,,frank,132,21,aloud,new,null,1624.5873321997933,None,1624.5873321997933,None,6,1.635281200055033,1624.5873321997933,None,1.635281200055033,1626.245633199811,None,1626.7585733002052,None,1626.7585733002052,None,r,0.5839660000056028,1626.7585733002052,None,0.5839660000056028,,,71 Aloud,001,2022_Nov_03_1505,ProdSingRedoBetween,2021.2.3,59.93306668799621,
,,,,21,0,21,0,,,,,,,,,,,,,,,,,,,,,,1629.446660200134,None,,,,,,,,,,,,,,,,,society,18,22,aloud,old,yellow,1627.8724953001365,None,1627.8724953001365,None,6,0.7582431002520025,1627.8724953001365,None,0.7582431002520025,1628.6755320001394,None,1629.1797139998525,None,1629.1797139998525,None,r,0.23511390015482903,1629.1797139998525,None,0.23511390015482903,,,71 Aloud,001,2022_Nov_03_1505,ProdSingRedoBetween,2021.2.3,59.93306668799621,
,,,,22,0,22,0,,,,,,,,,,,,,,,,,,,,,,1631.2963116997853,None,,,,,,,,,,,,,,,,,birth,15,23,aloud,old,yellow,1629.9632815998048,None,1629.9632815998048,None,6,0.7551941000856459,1629.9632815998048,None,0.7551941000856459,1630.7464749999344,None,1631.2481674998999,None,1631.2481674998999,None,r,0.022511899936944246,1631.2481674998999,None,0.022511899936944246,,,71 Aloud,001,2022_Nov_03_1505,ProdSingRedoBetween,2021.2.3,59.93306668799621,
,,,,23,0,23,0,,,,,,,,,,,,,,,,,,,,,,1633.6651380998082,None,,,,,,,,,,,,,,,,,debate,139,24,aloud,new,null,1631.8028510999866,None,1631.8028510999866,None,6,0.8678767997771502,1631.8028510999866,None,0.8678767997771502,1632.7008054000326,None,1633.2163963997737,None,1633.2163963997737,None,r,0.4221823001280427,1633.2163963997737,None,0.4221823001280427,,,71 Aloud,001,2022_Nov_03_1505,ProdSingRedoBetween,2021.2.3,59.93306668799621,
,,,,24,0,24,0,,,,,,,,,,,,,,,,,,,,,,1635.7508409000002,None,,,,,,,,,,,,,,,,,direction,143,25,aloud,new,null,1634.1664237999357,None,1634.1664237999357,None,6,0.84806999983266,1634.1664237999357,None,0.84806999983266,1635.03349039983,None,1635.5337939998135,None,1635.5337939998135,None,r,0.19274889957159758,1635.5337939998135,None,0.19274889957159758,,,71 Aloud,001,2022_Nov_03_1505,ProdSingRedoBetween,2021.2.3,59.93306668799621,
,,,,25,0,25,0,,,,,,,,,,,,,,,,,,,,,,1637.8944548000582,None,,,,,,,,,,,,,,,,,substance,48,26,aloud,old,blue,1636.263733500149,None,1636.263733500149,None,6,0.8547562002204359,1636.263733500149,None,0.8547562002204359,1637.138973900117,None,1637.6605619001202,None,1637.6605619001202,None,r,0.20227309968322515,1637.6605619001202,None,0.20227309968322515,,,71 Aloud,001,2022_Nov_03_1505,ProdSingRedoBetween,2021.2.3,59.93306668799621,
,,,,26,0,26,0,,,,,,,,,,,,,,,,,,,,,,1640.7557570999488,None,,,,,,,,,,,,,,,,,blind,54,27,aloud,old,blue,1638.4089457001537,None,1638.4089457001537,None,6,1.0775838997215033,1638.4089457001537,None,1.0775838997215033,1639.5076639000326,None,1640.0237961001694,None,1640.0237961001694,None,r,0.7107400000095367,1640.0237961001694,None,0.7107400000095367,,,71 Aloud,001,2022_Nov_03_1505,ProdSingRedoBetween,2021.2.3,59.93306668799621,
,,,,27,0,27,0,,,,,,,,,,,,,,,,,,,,,,1642.824161999859,None,,,,,,,,,,,,,,,,,appearance,81,28,aloud,old,red,1641.266995899845,None,1641.266995899845,None,6,0.731553299818188,1641.266995899845,None,0.731553299818188,1642.0328577999026,None,1642.5437660999596,None,1642.5437660999596,None,r,0.2626709002070129,1642.5437660999596,None,0.2626709002070129,,,71 Aloud,001,2022_Nov_03_1505,ProdSingRedoBetween,2021.2.3,59.93306668799621,
,,,,28,0,28,0,,,,,,,,,,,,,,,,,,,,,,1644.8766264999285,None,,,,,,,,,,,,,,,,,second,118,29,aloud,new,null,1643.3317217999138,None,1643.3317217999138,None,6,0.7787823998369277,1643.3317217999138,None,0.7787823998369277,1644.127361400053,None,1644.646239799913,None,1644.646239799913,None,r,0.2003035000525415,1644.646239799913,None,0.2003035000525415,,,71 Aloud,001,2022_Nov_03_1505,ProdSingRedoBetween,2021.2.3,59.93306668799621,
,,,,29,0,29,0,,,,,,,,,,,,,,,,,,,,,,1647.251984700095,None,,,,,,,,,,,,,,,,,swift,140,30,aloud,new,null,1645.390623100102,None,1645.390623100102,None,6,1.0319326999597251,1645.390623100102,None,1.0319326999597251,1646.4468924999237,None,1646.9653369002044,None,1646.9653369002044,None,r,0.2653274000622332,1646.9653369002044,None,0.2653274000622332,,,71 Aloud,001,2022_Nov_03_1505,ProdSingRedoBetween,2021.2.3,59.93306668799621,
,,,,30,0,30,0,,,,,,,,,,,,,,,,,,,,,,1649.3810535999946,None,,,,,,,,,,,,,,,,,minute,108,31,aloud,new,null,1647.7739891000092,None,1647.7739891000092,None,6,0.8404564997181296,1647.7739891000092,None,0.8404564997181296,1648.6313267997466,None,1649.1361064999364,None,1649.1361064999364,None,r,0.2223608000203967,1649.1361064999364,None,0.2223608000203967,,,71 Aloud,001,2022_Nov_03_1505,ProdSingRedoBetween,2021.2.3,59.93306668799621,
,,,,31,0,31,0,,,,,,,,,,,,,,,,,,,,,,1651.4830912998877,None,,,,,,,,,,,,,,,,,mayor,3,32,aloud,old,yellow,1649.8902839999646,None,1649.8902839999646,None,6,0.8202490000985563,1649.8902839999646,None,0.8202490000985563,1650.733306299895,None,1651.2361579001881,None,1651.2361579001881,None,r,0.22646200004965067,1651.2361579001881,None,0.22646200004965067,,,71 Aloud,001,2022_Nov_03_1505,ProdSingRedoBetween,2021.2.3,59.93306668799621,
,,,,32,0,32,0,,,,,,,,,,,,,,,,,,,,,,1653.5691502001137,None,,,,,,,,,,,,,,,,,surface,161,33,aloud,new,null,1651.9926018998958,None,1651.9926018998958,None,6,0.7898609000258148,1651.9926018998958,None,0.7898609000258148,1652.8024411997758,None,1653.309683999978,None,1653.309683999978,None,r,0.23286940017715096,1653.309683999978,None,0.23286940017715096,,,71 Aloud,001,2022_Nov_03_1505,ProdSingRedoBetween,2021.2.3,59.93306668799621,
,,,,33,0,33,0,,,,,,,,,,,,,,,,,,,,,,1655.5705399997532,None,,,,,,,,,,,,,,,,,sleep,90,34,aloud,new,null,1654.0725647998042,None,1654.0725647998042,None,6,0.8219424998387694,1654.0725647998042,None,0.8219424998387694,1654.924076799769,None,1655.436941599939,None,1655.436941599939,None,r,0.1136780995875597,1655.436941599939,None,0.1136780995875597,,,71 Aloud,001,2022_Nov_03_1505,ProdSingRedoBetween,2021.2.3,59.93306668799621,
,,,,34,0,34,0,,,,,,,,,,,,,,,,,,,,,,1657.6559868999757,None,,,,,,,,,,,,,,,,,working,165,35,aloud,new,null,1656.0750620998442,None,1656.0750620998442,None,6,0.7555768000893295,1656.0750620998442,None,0.7555768000893295,1656.8578157001175,None,1657.3777835997753,None,1657.3777835997753,None,r,0.2606886997818947,1657.3777835997753,None,0.2606886997818947,,,71 Aloud,001,2022_Nov_03_1505,ProdSingRedoBetween,2021.2.3,59.93306668799621,
,,,,35,0,35,0,,,,,,,,,,,,,,,,,,,,,,1659.307780600153,None,,,,,,,,,,,,,,,,,medicine,10,36,aloud,old,yellow,1658.1654090001248,None,1658.1654090001248,None,6,0.5049632000736892,1658.1654090001248,None,0.5049632000736892,1658.69104960002,None,1659.190748100169,None,1659.190748100169,None,r,0.09566770028322935,1659.190748100169,None,0.09566770028322935,,,71 Aloud,001,2022_Nov_03_1505,ProdSingRedoBetween,2021.2.3,59.93306668799621,
,,,,36,0,36,0,,,,,,,,,,,,,,,,,,,,,,1661.4785373997875,None,,,,,,,,,,,,,,,,,curve,102,37,aloud,new,null,1659.8085338999517,None,1659.8085338999517,None,6,0.677861999720335,1659.8085338999517,None,0.677861999720335,1660.5126461000182,None,1661.0304800001904,None,1661.0304800001904,None,r,0.4240665999241173,1661.0304800001904,None,0.4240665999241173,,,71 Aloud,001,2022_Nov_03_1505,ProdSingRedoBetween,2021.2.3,59.93306668799621,
,,,,37,0,37,0,,,,,,,,,,,,,,,,,,,,,,1663.8124059000984,None,,,,,,,,,,,,,,,,,clean,91,38,aloud,new,null,1661.9937367001548,None,1661.9937367001548,None,6,1.0127945998683572,1661.9937367001548,None,1.0127945998683572,1663.0301727000624,None,1663.5519921998493,None,1663.5519921998493,None,r,0.23842089995741844,1663.5519921998493,None,0.23842089995741844,,,71 Aloud,001,2022_Nov_03_1505,ProdSingRedoBetween,2021.2.3,59.93306668799621,
,,,,38,0,38,0,,,,,,,,,,,,,,,,,,,,,,1665.797361199744,None,,,,,,,,,,,,,,,,,guest,138,39,aloud,new,null,1664.317513300106,None,1664.317513300106,None,6,0.6969991996884346,1664.317513300106,None,0.6969991996884346,1665.0320414002053,None,1665.5522002000362,None,1665.5522002000362,None,r,0.21431059995666146,1665.5522002000362,None,0.21431059995666146,,,71 Aloud,001,2022_Nov_03_1505,ProdSingRedoBetween,2021.2.3,59.93306668799621,
,,,,39,0,39,0,,,,,,,,,,,,,,,,,,,,,,1667.6505840998143,None,,,,,,,,,,,,,,,,,empty,62,40,aloud,old,red,1666.306491999887,None,1666.306491999887,None,6,0.6200569001957774,1666.306491999887,None,0.6200569001957774,1666.9535038000904,None,1667.470782800112,None,1667.470782800112,None,r,0.15980330016463995,1667.470782800112,None,0.15980330016463995,,,71 Aloud,001,2022_Nov_03_1505,ProdSingRedoBetween,2021.2.3,59.93306668799621,
,,,,40,0,40,0,,,,,,,,,,,,,,,,,,,,,,1669.435842299834,None,,,,,,,,,,,,,,,,,breath,74,41,aloud,old,red,1668.1538912001997,None,1668.1538912001997,None,6,0.4926051003858447,1668.1538912001997,None,0.4926051003858447,1668.6686867000535,None,1669.18587019993,None,1669.18587019993,None,r,0.22061030007898808,1669.18587019993,None,0.22061030007898808,,,71 Aloud,001,2022_Nov_03_1505,ProdSingRedoBetween,2021.2.3,59.93306668799621,
,,,,41,0,41,0,,,,,,,,,,,,,,,,,,,,,,1671.27097029984,None,,,,,,,,,,,,,,,,,pancakes,60,42,aloud,old,red,1669.9468614999205,None,1669.9468614999205,None,6,0.5158071997575462,1669.9468614999205,None,0.5158071997575462,1670.494898899924,None,1671.0079908999614,None,1671.0079908999614,None,r,0.23052799981087446,1671.0079908999614,None,0.23052799981087446,,,71 Aloud,001,2022_Nov_03_1505,ProdSingRedoBetween,2021.2.3,59.93306668799621,
,,,,42,0,42,0,,,,,,,,,,,,,,,,,,,,,,1673.2548361001536,None,,,,,,,,,,,,,,,,,account,32,43,aloud,old,blue,1671.771659300197,None,1671.771659300197,None,6,0.6909477999433875,1671.771659300197,None,0.6909477999433875,1672.4944116999395,None,1673.0045472998172,None,1673.0045472998172,None,r,0.2339635998941958,1673.0045472998172,None,0.2339635998941958,,,71 Aloud,001,2022_Nov_03_1505,ProdSingRedoBetween,2021.2.3,59.93306668799621,
,,,,43,0,43,0,,,,,,,,,,,,,,,,,,,,,,1675.1731998999603,None,,,,,,,,,,,,,,,,,emergency,64,44,aloud,old,red,1673.7646638001315,None,1673.7646638001315,None,6,0.6098989997990429,1673.7646638001315,None,0.6098989997990429,1674.398775599897,None,1674.9110073000193,None,1674.9110073000193,None,r,0.23949170019477606,1674.9110073000193,None,0.23949170019477606,,,71 Aloud,001,2022_Nov_03_1505,ProdSingRedoBetween,2021.2.3,59.93306668799621,
,,,,44,0,44,0,,,,,,,,,,,,,,,,,,,,,,1677.1254072999582,None,,,,,,,,,,,,,,,,,majority,107,45,aloud,new,null,1675.6818702002056,None,1675.6818702002056,None,6,0.6366133997216821,1675.6818702002056,None,0.6366133997216821,1676.3415795997716,None,1676.8424673997797,None,1676.8424673997797,None,r,0.2519573997706175,1676.8424673997797,None,0.2519573997706175,,,71 Aloud,001,2022_Nov_03_1505,ProdSingRedoBetween,2021.2.3,59.93306668799621,
,,,,45,0,45,0,,,,,,,,,,,,,,,,,,,,,,1679.1161413001828,None,,,,,,,,,,,,,,,,,passage,1,46,aloud,old,yellow,1677.6384764001705,None,1677.6384764001705,None,6,0.688177099917084,1677.6384764001705,None,0.688177099917084,1678.355602900032,None,1678.8634039000608,None,1678.8634039000608,None,r,0.23105250019580126,1678.8634039000608,None,0.23105250019580126,,,71 Aloud,001,2022_Nov_03_1505,ProdSingRedoBetween,2021.2.3,59.93306668799621,
,,,,46,0,46,0,,,,,,,,,,,,,,,,,,,,,,1681.1961178998463,None,,,,,,,,,,,,,,,,,poetry,164,47,aloud,new,null,1679.6361670000479,None,1679.6361670000479,None,6,0.7543079000897706,1679.6361670000479,None,0.7543079000897706,1680.4153217999265,None,1680.9292063000612,None,1680.9292063000612,None,r,0.24528930010274053,1680.9292063000612,None,0.24528930010274053,,,71 Aloud,001,2022_Nov_03_1505,ProdSingRedoBetween,2021.2.3,59.93306668799621,
,,,,47,0,47,0,,,,,,,,,,,,,,,,,,,,,,1683.18151080003,None,,,,,,,,,,,,,,,,,question,34,48,aloud,old,blue,1681.721961400006,None,1681.721961400006,None,6,0.6365708997473121,1681.721961400006,None,0.6365708997473121,1682.385802200064,None,1682.9047968001105,None,1682.9047968001105,None,r,0.25368079962208867,1682.9047968001105,None,0.25368079962208867,,,71 Aloud,001,2022_Nov_03_1505,ProdSingRedoBetween,2021.2.3,59.93306668799621,
,,,,48,0,48,0,,,,,,,,,,,,,,,,,,,,,,1685.5336572998203,None,,,,,,,,,,,,,,,,,territory,59,49,aloud,old,yellow,1683.683402299881,None,1683.683402299881,None,6,1.0189531999640167,1683.683402299881,None,1.0189531999640167,1684.7345153000206,None,1685.250161900185,None,1685.250161900185,None,r,0.2603305000811815,1685.250161900185,None,0.2603305000811815,,,71 Aloud,001,2022_Nov_03_1505,ProdSingRedoBetween,2021.2.3,59.93306668799621,
,,,,49,0,49,0,,,,,,,,,,,,,,,,,,,,,,1687.7191802999005,None,,,,,,,,,,,,,,,,,motion,29,50,aloud,old,blue,1686.0417741998099,None,1686.0417741998099,None,6,0.812735800165683,1686.0417741998099,None,0.812735800165683,1686.889561300166,None,1687.4057180997916,None,1687.4057180997916,None,r,0.2968280999921262,1687.4057180997916,None,0.2968280999921262,,,71 Aloud,001,2022_Nov_03_1505,ProdSingRedoBetween,2021.2.3,59.93306668799621,
,,,,50,0,50,0,,,,,,,,,,,,,,,,,,,,,,1689.9566541998647,None,,,,,,,,,,,,,,,,,goose,177,51,aloud,new,null,1688.2239080998115,None,1688.2239080998115,None,6,0.8866566000506282,1688.2239080998115,None,0.8866566000506282,1689.1429003998637,None,1689.6737640998326,None,1689.6737640998326,None,r,0.25260489992797375,1689.6737640998326,None,0.25260489992797375,,,71 Aloud,001,2022_Nov_03_1505,ProdSingRedoBetween,2021.2.3,59.93306668799621,
,,,,51,0,51,0,,,,,,,,,,,,,,,,,,,,,,1692.0735876997933,None,,,,,,,,,,,,,,,,,pattern,100,52,aloud,new,null,1690.4720215001144,None,1690.4720215001144,None,6,0.7904142998158932,1690.4720215001144,None,0.7904142998158932,1691.289892199915,None,1691.7933876998723,None,1691.7933876998723,None,r,0.26107680005952716,1691.7933876998723,None,0.26107680005952716,,,71 Aloud,001,2022_Nov_03_1505,ProdSingRedoBetween,2021.2.3,59.93306668799621,
,,,,52,0,52,0,,,,,,,,,,,,,,,,,,,,,,1694.1756436000578,None,,,,,,,,,,,,,,,,,plane,111,53,aloud,new,null,1692.585283999797,None,1692.585283999797,None,6,0.7572051999159157,1692.585283999797,None,0.7572051999159157,1693.363824899774,None,1693.8758876998909,None,1693.8758876998909,None,r,0.27461620001122355,1693.8758876998909,None,0.27461620001122355,,,71 Aloud,001,2022_Nov_03_1505,ProdSingRedoBetween,2021.2.3,59.93306668799621,
,,,,53,0,53,0,,,,,,,,,,,,,,,,,,,,,,1696.3942728000693,None,,,,,,,,,,,,,,,,,patient,141,54,aloud,new,null,1694.6892269998789,None,1694.6892269998789,None,6,0.9174064001999795,1694.6892269998789,None,0.9174064001999795,1695.6274131000973,None,1696.130890800152,None,1696.130890800152,None,r,0.243497499730438,1696.130890800152,None,0.243497499730438,,,71 Aloud,001,2022_Nov_03_1505,ProdSingRedoBetween,2021.2.3,59.93306668799621,
,,,,54,0,54,0,,,,,,,,,,,,,,,,,,,,,,1698.413396799937,None,,,,,,,,,,,,,,,,,public,11,55,aloud,old,yellow,1696.9018076001666,None,1696.9018076001666,None,6,0.7285766000859439,1696.9018076001666,None,0.7285766000859439,1697.6472276998684,None,1698.1498309997842,None,1698.1498309997842,None,r,0.24061130033805966,1698.1498309997842,None,0.24061130033805966,,,71 Aloud,001,2022_Nov_03_1505,ProdSingRedoBetween,2021.2.3,59.93306668799621,
,,,,55,0,55,0,,,,,,,,,,,,,,,,,,,,,,1700.4318882999942,None,,,,,,,,,,,,,,,,,express,39,56,aloud,old,blue,1698.9203412001953,None,1698.9203412001953,None,6,0.678094600327313,1698.9203412001953,None,0.678094600327313,1699.6182531001978,None,1700.1317741000094,None,1700.1317741000094,None,r,0.2746971999295056,1700.1317741000094,None,0.2746971999295056,,,71 Aloud,001,2022_Nov_03_1505,ProdSingRedoBetween,2021.2.3,59.93306668799621,
,,,,56,0,56,0,,,,,,,,,,,,,,,,,,,,,,1702.483964299783,None,,,,,,,,,,,,,,,,,alert,37,57,aloud,old,blue,1700.9326034998521,None,1700.9326034998521,None,6,0.7618507002480328,1700.9326034998521,None,0.7618507002480328,1701.7163498997688,None,1702.222176599782,None,1702.222176599782,None,r,0.24035159964114428,1702.222176599782,None,0.24035159964114428,,,71 Aloud,001,2022_Nov_03_1505,ProdSingRedoBetween,2021.2.3,59.93306668799621,
,,,,57,0,57,0,,,,,,,,,,,,,,,,,,,,,,1704.6860639997758,None,,,,,,,,,,,,,,,,,error,112,58,aloud,new,null,1702.9991263998672,None,1702.9991263998672,None,6,0.8473517000675201,1702.9991263998672,None,0.8473517000675201,1703.8728776001371,None,1704.3860602998175,None,1704.3860602998175,None,r,0.2684297002851963,1704.3860602998175,None,0.2684297002851963,,,71 Aloud,001,2022_Nov_03_1505,ProdSingRedoBetween,2021.2.3,59.93306668799621,
,,,,58,0,58,0,,,,,,,,,,,,,,,,,,,,,,1706.8735643997788,None,,,,,,,,,,,,,,,,,health,69,59,aloud,old,red,1705.1895665000193,None,1705.1895665000193,None,6,0.8968146000988781,1705.1895665000193,None,0.8968146000988781,1706.106932700146,None,1706.6253975001164,None,1706.6253975001164,None,r,0.22900870023295283,1706.6253975001164,None,0.22900870023295283,,,71 Aloud,001,2022_Nov_03_1505,ProdSingRedoBetween,2021.2.3,59.93306668799621,
,,,,59,0,59,0,,,,,,,,,,,,,,,,,,,,,,1708.973677800037,None,,,,,,,,,,,,,,,,,youth,2,60,aloud,old,yellow,1707.4085564999841,None,1707.4085564999841,None,6,0.7339065000414848,1707.4085564999841,None,0.7339065000414848,1708.1811426999047,None,1708.6923485998996,None,1708.6923485998996,None,r,0.25010970002040267,1708.6923485998996,None,0.25010970002040267,,,71 Aloud,001,2022_Nov_03_1505,ProdSingRedoBetween,2021.2.3,59.93306668799621,
,,,,60,0,60,0,,,,,,,,,,,,,,,,,,,,,,1711.0926669999026,None,,,,,,,,,,,,,,,,,country,178,61,aloud,new,null,1709.4823048999533,None,1709.4823048999533,None,6,0.7482531000860035,1709.4823048999533,None,0.7482531000860035,1710.264653999824,None,1710.7760931001976,None,1710.7760931001976,None,r,0.286234799772501,1710.7760931001976,None,0.286234799772501,,,71 Aloud,001,2022_Nov_03_1505,ProdSingRedoBetween,2021.2.3,59.93306668799621,
,,,,61,0,61,0,,,,,,,,,,,,,,,,,,,,,,1713.0778016000986,None,,,,,,,,,,,,,,,,,council,85,62,aloud,old,red,1711.5936421998776,None,1711.5936421998776,None,6,0.6448935996741056,1711.5936421998776,None,0.6448935996741056,1712.261312799994,None,1712.7637976999395,None,1712.7637976999395,None,r,0.2986143999733031,1712.7637976999395,None,0.2986143999733031,,,71 Aloud,001,2022_Nov_03_1505,ProdSingRedoBetween,2021.2.3,59.93306668799621,
,,,,62,0,62,0,,,,,,,,,,,,,,,,,,,,,,1715.1632710997947,None,,,,,,,,,,,,,,,,,guard,70,63,aloud,old,red,1713.580556999892,None,1713.580556999892,None,6,0.8020395999774337,1713.580556999892,None,0.8020395999774337,1714.4131680000573,None,1714.9153084000573,None,1714.9153084000573,None,r,0.2271225000731647,1714.9153084000573,None,0.2271225000731647,,,71 Aloud,001,2022_Nov_03_1505,ProdSingRedoBetween,2021.2.3,59.93306668799621,
,,,,63,0,63,0,,,,,,,,,,,,,,,,,,,,,,1717.367051600013,None,,,,,,,,,,,,,,,,,native,19,64,aloud,old,yellow,1715.6802344000898,None,1715.6802344000898,None,6,0.8623224999755621,1715.6802344000898,None,0.8623224999755621,1716.5771794999018,None,1717.0854691001587,None,1717.0854691001587,None,r,0.24911070009693503,1717.0854691001587,None,0.24911070009693503,,,71 Aloud,001,2022_Nov_03_1505,ProdSingRedoBetween,2021.2.3,59.93306668799621,
,,,,64,0,64,0,,,,,,,,,,,,,,,,,,,,,,1719.8361435001716,None,,,,,,,,,,,,,,,,,collection,101,65,aloud,new,null,1717.884653000161,None,1717.884653000161,None,6,1.162086599972099,1717.884653000161,None,1.162086599972099,1719.0809264001437,None,1719.5845546000637,None,1719.5845546000637,None,r,0.22981210006400943,1719.5845546000637,None,0.22981210006400943,,,71 Aloud,001,2022_Nov_03_1505,ProdSingRedoBetween,2021.2.3,59.93306668799621,
,,,,65,0,65,0,,,,,,,,,,,,,,,,,,,,,,1721.8366475999355,None,,,,,,,,,,,,,,,,,notice,44,66,aloud,old,blue,1720.351717500016,None,1720.351717500016,None,6,0.6547055998817086,1720.351717500016,None,0.6547055998817086,1721.0363305998035,None,1721.539342300035,None,1721.539342300035,None,r,0.26719600008800626,1721.539342300035,None,0.26719600008800626,,,71 Aloud,001,2022_Nov_03_1505,ProdSingRedoBetween,2021.2.3,59.93306668799621,
,,,,66,0,66,0,,,,,,,,,,,,,,,,,,,,,,1724.1889494000934,None,,,,,,,,,,,,,,,,,estate,155,67,aloud,new,null,1722.3402201998979,None,1722.3402201998979,None,6,1.0422240998595953,1722.3402201998979,None,1.0422240998595953,1723.411826199852,None,1723.9219480999745,None,1723.9219480999745,None,r,0.23645090032368898,1723.9219480999745,None,0.23645090032368898,,,71 Aloud,001,2022_Nov_03_1505,ProdSingRedoBetween,2021.2.3,59.93306668799621,
,,,,67,0,67,0,,,,,,,,,,,,,,,,,,,,,,1726.307515699882,None,,,,,,,,,,,,,,,,,color,126,68,aloud,new,null,1724.6961551001295,None,1724.6961551001295,None,6,0.7984446003101766,1724.6961551001295,None,0.7984446003101766,1725.5302242999896,None,1726.0420955000445,None,1726.0420955000445,None,r,0.23638280015438795,1726.0420955000445,None,0.23638280015438795,,,71 Aloud,001,2022_Nov_03_1505,ProdSingRedoBetween,2021.2.3,59.93306668799621,
,,,,68,0,68,0,,,,,,,,,,,,,,,,,,,,,,1728.4098330000415,None,,,,,,,,,,,,,,,,,beginning,66,69,aloud,old,red,1726.812304600142,None,1726.812304600142,None,6,0.7860153000801802,1726.812304600142,None,0.7860153000801802,1727.6282852999866,None,1728.142998599913,None,1728.142998599913,None,r,0.24734959984198213,1728.142998599913,None,0.24734959984198213,,,71 Aloud,001,2022_Nov_03_1505,ProdSingRedoBetween,2021.2.3,59.93306668799621,
,,,,69,0,69,0,,,,,,,,,,,,,,,,,,,,,,1732.297106300015,None,,,,,,,,,,,,,,,,,rural,116,70,aloud,new,null,1728.921922300011,None,1728.921922300011,None,4,1.852573400363326,1728.921922300011,None,1.852573400363326,1730.8081431998871,None,1731.316337700002,None,1731.316337700002,None,r,0.961967000272125,1731.316337700002,None,0.961967000272125,,,71 Aloud,001,2022_Nov_03_1505,ProdSingRedoBetween,2021.2.3,59.93306668799621,
,,,,70,0,70,0,,,,,,,,,,,,,,,,,,,,,,1735.1830488997512,None,,,,,,,,,,,,,,,,,expansion,152,71,aloud,new,null,1732.8095534997992,None,1732.8095534997992,None,6,1.5889171999879181,1732.8095534997992,None,1.5889171999879181,1734.4253511000425,None,1734.936643799767,None,1734.936643799767,None,r,0.22992040030658245,1734.936643799767,None,0.22992040030658245,,,71 Aloud,001,2022_Nov_03_1505,ProdSingRedoBetween,2021.2.3,59.93306668799621,
,,,,71,0,71,0,,,,,,,,,,,,,,,,,,,,,,1737.585702400189,None,,,,,,,,,,,,,,,,,phrase,149,72,aloud,new,null,1735.686235200148,None,1735.686235200148,None,6,1.072200599592179,1735.686235200148,None,1.072200599592179,1736.7877479000017,None,1737.3026874000207,None,1737.3026874000207,None,r,0.26373409992083907,1737.3026874000207,None,0.26373409992083907,,,71 Aloud,001,2022_Nov_03_1505,ProdSingRedoBetween,2021.2.3,59.93306668799621,
,,,,72,0,72,0,,,,,,,,,,,,,,,,,,,,,,1739.922897099983,None,,,,,,,,,,,,,,,,,literature,105,73,aloud,new,null,1738.096035799943,None,1738.096035799943,None,6,1.0863995999097824,1738.096035799943,None,1.0863995999097824,1739.2115199998952,None,1739.7212340999395,None,1739.7212340999395,None,r,0.1731662997044623,1739.7212340999395,None,0.1731662997044623,,,71 Aloud,001,2022_Nov_03_1505,ProdSingRedoBetween,2021.2.3,59.93306668799621,
,,,,73,0,73,0,,,,,,,,,,,,,,,,,,,,,,1742.0414772001095,None,,,,,,,,,,,,,,,,,region,148,74,aloud,new,null,1740.4423810001463,None,1740.4423810001463,None,6,0.9000510000623763,1740.4423810001463,None,0.9000510000623763,1741.3804251998663,None,1741.8956022998318,None,1741.8956022998318,None,r,0.11876589991152287,1741.8956022998318,None,0.11876589991152287,,,71 Aloud,001,2022_Nov_03_1505,ProdSingRedoBetween,2021.2.3,59.93306668799621,
,,,,74,0,74,0,,,,,,,,,,,,,,,,,,,,,,1744.2757135997526,None,,,,,,,,,,,,,,,,,candidate,129,75,aloud,new,null,1742.5517955999821,None,1742.5517955999821,None,6,0.9107151995413005,1742.5517955999821,None,0.9107151995413005,1743.4955645999871,None,1744.0088189998642,None,1744.0088189998642,None,r,0.24586529983207583,1744.0088189998642,None,0.24586529983207583,,,71 Aloud,001,2022_Nov_03_1505,ProdSingRedoBetween,2021.2.3,59.93306668799621,
,,,,75,0,75,0,,,,,,,,,,,,,,,,,,,,,,1746.6947810999118,None,,,,,,,,,,,,,,,,,strength,92,76,aloud,new,null,1744.7823292999528,None,1744.7823292999528,None,6,1.1440403000451624,1744.7823292999528,None,1.1440403000451624,1745.9509812998585,None,1746.4664246998727,None,1746.4664246998727,None,r,0.2119787000119686,1746.4664246998727,None,0.2119787000119686,,,71 Aloud,001,2022_Nov_03_1505,ProdSingRedoBetween,2021.2.3,59.93306668799621,
,,,,76,0,76,0,,,,,,,,,,,,,,,,,,,,,,1749.1860286998563,None,,,,,,,,,,,,,,,,,research,170,77,aloud,new,null,1747.2007595999166,None,1747.2007595999166,None,6,1.2696693004108965,1747.2007595999166,None,1.2696693004108965,1748.502751799766,None,1749.0154276997782,None,1749.0154276997782,None,r,0.1351792998611927,1749.0154276997782,None,0.1351792998611927,,,71 Aloud,001,2022_Nov_03_1505,ProdSingRedoBetween,2021.2.3,59.93306668799621,
,,,,77,0,77,0,,,,,,,,,,,,,,,,,,,,,,1751.3059649998322,None,,,,,,,,,,,,,,,,,power,94,78,aloud,new,null,1749.720662099775,None,1749.720662099775,None,6,0.749630100093782,1749.720662099775,None,0.749630100093782,1750.504373199772,None,1751.016946699936,None,1751.016946699936,None,r,0.2615706999786198,1751.016946699936,None,0.2615706999786198,,,71 Aloud,001,2022_Nov_03_1505,ProdSingRedoBetween,2021.2.3,59.93306668799621,
,,,,78,0,78,0,,,,,,,,,,,,,,,,,,,,,,1753.6681833001785,None,,,,,,,,,,,,,,,,,front,122,79,aloud,new,null,1751.823454500176,None,1751.823454500176,None,6,1.0069225998595357,1751.823454500176,None,1.0069225998595357,1752.856224199757,None,1753.3698661997914,None,1753.3698661997914,None,r,0.2685946999117732,1753.3698661997914,None,0.2685946999117732,,,71 Aloud,001,2022_Nov_03_1505,ProdSingRedoBetween,2021.2.3,59.93306668799621,
,,,,79,0,79,0,,,,,,,,,,,,,,,,,,,,,,1756.0398180000484,None,,,,,,,,,,,,,,,,,junior,142,80,aloud,new,null,1754.1894298000261,None,1754.1894298000261,None,6,0.9688856997527182,1754.1894298000261,None,0.9688856997527182,1755.1877770000137,None,1755.6931604999118,None,1755.6931604999118,None,r,0.3212175997905433,1755.6931604999118,None,0.3212175997905433,,,71 Aloud,001,2022_Nov_03_1505,ProdSingRedoBetween,2021.2.3,59.93306668799621,
,,,,80,0,80,0,,,,,,,,,,,,,,,,,,,,,,1758.5798051999882,None,,,,,,,,,,,,,,,,,finish,65,81,aloud,old,red,1756.5736966999248,None,1756.5736966999248,None,6,1.1685358001850545,1756.5736966999248,None,1.1685358001850545,1757.7763212001882,None,1758.2900263997726,None,1758.2900263997726,None,r,0.25227530021220446,1758.2900263997726,None,0.25227530021220446,,,71 Aloud,001,2022_Nov_03_1505,ProdSingRedoBetween,2021.2.3,59.93306668799621,
,,,,81,0,81,0,,,,,,,,,,,,,,,,,,,,,,1760.7587492000312,None,,,,,,,,,,,,,,,,,crime,125,82,aloud,new,null,1759.0909425001591,None,1759.0909425001591,None,6,0.8674153997562826,1759.0909425001591,None,0.8674153997562826,1759.9765194999054,None,1760.4965519998223,None,1760.4965519998223,None,r,0.23779539996758103,1760.4965519998223,None,0.23779539996758103,,,71 Aloud,001,2022_Nov_03_1505,ProdSingRedoBetween,2021.2.3,59.93306668799621,
,,,,82,0,82,0,,,,,,,,,,,,,,,,,,,,,,1763.4113676999696,None,,,,,,,,,,,,,,,,,mechanical,13,83,aloud,old,yellow,1761.2634752998129,None,1761.2634752998129,None,6,1.0788086000829935,1761.2634752998129,None,1.0788086000829935,1762.3613374000415,None,1762.8657574998215,None,1762.8657574998215,None,r,0.5245761000551283,1762.8657574998215,None,0.5245761000551283,,,71 Aloud,001,2022_Nov_03_1505,ProdSingRedoBetween,2021.2.3,59.93306668799621,
,,,,83,0,83,0,,,,,,,,,,,,,,,,,,,,,,1765.2139575001784,None,,,,,,,,,,,,,,,,,throw,146,84,aloud,new,null,1763.9140352001414,None,1763.9140352001414,None,6,0.524541899561882,1763.9140352001414,None,0.524541899561882,1764.4702045000158,None,1764.979893699754,None,1764.979893699754,None,r,0.21052439976483583,1764.979893699754,None,0.21052439976483583,,,71 Aloud,001,2022_Nov_03_1505,ProdSingRedoBetween,2021.2.3,59.93306668799621,
,,,,84,0,84,0,,,,,,,,,,,,,,,,,,,,,,1767.1041955999099,None,,,,,,,,,,,,,,,,,equipment,128,85,aloud,new,null,1765.7276285998523,None,1765.7276285998523,None,6,0.5507344999350607,1765.7276285998523,None,0.5507344999350607,1766.3044712999836,None,1766.8149141999893,None,1766.8149141999893,None,r,0.26363310031592846,1766.8149141999893,None,0.26363310031592846,,,71 Aloud,001,2022_Nov_03_1505,ProdSingRedoBetween,2021.2.3,59.93306668799621,
,,,,85,0,85,0,,,,,,,,,,,,,,,,,,,,,,1769.000320199877,None,,,,,,,,,,,,,,,,,education,58,86,aloud,old,blue,1767.6199258998968,None,1767.6199258998968,None,6,0.7384643000550568,1767.6199258998968,None,0.7384643000550568,1768.3855798998848,None,1768.9004873000085,None,1768.9004873000085,None,r,0.07380030024796724,1768.9004873000085,None,0.07380030024796724,,,71 Aloud,001,2022_Nov_03_1505,ProdSingRedoBetween,2021.2.3,59.93306668799621,
,,,,86,0,86,0,,,,,,,,,,,,,,,,,,,,,,1770.9857332999818,None,,,,,,,,,,,,,,,,,figure,51,87,aloud,old,blue,1769.5140758999623,None,1769.5140758999623,None,6,0.8442581999115646,1769.5140758999623,None,0.8442581999115646,1770.3881703000516,None,1770.9023206997663,None,1770.9023206997663,None,r,0.06399739999324083,1770.9023206997663,None,0.06399739999324083,,,71 Aloud,001,2022_Nov_03_1505,ProdSingRedoBetween,2021.2.3,59.93306668799621,
,,,,87,0,87,0,,,,,,,,,,,,,,,,,,,,,,1772.8375817998312,None,,,,,,,,,,,,,,,,,opening,79,88,aloud,old,red,1771.48941189982,None,1771.48941189982,None,6,0.7409112001769245,1771.48941189982,None,0.7409112001769245,1772.2548321001232,None,1772.7561564999633,None,1772.7561564999633,None,r,0.05030929995700717,1772.7561564999633,None,0.05030929995700717,,,71 Aloud,001,2022_Nov_03_1505,ProdSingRedoBetween,2021.2.3,59.93306668799621,
,,,,88,0,88,0,,,,,,,,,,,,,,,,,,,,,,1774.8763013998978,None,,,,,,,,,,,,,,,,,waste,61,89,aloud,old,red,1773.3379812999628,None,1773.3379812999628,None,6,0.8364375000819564,1773.3379812999628,None,0.8364375000819564,1774.2065127999522,None,1774.7170396000147,None,1774.7170396000147,None,r,0.13725449983030558,1774.7170396000147,None,0.13725449983030558,,,71 Aloud,001,2022_Nov_03_1505,ProdSingRedoBetween,2021.2.3,59.93306668799621,
,,,,89,0,89,0,,,,,,,,,,,,,,,,,,,,,,1776.8748232000507,None,,,,,,,,,,,,,,,,,silence,88,90,aloud,old,red,1775.3916841000319,None,1775.3916841000319,None,6,0.8627328998409212,1775.3916841000319,None,0.8627328998409212,1776.2755582001992,None,1776.7793042999692,None,1776.7793042999692,None,r,0.07499050023034215,1776.7793042999692,None,0.07499050023034215,,,71 Aloud,001,2022_Nov_03_1505,ProdSingRedoBetween,2021.2.3,59.93306668799621,
,,,,90,0,90,0,,,,,,,,,,,,,,,,,,,,,,1779.4441252998076,None,,,,,,,,,,,,,,,,,scale,153,91,aloud,new,null,1777.3925141999498,None,1777.3925141999498,None,6,0.7417843998409808,1777.3925141999498,None,0.7417843998409808,1778.1600127997808,None,1778.66013510013,None,1778.66013510013,None,r,0.7621005000546575,1778.66013510013,None,0.7621005000546575,,,71 Aloud,001,2022_Nov_03_1505,ProdSingRedoBetween,2021.2.3,59.93306668799621,
,,,,91,0,91,0,,,,,,,,,,,,,,,,,,,,,,1781.37914799992,None,,,,,,,,,,,,,,,,,general,89,92,aloud,old,red,1779.9460613001138,None,1779.9460613001138,None,6,0.7401569001376629,1779.9460613001138,None,0.7401569001376629,1780.7158232000656,None,1781.230140700005,None,1781.230140700005,None,r,0.12825429998338223,1781.230140700005,None,0.12825429998338223,,,71 Aloud,001,2022_Nov_03_1505,ProdSingRedoBetween,2021.2.3,59.93306668799621,
,,,,92,0,92,0,,,,,,,,,,,,,,,,,,,,,,1784.0840031998232,None,,,,,,,,,,,,,,,,,court,17,93,aloud,old,yellow,1781.8827395001426,None,1781.8827395001426,None,6,1.195572200231254,1781.8827395001426,None,1.195572200231254,1783.1002941997722,None,1783.61963630002,None,1783.61963630002,None,r,0.4347573001869023,1783.61963630002,None,0.4347573001869023,,,71 Aloud,001,2022_Nov_03_1505,ProdSingRedoBetween,2021.2.3,59.93306668799621,
,,,,93,0,93,0,,,,,,,,,,,,,,,,,,,,,,1786.1339492998086,None,,,,,,,,,,,,,,,,,trend,127,94,aloud,new,null,1784.5998243000358,None,1784.5998243000358,None,6,0.7586326999589801,1784.5998243000358,None,0.7586326999589801,1785.3887074999511,None,1785.902827899903,None,1785.902827899903,None,r,0.20753929996863008,1785.902827899903,None,0.20753929996863008,,,71 Aloud,001,2022_Nov_03_1505,ProdSingRedoBetween,2021.2.3,59.93306668799621,
,,,,94,0,94,0,,,,,,,,,,,,,,,,,,,,,,1788.2693568998948,None,,,,,,,,,,,,,,,,,household,55,95,aloud,old,blue,1786.6388610000722,None,1786.6388610000722,None,6,0.7755501000210643,1786.6388610000722,None,0.7755501000210643,1787.4433579999022,None,1787.9543725000694,None,1787.9543725000694,None,r,0.28399130003526807,1787.9543725000694,None,0.28399130003526807,,,71 Aloud,001,2022_Nov_03_1505,ProdSingRedoBetween,2021.2.3,59.93306668799621,
,,,,95,0,95,0,,,,,,,,,,,,,,,,,,,,,,1790.655245400034,None,,,,,,,,,,,,,,,,,brief,113,96,aloud,new,null,1788.7719900999218,None,1788.7719900999218,None,6,1.0103028998710215,1788.7719900999218,None,1.0103028998710215,1789.8056307998486,None,1790.3049598000944,None,1790.3049598000944,None,r,0.325327199883759,1790.3049598000944,None,0.325327199883759,,,71 Aloud,001,2022_Nov_03_1505,ProdSingRedoBetween,2021.2.3,59.93306668799621,
,,,,96,0,96,0,,,,,,,,,,,,,,,,,,,,,,1792.4437588001601,None,,,,,,,,,,,,,,,,,present,40,97,aloud,old,blue,1791.163798800204,None,1791.163798800204,None,6,0.49038329999893904,1791.163798800204,None,0.49038329999893904,1791.674333400093,None,1792.1807579998858,None,1792.1807579998858,None,r,0.23370980005711317,1792.1807579998858,None,0.23370980005711317,,,71 Aloud,001,2022_Nov_03_1505,ProdSingRedoBetween,2021.2.3,59.93306668799621,
,,,,97,0,97,0,,,,,,,,,,,,,,,,,,,,,,1794.3922974998131,None,,,,,,,,,,,,,,,,,state,33,98,aloud,old,blue,1792.958639100194,None,1792.958639100194,None,6,0.6796310995705426,1792.958639100194,None,0.6796310995705426,1793.6612137998454,None,1794.1754792998545,None,1794.1754792998545,None,r,0.19874970009550452,1794.1754792998545,None,0.19874970009550452,,,71 Aloud,001,2022_Nov_03_1505,ProdSingRedoBetween,2021.2.3,59.93306668799621,
,,,,98,0,98,0,,,,,,,,,,,,,,,,,,,,,,1796.310858100187,None,,,,,,,,,,,,,,,,,range,23,99,aloud,old,yellow,1794.9024175000377,None,1794.9024175000377,None,6,0.6958755999803543,1794.9024175000377,None,0.6958755999803543,1795.6277054999955,None,1796.129681199789,None,1796.129681199789,None,r,0.1646154997870326,1796.129681199789,None,0.1646154997870326,,,71 Aloud,001,2022_Nov_03_1505,ProdSingRedoBetween,2021.2.3,59.93306668799621,
,,,,99,0,99,0,,,,,,,,,,,,,,,,,,,,,,1798.3674197997898,None,,,,,,,,,,,,,,,,,split,157,100,aloud,new,null,1796.8164133997634,None,1796.8164133997634,None,6,0.7017907998524606,1796.8164133997634,None,0.7017907998524606,1797.5466450001113,None,1798.0469130999409,None,1798.0469130999409,None,r,0.2955813999287784,1798.0469130999409,None,0.2955813999287784,,,71 Aloud,001,2022_Nov_03_1505,ProdSingRedoBetween,2021.2.3,59.93306668799621,
,,,,100,0,100,0,,,,,,,,,,,,,,,,,,,,,,1800.649664499797,None,,,,,,,,,,,,,,,,,heavy,136,101,aloud,new,null,1798.8877837001346,None,1798.8877837001346,None,6,0.9584168000146747,1798.8877837001346,None,0.9584168000146747,1799.866770000197,None,1800.3830876001157,None,1800.3830876001157,None,r,0.24710429972037673,1800.3830876001157,None,0.24710429972037673,,,71 Aloud,001,2022_Nov_03_1505,ProdSingRedoBetween,2021.2.3,59.93306668799621,
,,,,101,0,101,0,,,,,,,,,,,,,,,,,,,,,,1802.618760399986,None,,,,,,,,,,,,,,,,,fellow,26,102,aloud,old,yellow,1801.16647200007,None,1801.16647200007,None,6,0.6638369001448154,1801.16647200007,None,0.6638369001448154,1801.8536584000103,None,1802.3750482997857,None,1802.3750482997857,None,r,0.21523240022361279,1802.3750482997857,None,0.21523240022361279,,,71 Aloud,001,2022_Nov_03_1505,ProdSingRedoBetween,2021.2.3,59.93306668799621,
,,,,102,0,102,0,,,,,,,,,,,,,,,,,,,,,,1804.8193187997676,None,,,,,,,,,,,,,,,,,victory,160,103,aloud,new,null,1803.1376693998463,None,1803.1376693998463,None,6,0.8286973000504076,1803.1376693998463,None,0.8286973000504076,1803.9918884998187,None,1804.5076665999368,None,1804.5076665999368,None,r,0.28258779970929027,1804.5076665999368,None,0.28258779970929027,,,71 Aloud,001,2022_Nov_03_1505,ProdSingRedoBetween,2021.2.3,59.93306668799621,
,,,,103,0,103,0,,,,,,,,,,,,,,,,,,,,,,1806.9047591998242,None,,,,,,,,,,,,,,,,,trash,158,104,aloud,new,null,1805.3379366002046,None,1805.3379366002046,None,6,0.7643514000810683,1805.3379366002046,None,0.7643514000810683,1806.1206658999436,None,1806.6212603999302,None,1806.6212603999302,None,r,0.25693280017003417,1806.6212603999302,None,0.25693280017003417,,,71 Aloud,001,2022_Nov_03_1505,ProdSingRedoBetween,2021.2.3,59.93306668799621,
,,,,104,0,104,0,,,,,,,,,,,,,,,,,,,,,,1809.1069634999149,None,,,,,,,,,,,,,,,,,burden,115,105,aloud,new,null,1807.420646400191,None,1807.420646400191,None,6,0.6577632003463805,1807.420646400191,None,0.6577632003463805,1808.107783399988,None,1808.6232727998868,None,1808.6232727998868,None,r,0.46290639974176884,1808.6232727998868,None,0.46290639974176884,,,71 Aloud,001,2022_Nov_03_1505,ProdSingRedoBetween,2021.2.3,59.93306668799621,
,,,,105,0,105,0,,,,,,,,,,,,,,,,,,,,,,1811.3758352999575,None,,,,,,,,,,,,,,,,,strain,171,106,aloud,new,null,1809.6084817000665,None,1809.6084817000665,None,6,1.0456831995397806,1809.6084817000665,None,1.0456831995397806,1810.6758091999218,None,1811.1796642001718,None,1811.1796642001718,None,r,0.17068029986694455,1811.1796642001718,None,0.17068029986694455,,,71 Aloud,001,2022_Nov_03_1505,ProdSingRedoBetween,2021.2.3,59.93306668799621,
,,,,106,0,106,0,,,,,,,,,,,,,,,,,,,,,,1813.7282479000278,None,,,,,,,,,,,,,,,,,build,133,107,aloud,new,null,1811.888772000093,None,1811.888772000093,None,6,0.9494527000933886,1811.888772000093,None,0.9494527000933886,1812.8624602998607,None,1813.378479000181,None,1813.378479000181,None,r,0.3316949000582099,1813.378479000181,None,0.3316949000582099,,,71 Aloud,001,2022_Nov_03_1505,ProdSingRedoBetween,2021.2.3,59.93306668799621,
,,,,107,0,107,0,,,,,,,,,,,,,,,,,,,,,,1815.8499886998907,None,,,,,,,,,,,,,,,,,industry,36,108,aloud,old,blue,1814.2363299997523,None,1814.2363299997523,None,6,0.8179258997552097,1814.2363299997523,None,0.8179258997552097,1815.0825597997755,None,1815.6115187001415,None,1815.6115187001415,None,r,0.21069929981604218,1815.6115187001415,None,0.21069929981604218,,,71 Aloud,001,2022_Nov_03_1505,ProdSingRedoBetween,2021.2.3,59.93306668799621,
,,,,108,0,108,0,,,,,,,,,,,,,,,,,,,,,,1817.917216999922,None,,,,,,,,,,,,,,,,,finance,131,109,aloud,new,null,1816.3672695001587,None,1816.3672695001587,None,6,0.7190668000839651,1816.3672695001587,None,0.7190668000839651,1817.121026000008,None,1817.6332780001685,None,1817.6332780001685,None,r,0.25298979971557856,1817.6332780001685,None,0.25298979971557856,,,71 Aloud,001,2022_Nov_03_1505,ProdSingRedoBetween,2021.2.3,59.93306668799621,
,,,,109,0,109,0,,,,,,,,,,,,,,,,,,,,,,1819.9845711998641,None,,,,,,,,,,,,,,,,,track,77,110,aloud,old,red,1818.423572300002,None,1818.423572300002,None,6,0.7585623003542423,1818.423572300002,None,0.7585623003542423,1819.2036903998815,None,1819.7175805000588,None,1819.7175805000588,None,r,0.24073889991268516,1819.7175805000588,None,0.24073889991268516,,,71 Aloud,001,2022_Nov_03_1505,ProdSingRedoBetween,2021.2.3,59.93306668799621,
,,,,110,0,110,0,,,,,,,,,,,,,,,,,,,,,,1822.054657700006,None,,,,,,,,,,,,,,,,,smell,45,111,aloud,old,blue,1820.4848345001228,None,1820.4848345001228,None,6,0.7774383998475969,1820.4848345001228,None,0.7774383998475969,1821.2906971997581,None,1821.8070167000405,None,1821.8070167000405,None,r,0.23125729989260435,1821.8070167000405,None,0.23125729989260435,,,71 Aloud,001,2022_Nov_03_1505,ProdSingRedoBetween,2021.2.3,59.93306668799621,
,,,,111,0,111,0,,,,,,,,,,,,,,,,,,,,,,1824.0912013999186,None,,,,,,,,,,,,,,,,,length,57,112,aloud,old,blue,1822.5551006998867,None,1822.5551006998867,None,6,0.8591821999289095,1822.5551006998867,None,0.8591821999289095,1823.4422208000906,None,1823.9561946000904,None,1823.9561946000904,None,r,0.11401839973405004,1823.9561946000904,None,0.11401839973405004,,,71 Aloud,001,2022_Nov_03_1505,ProdSingRedoBetween,2021.2.3,59.93306668799621,
,,,,112,0,112,0,,,,,,,,,,,,,,,,,,,,,,1827.509748000186,None,,,,,,,,,,,,,,,,,broad,174,113,aloud,new,null,1824.606627699919,None,1824.606627699919,None,5,1.551631299778819,1824.606627699919,None,1.551631299778819,1826.1787458001636,None,1826.6938208001666,None,1826.6938208001666,None,f,0.7924309000372887,1826.6938208001666,None,0.7924309000372887,,,71 Aloud,001,2022_Nov_03_1505,ProdSingRedoBetween,2021.2.3,59.93306668799621,
,,,,113,0,113,0,,,,,,,,,,,,,,,,,,,,,,1830.0445352001116,None,,,,,,,,,,,,,,,,,theme,172,114,aloud,new,null,1828.0107813999057,None,1828.0107813999057,None,6,1.4356619999743998,1828.0107813999057,None,1.4356619999743998,1829.484724999871,None,1829.996878999751,None,1829.996878999751,None,r,0.025481099728494883,1829.996878999751,None,0.025481099728494883,,,71 Aloud,001,2022_Nov_03_1505,ProdSingRedoBetween,2021.2.3,59.93306668799621,
,,,,114,0,114,0,,,,,,,,,,,,,,,,,,,,,,1831.9797811000608,None,,,,,,,,,,,,,,,,,author,53,115,aloud,old,blue,1830.549160799943,None,1830.549160799943,None,6,0.729186600074172,1830.549160799943,None,0.729186600074172,1831.2956953998655,None,1831.807708799839,None,1831.807708799839,None,r,0.14250179985538125,1831.807708799839,None,0.14250179985538125,,,71 Aloud,001,2022_Nov_03_1505,ProdSingRedoBetween,2021.2.3,59.93306668799621,
,,,,115,0,115,0,,,,,,,,,,,,,,,,,,,,,,1833.881726599764,None,,,,,,,,,,,,,,,,,group,28,116,aloud,old,yellow,1832.4887397000566,None,1832.4887397000566,None,6,0.7496258998289704,1832.4887397000566,None,0.7496258998289704,1833.2751115001738,None,1833.7817600998096,None,1833.7817600998096,None,r,0.07241040002554655,1833.7817600998096,None,0.07241040002554655,,,71 Aloud,001,2022_Nov_03_1505,ProdSingRedoBetween,2021.2.3,59.93306668799621,
,,,,116,0,116,0,,,,,,,,,,,,,,,,,,,,,,1836.2005846998654,None,,,,,,,,,,,,,,,,,incident,5,117,aloud,old,yellow,1834.3876546998508,None,1834.3876546998508,None,6,0.9387273001484573,1834.3876546998508,None,0.9387273001484573,1835.3594881999306,None,1835.8669615001418,None,1835.8669615001418,None,r,0.31512159993872046,1835.8669615001418,None,0.31512159993872046,,,71 Aloud,001,2022_Nov_03_1505,ProdSingRedoBetween,2021.2.3,59.93306668799621,
,,,,117,0,117,0,,,,,,,,,,,,,,,,,,,,,,1838.2142027001828,None,,,,,,,,,,,,,,,,,people,97,118,aloud,new,null,1836.7086025001481,None,1836.7086025001481,None,6,0.913557399995625,1836.7086025001481,None,0.913557399995625,1837.6549128000624,None,1838.179401199799,None,1838.179401199799,None,r,0.010940500069409609,1838.179401199799,None,0.010940500069409609,,,71 Aloud,001,2022_Nov_03_1505,ProdSingRedoBetween,2021.2.3,59.93306668799621,
,,,,118,0,118,0,,,,,,,,,,,,,,,,,,,,,,1839.854102499783,None,,,,,,,,,,,,,,,,,addition,99,119,aloud,new,null,1838.7272008000873,None,1838.7272008000873,None,6,0.5429551997222006,1838.7272008000873,None,0.5429551997222006,1839.2897646999918,None,1839.8041710001417,None,1839.8041710001417,None,r,0.025975599884986877,1839.8041710001417,None,0.025975599884986877,,,71 Aloud,001,2022_Nov_03_1505,ProdSingRedoBetween,2021.2.3,59.93306668799621,
,,,,119,0,119,0,,,,,,,,,,,,,,,,,,,,,,1841.5644640000537,None,,,,,,,,,,,,,,,,,pretty,76,120,aloud,old,red,1840.3579072998837,None,1840.3579072998837,None,6,0.5442947000265121,1840.3579072998837,None,0.5442947000265121,1840.925060799811,None,1841.4439432001673,None,1841.4439432001673,None,r,0.0905599002726376,1841.4439432001673,None,0.0905599002726376,,,71 Aloud,001,2022_Nov_03_1505,ProdSingRedoBetween,2021.2.3,59.93306668799621,
,,,,120,0,120,0,,,,,,,,,,,,,,,,,,,,,,1843.3261226001196,None,,,,,,,,,,,,,,,,,private,12,121,aloud,old,yellow,1842.0837334999815,None,1842.0837334999815,None,6,0.6026270999573171,1842.0837334999815,None,0.6026270999573171,1842.7092523002066,None,1843.2333741001785,None,1843.2333741001785,None,r,0.06889160024002194,1843.2333741001785,None,0.06889160024002194,,,71 Aloud,001,2022_Nov_03_1505,ProdSingRedoBetween,2021.2.3,59.93306668799621,
,,,,121,0,121,0,,,,,,,,,,,,,,,,,,,,,,1845.6951978998259,None,,,,,,,,,,,,,,,,,narrow,56,122,aloud,old,blue,1843.8522610999644,None,1843.8522610999644,None,6,0.7699325000867248,1843.8522610999644,None,0.7699325000867248,1844.6467277999036,None,1845.1626364002004,None,1845.1626364002004,None,r,0.5075790998525918,1845.1626364002004,None,0.5075790998525918,,,71 Aloud,001,2022_Nov_03_1505,ProdSingRedoBetween,2021.2.3,59.93306668799621,
,,,,122,0,122,0,,,,,,,,,,,,,,,,,,,,,,1847.8457085001282,None,,,,,,,,,,,,,,,,,defeat,31,123,aloud,old,blue,1846.2226526001468,None,1846.2226526001468,None,6,0.7915695998817682,1846.2226526001468,None,0.7915695998817682,1847.0509506999515,None,1847.5621492001228,None,1847.5621492001228,None,r,0.2600091998465359,1847.5621492001228,None,0.2600091998465359,,,71 Aloud,001,2022_Nov_03_1505,ProdSingRedoBetween,2021.2.3,59.93306668799621,
,,,,123,0,123,0,,,,,,,,,,,,,,,,,,,,,,1849.933894999791,None,,,,,,,,,,,,,,,,,agency,103,124,aloud,new,null,1848.3557577999309,None,1848.3557577999309,None,6,0.8025408000685275,1848.3557577999309,None,0.8025408000685275,1849.1899652997963,None,1849.6989914998412,None,1849.6989914998412,None,r,0.20320779969915748,1849.6989914998412,None,0.20320779969915748,,,71 Aloud,001,2022_Nov_03_1505,ProdSingRedoBetween,2021.2.3,59.93306668799621,
,,,,124,0,124,0,,,,,,,,,,,,,,,,,,,,,,1852.2509102001786,None,,,,,,,,,,,,,,,,,evidence,8,125,aloud,old,yellow,1850.4577961000614,None,1850.4577961000614,None,6,1.0204028002917767,1850.4577961000614,None,1.0204028002917767,1851.5032270997763,None,1852.016278500203,None,1852.016278500203,None,r,0.21396110020577908,1852.016278500203,None,0.21396110020577908,,,71 Aloud,001,2022_Nov_03_1505,ProdSingRedoBetween,2021.2.3,59.93306668799621,
,,,,125,0,125,0,,,,,,,,,,,,,,,,,,,,,,1854.352138500195,None,,,,,,,,,,,,,,,,,stand,67,126,aloud,old,red,1852.7557061999105,None,1852.7557061999105,None,6,0.8026103996671736,1852.7557061999105,None,0.8026103996671736,1853.5852797999978,None,1854.0920783998445,None,1854.0920783998445,None,r,0.24201449984684587,1854.0920783998445,None,0.24201449984684587,,,71 Aloud,001,2022_Nov_03_1505,ProdSingRedoBetween,2021.2.3,59.93306668799621,
,,,,126,0,126,0,,,,,,,,,,,,,,,,,,,,,,1856.6543653998524,None,,,,,,,,,,,,,,,,,citizen,4,127,aloud,old,yellow,1854.8633774998598,None,1854.8633774998598,None,6,0.6627171002328396,1854.8633774998598,None,0.6627171002328396,1855.5547144999728,None,1856.0604066001251,None,1856.0604066001251,None,r,0.56975660007447,1856.0604066001251,None,0.56975660007447,,,71 Aloud,001,2022_Nov_03_1505,ProdSingRedoBetween,2021.2.3,59.93306668799621,
,,,,127,0,127,0,,,,,,,,,,,,,,,,,,,,,,1859.30713929981,None,,,,,,,,,,,,,,,,,skill,162,128,aloud,new,null,1857.168564800173,None,1857.168564800173,None,6,1.0136859002523124,1857.168564800173,None,1.0136859002523124,1858.2127948999405,None,1858.7260485999286,None,1858.7260485999286,None,r,0.5601334003731608,1858.7260485999286,None,0.5601334003731608,,,71 Aloud,001,2022_Nov_03_1505,ProdSingRedoBetween,2021.2.3,59.93306668799621,
,,,,128,0,128,0,,,,,,,,,,,,,,,,,,,,,,1861.6940374998376,None,,,,,,,,,,,,,,,,,height,20,129,aloud,old,yellow,1859.8113748999313,None,1859.8113748999313,None,6,0.8747988999821246,1859.8113748999313,None,0.8747988999821246,1860.7082079001702,None,1861.2163790999912,None,1861.2163790999912,None,r,0.46166149992495775,1861.2163790999912,None,0.46166149992495775,,,71 Aloud,001,2022_Nov_03_1505,ProdSingRedoBetween,2021.2.3,59.93306668799621,
,,,,129,0,129,0,,,,,,,,,,,,,,,,,,,,,,1863.9116986999288,None,,,,,,,,,,,,,,,,,growth,25,130,aloud,old,yellow,1862.1954303001985,None,1862.1954303001985,None,6,0.7307147001847625,1862.1954303001985,None,0.7307147001847625,1862.9439306999557,None,1863.445932699833,None,1863.445932699833,None,r,0.4483730997890234,1863.445932699833,None,0.4483730997890234,,,71 Aloud,001,2022_Nov_03_1505,ProdSingRedoBetween,2021.2.3,59.93306668799621,
,,,,130,0,130,0,,,,,,,,,,,,,,,,,,,,,,1865.9470055000857,None,,,,,,,,,,,,,,,,,engineer,6,131,aloud,old,yellow,1864.4259780999273,None,1864.4259780999273,None,6,0.6842896002344787,1864.4259780999273,None,0.6842896002344787,1865.138380299788,None,1865.6467415001243,None,1865.6467415001243,None,r,0.279452099930495,1865.6467415001243,None,0.279452099930495,,,71 Aloud,001,2022_Nov_03_1505,ProdSingRedoBetween,2021.2.3,59.93306668799621,
,,,,131,0,131,0,,,,,,,,,,,,,,,,,,,,,,1867.9499916997738,None,,,,,,,,,,,,,,,,,appeal,50,132,aloud,old,blue,1866.4560003001243,None,1866.4560003001243,None,6,0.6701366002671421,1866.4560003001243,None,0.6701366002671421,1867.148128000088,None,1867.6545774000697,None,1867.6545774000697,None,r,0.2716167001053691,1867.6545774000697,None,0.2716167001053691,,,71 Aloud,001,2022_Nov_03_1505,ProdSingRedoBetween,2021.2.3,59.93306668799621,
,,,,132,0,132,0,,,,,,,,,,,,,,,,,,,,,,1870.137363600079,None,,,,,,,,,,,,,,,,,budget,96,133,aloud,new,null,1868.4509779000655,None,1868.4509779000655,None,6,0.8031664998270571,1868.4509779000655,None,0.8031664998270571,1869.2858377997763,None,1869.8006579000503,None,1869.8006579000503,None,r,0.30939899990335107,1869.8006579000503,None,0.30939899990335107,,,71 Aloud,001,2022_Nov_03_1505,ProdSingRedoBetween,2021.2.3,59.93306668799621,
,,,,133,0,133,0,,,,,,,,,,,,,,,,,,,,,,1872.7204196001403,None,,,,,,,,,,,,,,,,,relation,137,134,aloud,new,null,1870.6518020997755,None,1870.6518020997755,None,6,1.2342910999432206,1870.6518020997755,None,1.2342910999432206,1871.90296950005,None,1872.403540499974,None,1872.403540499974,None,r,0.2905919998884201,1872.403540499974,None,0.2905919998884201,,,71 Aloud,001,2022_Nov_03_1505,ProdSingRedoBetween,2021.2.3,59.93306668799621,
,,,,134,0,134,0,,,,,,,,,,,,,,,,,,,,,,1874.7408151999116,None,,,,,,,,,,,,,,,,,minor,144,135,aloud,new,null,1873.2331404997967,None,1873.2331404997967,None,6,0.8049617996439338,1873.2331404997967,None,0.8049617996439338,1874.05892950017,None,1874.574057499878,None,1874.574057499878,None,r,0.14411479979753494,1874.574057499878,None,0.14411479979753494,,,71 Aloud,001,2022_Nov_03_1505,ProdSingRedoBetween,2021.2.3,59.93306668799621,
,,,,135,0,135,0,,,,,,,,,,,,,,,,,,,,,,1877.0456588999368,None,,,,,,,,,,,,,,,,,pressure,159,136,aloud,new,null,1875.2677486999892,None,1875.2677486999892,None,6,0.9304478000849485,1875.2677486999892,None,0.9304478000849485,1876.2329703001305,None,1876.7487085000612,None,1876.7487085000612,None,r,0.2734811003319919,1876.7487085000612,None,0.2734811003319919,,,71 Aloud,001,2022_Nov_03_1505,ProdSingRedoBetween,2021.2.3,59.93306668799621,
,,,,136,0,136,0,,,,,,,,,,,,,,,,,,,,,,1879.32701849984,None,,,,,,,,,,,,,,,,,suggestion,72,137,aloud,old,red,1877.5613005999476,None,1877.5613005999476,None,6,0.908924600109458,1877.5613005999476,None,0.908924600109458,1878.5027640997432,None,1879.0100257000886,None,1879.0100257000886,None,r,0.2921125995926559,1879.0100257000886,None,0.2921125995926559,,,71 Aloud,001,2022_Nov_03_1505,ProdSingRedoBetween,2021.2.3,59.93306668799621,
,,,,137,0,137,0,,,,,,,,,,,,,,,,,,,,,,1881.1118038999848,None,,,,,,,,,,,,,,,,,season,166,138,aloud,new,null,1879.8385307001881,None,1879.8385307001881,None,6,0.5996401999145746,1879.8385307001881,None,0.5996401999145746,1880.4618811002001,None,1880.9661246999167,None,1880.9661246999167,None,r,0.12009899970144033,1880.9661246999167,None,0.12009899970144033,,,71 Aloud,001,2022_Nov_03_1505,ProdSingRedoBetween,2021.2.3,59.93306668799621,
,,,,138,0,138,0,,,,,,,,,,,,,,,,,,,,,,1883.0474085998721,None,,,,,,,,,,,,,,,,,employment,179,139,aloud,new,null,1881.614129200112,None,1881.614129200112,None,6,0.7919064997695386,1881.614129200112,None,0.7919064997695386,1882.4317679000087,None,1882.9473695000634,None,1882.9473695000634,None,r,0.08273619972169399,1882.9473695000634,None,0.08273619972169399,,,71 Aloud,001,2022_Nov_03_1505,ProdSingRedoBetween,2021.2.3,59.93306668799621,
,,,,139,0,139,0,,,,,,,,,,,,,,,,,,,,,,1885.2182459998876,None,,,,,,,,,,,,,,,,,dance,163,140,aloud,new,null,1883.555901600048,None,1883.555901600048,None,6,0.9382754997350276,1883.555901600048,None,0.9382754997350276,1884.5176698002033,None,1885.0346388998441,None,1885.0346388998441,None,r,0.15555460005998611,1885.0346388998441,None,0.15555460005998611,,,71 Aloud,001,2022_Nov_03_1505,ProdSingRedoBetween,2021.2.3,59.93306668799621,
,,,,140,0,140,0,,,,,,,,,,,,,,,,,,,,,,1887.0346580999903,None,,,,,,,,,,,,,,,,,interview,68,141,aloud,old,red,1885.7432204000652,None,1885.7432204000652,None,6,0.5748952003195882,1885.7432204000652,None,0.5748952003195882,1886.341916400008,None,1886.8514141999185,None,1886.8514141999185,None,r,0.15477370005100965,1886.8514141999185,None,0.15477370005100965,,,71 Aloud,001,2022_Nov_03_1505,ProdSingRedoBetween,2021.2.3,59.93306668799621,
,,,,141,0,141,0,,,,,,,,,,,,,,,,,,,,,,1888.7548584998585,None,,,,,,,,,,,,,,,,,brilliant,21,142,aloud,old,yellow,1887.5547456997447,None,1887.5547456997447,None,6,0.6195219000801444,1887.5547456997447,None,0.6195219000801444,1888.2093186997809,None,1888.7203489998356,None,1888.7203489998356,None,r,0.013979699928313494,1888.7203489998356,None,0.013979699928313494,,,71 Aloud,001,2022_Nov_03_1505,ProdSingRedoBetween,2021.2.3,59.93306668799621,
,,,,142,0,142,0,,,,,,,,,,,,,,,,,,,,,,1890.5215369998477,None,,,,,,,,,,,,,,,,,mankind,114,143,aloud,new,null,1889.277912999969,None,1889.277912999969,None,6,0.6242837999016047,1889.277912999969,None,0.6242837999016047,1889.9244872997515,None,1890.4382679001428,None,1890.4382679001428,None,r,0.06388700008392334,1890.4382679001428,None,0.06388700008392334,,,71 Aloud,001,2022_Nov_03_1505,ProdSingRedoBetween,2021.2.3,59.93306668799621,
,,,,143,0,143,0,,,,,,,,,,,,,,,,,,,,,,1892.4400737998076,None,,,,,,,,,,,,,,,,,capital,173,144,aloud,new,null,1891.0251159002073,None,1891.0251159002073,None,6,0.7490375000052154,1891.0251159002073,None,0.7490375000052154,1891.7964411000721,None,1892.3102013999596,None,1892.3102013999596,None,r,0.10408470034599304,1892.3102013999596,None,0.10408470034599304,,,71 Aloud,001,2022_Nov_03_1505,ProdSingRedoBetween,2021.2.3,59.93306668799621,
,,,,144,0,144,0,,,,,,,,,,,,,,,,,,,,,,1894.1254267999902,None,,,,,,,,,,,,,,,,,quick,169,145,aloud,new,null,1892.9490853999741,None,1892.9490853999741,None,6,0.56112219998613,1892.9490853999741,None,0.56112219998613,1893.5419777999632,None,1894.0474274000153,None,1894.0474274000153,None,r,0.05473330011591315,1894.0474274000153,None,0.05473330011591315,,,71 Aloud,001,2022_Nov_03_1505,ProdSingRedoBetween,2021.2.3,59.93306668799621,
,,,,145,0,145,0,,,,,,,,,,,,,,,,,,,,,,1895.6933129001409,None,,,,,,,,,,,,,,,,,school,121,146,aloud,new,null,1894.6366750998423,None,1894.6366750998423,None,6,0.4654358997941017,1894.6366750998423,None,0.4654358997941017,1895.1293840999715,None,1895.6538360998966,None,1895.6538360998966,None,r,0.016190499998629093,1895.6538360998966,None,0.016190499998629093,,,71 Aloud,001,2022_Nov_03_1505,ProdSingRedoBetween,2021.2.3,59.93306668799621,
,,,,146,0,146,0,,,,,,,,,,,,,,,,,,,,,,1897.2114829001948,None,,,,,,,,,,,,,,,,,answer,130,147,aloud,new,null,1896.201884899754,None,1896.201884899754,None,6,0.34832509979605675,1896.201884899754,None,0.34832509979605675,1896.5873203999363,None,1897.0947173000313,None,1897.0947173000313,None,r,0.09539159992709756,1897.0947173000313,None,0.09539159992709756,,,71 Aloud,001,2022_Nov_03_1505,ProdSingRedoBetween,2021.2.3,59.93306668799621,
,,,,147,0,147,0,,,,,,,,,,,,,,,,,,,,,,1898.6464764000848,None,,,,,,,,,,,,,,,,,right,83,148,aloud,old,red,1897.7119738999754,None,1897.7119738999754,None,6,0.31017010007053614,1897.7119738999754,None,0.31017010007053614,1898.0483415001072,None,1898.5653452998959,None,1898.5653452998959,None,r,0.06465040007606149,1898.5653452998959,None,0.06465040007606149,,,71 Aloud,001,2022_Nov_03_1505,ProdSingRedoBetween,2021.2.3,59.93306668799621,
,,,,148,0,148,0,,,,,,,,,,,,,,,,,,,,,,1900.0977113000117,None,,,,,,,,,,,,,,,,,owner,104,149,aloud,new,null,1899.1473491997458,None,1899.1473491997458,None,6,0.2666553999297321,1899.1473491997458,None,0.2666553999297321,1899.4361006999388,None,1899.9473895998672,None,1899.9473895998672,None,r,0.12260179966688156,1899.9473895998672,None,0.12260179966688156,,,71 Aloud,001,2022_Nov_03_1505,ProdSingRedoBetween,2021.2.3,59.93306668799621,
,,,,149,0,149,0,,,,,,,,,,,,,,,,,,,,,,1902.0181777998805,None,,,,,,,,,,,,,,,,,article,95,150,aloud,new,null,1900.598470899742,None,1900.598470899742,None,6,0.255561999976635,1900.598470899742,None,0.255561999976635,1900.8819098998792,None,1901.3964871000499,None,1901.3964871000499,None,r,0.6014902996830642,1901.3964871000499,None,0.6014902996830642,,,71 Aloud,001,2022_Nov_03_1505,ProdSingRedoBetween,2021.2.3,59.93306668799621,
,,,,150,0,150,0,,,,,,,,,,,,,,,,,,,,,,1903.6870471001603,None,,,,,,,,,,,,,,,,,shock,150,151,aloud,new,null,1902.5354516999796,None,1902.5354516999796,None,6,0.35869670007377863,1902.5354516999796,None,0.35869670007377863,1902.923033399973,None,1903.4411856001243,None,1903.4411856001243,None,r,0.21294760005548596,1903.4411856001243,None,0.21294760005548596,,,71 Aloud,001,2022_Nov_03_1505,ProdSingRedoBetween,2021.2.3,59.93306668799621,
,,,,151,0,151,0,,,,,,,,,,,,,,,,,,,,,,1905.1927998000756,None,,,,,,,,,,,,,,,,,store,135,152,aloud,new,null,1904.2046186001971,None,1904.2046186001971,None,6,0.2735728002153337,1904.2046186001971,None,0.2735728002153337,1904.5051608001813,None,1905.0234155999497,None,1905.0234155999497,None,r,0.13485229993239045,1905.0234155999497,None,0.13485229993239045,,,71 Aloud,001,2022_Nov_03_1505,ProdSingRedoBetween,2021.2.3,59.93306668799621,
,,,,152,0,152,0,,,,,,,,,,,,,,,,,,,,,,1906.7711005997844,None,,,,,,,,,,,,,,,,,break,151,153,aloud,new,null,1905.7032270999625,None,1905.7032270999625,None,6,0.29492560029029846,1905.7032270999625,None,0.29492560029029846,1906.0237611997873,None,1906.5375680997968,None,1906.5375680997968,None,r,0.21251490013673902,1906.5375680997968,None,0.21251490013673902,,,71 Aloud,001,2022_Nov_03_1505,ProdSingRedoBetween,2021.2.3,59.93306668799621,
,,,,153,0,153,0,,,,,,,,,,,,,,,,,,,,,,1908.2774996999651,None,,,,,,,,,,,,,,,,,husband,63,154,aloud,old,red,1907.2825386999175,None,1907.2825386999175,None,6,0.21960619976744056,1907.2825386999175,None,0.21960619976744056,1907.5279048001394,None,1908.043508599978,None,1908.043508599978,None,r,0.21063989959657192,1908.043508599978,None,0.21063989959657192,,,71 Aloud,001,2022_Nov_03_1505,ProdSingRedoBetween,2021.2.3,59.93306668799621,
,,,,154,0,154,0,,,,,,,,,,,,,,,,,,,,,,1909.8317267000675,None,,,,,,,,,,,,,,,,,review,156,155,aloud,new,null,1908.7970549999736,None,1908.7970549999736,None,6,0.2329714996740222,1908.7970549999736,None,0.2329714996740222,1909.059296200052,None,1909.5778721999377,None,1909.5778721999377,None,r,0.22039980022236705,1909.5778721999377,None,0.22039980022236705,,,71 Aloud,001,2022_Nov_03_1505,ProdSingRedoBetween,2021.2.3,59.93306668799621,
,,,,155,0,155,0,,,,,,,,,,,,,,,,,,,,,,1911.404930099845,None,,,,,,,,,,,,,,,,,rapid,134,156,aloud,new,null,1910.3535739001818,None,1910.3535739001818,None,6,0.2525468999519944,1910.3535739001818,None,0.2525468999519944,1910.6260123001412,None,1911.132378200069,None,1911.132378200069,None,r,0.23388429963961244,1911.132378200069,None,0.23388429963961244,,,71 Aloud,001,2022_Nov_03_1505,ProdSingRedoBetween,2021.2.3,59.93306668799621,
,,,,156,0,156,0,,,,,,,,,,,,,,,,,,,,,,1912.9439118998125,None,,,,,,,,,,,,,,,,,tough,124,157,aloud,new,null,1911.917813300155,None,1911.917813300155,None,6,0.25638219993561506,1911.917813300155,None,0.25638219993561506,1912.19482279988,None,1912.7206032001413,None,1912.7206032001413,None,r,0.1975787002593279,1912.7206032001413,None,0.1975787002593279,,,71 Aloud,001,2022_Nov_03_1505,ProdSingRedoBetween,2021.2.3,59.93306668799621,
,,,,157,0,157,0,,,,,,,,,,,,,,,,,,,,,,1914.4950896999799,None,,,,,,,,,,,,,,,,,little,38,158,aloud,old,blue,1913.453413499985,None,1913.453413499985,None,6,0.272549900226295,1913.453413499985,None,0.272549900226295,1913.7462535998784,None,1914.2631160998717,None,1914.2631160998717,None,r,0.21494699968025088,1914.2631160998717,None,0.21494699968025088,,,71 Aloud,001,2022_Nov_03_1505,ProdSingRedoBetween,2021.2.3,59.93306668799621,
,,,,158,0,158,0,,,,,,,,,,,,,,,,,,,,,,1918.2706915000454,None,,,,,,,,,,,,,,,,,short,49,159,aloud,old,blue,1915.0024382998236,None,1915.0024382998236,None,6,0.2755481996573508,1915.0024382998236,None,0.2755481996573508,1915.2976596001536,None,1915.796866599936,None,1915.796866599936,None,r,2.4492922998033464,1915.796866599936,None,2.4492922998033464,,,71 Aloud,001,2022_Nov_03_1505,ProdSingRedoBetween,2021.2.3,59.93306668799621,
,,,,159,0,159,0,,,,,,,,,,,,,,,,,,,,,,1920.3365250001661,None,,,,,,,,,,,,,,,,,session,52,160,aloud,old,blue,1918.782945400104,None,1918.782945400104,None,6,0.7430826001800597,1918.782945400104,None,0.7430826001800597,1919.55204819981,None,1920.0574217997491,None,1920.0574217997491,None,r,0.2526452001184225,1920.0574217997491,None,0.2526452001184225,,,71 Aloud,001,2022_Nov_03_1505,ProdSingRedoBetween,2021.2.3,59.93306668799621,
,,,,160,0,160,0,,,,,,,,,,,,,,,,,,,,,,1922.1863580001518,None,,,,,,,,,,,,,,,,,government,147,161,aloud,new,null,1920.8635829999112,None,1920.8635829999112,None,6,0.5344819002784789,1920.8635829999112,None,0.5344819002784789,1921.4221791997552,None,1921.9396226997487,None,1921.9396226997487,None,r,0.22654619999229908,1921.9396226997487,None,0.22654619999229908,,,71 Aloud,001,2022_Nov_03_1505,ProdSingRedoBetween,2021.2.3,59.93306668799621,
,,,,161,0,161,0,,,,,,,,,,,,,,,,,,,,,,1923.8248028000817,None,,,,,,,,,,,,,,,,,resistance,176,162,aloud,new,null,1922.6981065999717,None,1922.6981065999717,None,6,0.5161958998069167,1922.6981065999717,None,0.5161958998069167,1923.2429770999588,None,1923.7591798999347,None,1923.7591798999347,None,r,0.039087200071662664,1923.7591798999347,None,0.039087200071662664,,,71 Aloud,001,2022_Nov_03_1505,ProdSingRedoBetween,2021.2.3,59.93306668799621,
,,,,162,0,162,0,,,,,,,,,,,,,,,,,,,,,,1925.5830597998574,None,,,,,,,,,,,,,,,,,count,82,163,aloud,old,red,1924.3472978998907,None,1924.3472978998907,None,6,0.5547548001632094,1924.3472978998907,None,0.5547548001632094,1924.9253623997793,None,1925.43987020012,None,1925.43987020012,None,r,0.11044869991019368,1925.43987020012,None,0.11044869991019368,,,71 Aloud,001,2022_Nov_03_1505,ProdSingRedoBetween,2021.2.3,59.93306668799621,
,,,,163,0,163,0,,,,,,,,,,,,,,,,,,,,,,1927.3246149998158,None,,,,,,,,,,,,,,,,,harmony,22,164,aloud,old,yellow,1926.0992642999627,None,1926.0992642999627,None,6,0.5148041001521051,1926.0992642999627,None,0.5148041001521051,1926.6443010000512,None,1927.1581341000274,None,1927.1581341000274,None,r,0.14402549993246794,1927.1581341000274,None,0.14402549993246794,,,71 Aloud,001,2022_Nov_03_1505,ProdSingRedoBetween,2021.2.3,59.93306668799621,
,,,,164,0,164,0,,,,,,,,,,,,,,,,,,,,,,1929.376879800111,None,,,,,,,,,,,,,,,,,fight,73,165,aloud,old,red,1927.838822199963,None,1927.838822199963,None,6,0.8874363000504673,1927.838822199963,None,0.8874363000504673,1928.7479642997496,None,1929.2602527998388,None,1929.2602527998388,None,r,0.08984539983794093,1929.2602527998388,None,0.08984539983794093,,,71 Aloud,001,2022_Nov_03_1505,ProdSingRedoBetween,2021.2.3,59.93306668799621,
,,,,165,0,165,0,,,,,,,,,,,,,,,,,,,,,,1931.8460206999443,None,,,,,,,,,,,,,,,,,century,93,166,aloud,new,null,1929.8827329999767,None,1929.8827329999767,None,6,1.1792729999870062,1929.8827329999767,None,1.1792729999870062,1931.0798772000708,None,1931.5838779001497,None,1931.5838779001497,None,r,0.2381636002101004,1931.5838779001497,None,0.2381636002101004,,,71 Aloud,001,2022_Nov_03_1505,ProdSingRedoBetween,2021.2.3,59.93306668799621,
,,,,166,0,166,0,,,,,,,,,,,,,,,,,,,,,,1933.9814948998392,None,,,,,,,,,,,,,,,,,touch,16,167,aloud,old,yellow,1932.354575399775,None,1932.354575399775,None,6,0.8035381999798119,1932.354575399775,None,0.8035381999798119,1933.1868586000055,None,1933.6993979001418,None,1933.6993979001418,None,r,0.2666577002964914,1933.6993979001418,None,0.2666577002964914,,,71 Aloud,001,2022_Nov_03_1505,ProdSingRedoBetween,2021.2.3,59.93306668799621,
,,,,167,0,167,0,,,,,,,,,,,,,,,,,,,,,,1935.8166730999947,None,,,,,,,,,,,,,,,,,surprise,154,168,aloud,new,null,1934.4966653999873,None,1934.4966653999873,None,6,0.7413548002950847,1934.4966653999873,None,0.7413548002950847,1935.267764300108,None,1935.7901363000274,None,1935.7901363000274,None,r,0.007792799733579159,1935.7901363000274,None,0.007792799733579159,,,71 Aloud,001,2022_Nov_03_1505,ProdSingRedoBetween,2021.2.3,59.93306668799621,
,,,,168,0,168,0,,,,,,,,,,,,,,,,,,,,,,1937.9522583000362,None,,,,,,,,,,,,,,,,,thick,24,169,aloud,old,yellow,1936.323872799985,None,1936.323872799985,None,6,0.4901335001923144,1936.323872799985,None,0.4901335001923144,1936.836495600175,None,1937.3547118999995,None,1937.3547118999995,None,r,0.5712477997876704,1937.3547118999995,None,0.5712477997876704,,,71 Aloud,001,2022_Nov_03_1505,ProdSingRedoBetween,2021.2.3,59.93306668799621,
,,,,169,0,169,0,,,,,,,,,,,,,,,,,,,,,,1939.9708146001212,None,,,,,,,,,,,,,,,,,attack,41,170,aloud,old,blue,1938.4643784998916,None,1938.4643784998916,None,6,0.5096787000074983,1938.4643784998916,None,0.5096787000074983,1939.0106216999702,None,1939.528952000197,None,1939.528952000197,None,r,0.413145599886775,1939.528952000197,None,0.413145599886775,,,71 Aloud,001,2022_Nov_03_1505,ProdSingRedoBetween,2021.2.3,59.93306668799621,
,,,,170,0,170,0,,,,,,,,,,,,,,,,,,,,,,1941.9394482001662,None,,,,,,,,,,,,,,,,,route,9,171,aloud,old,yellow,1940.4730088999495,None,1940.4730088999495,None,6,0.6693113003857434,1940.4730088999495,None,0.6693113003857434,1941.1760956998914,None,1941.6893755001947,None,1941.6893755001947,None,r,0.22864479990676045,1941.6893755001947,None,0.22864479990676045,,,71 Aloud,001,2022_Nov_03_1505,ProdSingRedoBetween,2021.2.3,59.93306668799621,
,,,,171,0,171,0,,,,,,,,,,,,,,,,,,,,,,1943.7638592999429,None,,,,,,,,,,,,,,,,,device,71,172,aloud,old,red,1942.4510882999748,None,1942.4510882999748,None,6,0.554976399987936,1942.4510882999748,None,0.554976399987936,1943.0274042999372,None,1943.541154500097,None,1943.541154500097,None,r,0.20087470021098852,1943.541154500097,None,0.20087470021098852,,,71 Aloud,001,2022_Nov_03_1505,ProdSingRedoBetween,2021.2.3,59.93306668799621,
,,,,172,0,172,0,,,,,,,,,,,,,,,,,,,,,,1945.5765300998464,None,,,,,,,,,,,,,,,,,trail,14,173,aloud,old,yellow,1944.2752359001897,None,1944.2752359001897,None,6,0.5948135000653565,1944.2752359001897,None,0.5948135000653565,1944.9019057000987,None,1945.4097369997762,None,1945.4097369997762,None,r,0.14825260033831,1945.4097369997762,None,0.14825260033831,,,71 Aloud,001,2022_Nov_03_1505,ProdSingRedoBetween,2021.2.3,59.93306668799621,
,,,,173,0,173,0,,,,,,,,,,,,,,,,,,,,,,1947.1960124000907,None,,,,,,,,,,,,,,,,,permit,7,174,aloud,old,yellow,1946.0848360997625,None,1946.0848360997625,None,6,0.43320690002292395,1946.0848360997625,None,0.43320690002292395,1946.5463458001614,None,1947.0640091998503,None,1947.0640091998503,None,r,0.10217289999127388,1947.0640091998503,None,0.10217289999127388,,,71 Aloud,001,2022_Nov_03_1505,ProdSingRedoBetween,2021.2.3,59.93306668799621,
