StudyLoop.thisRepN,StudyLoop.thisTrialN,StudyLoop.thisN,StudyLoop.thisIndex,TestLoop.thisRepN,TestLoop.thisTrialN,TestLoop.thisN,TestLoop.thisIndex,textCondition.started,textCondition.stopped,keyCondition.keys,keyCondition.rt,keyCondition.started,keyCondition.stopped,Condition,textWelcome.started,textWelcome.stopped,keyWelcome.keys,keyWelcome.rt,keyWelcome.started,keyWelcome.stopped,textAloud.started,textAloud.stopped,textSilent.started,textSilent.stopped,textSing.started,textSing.stopped,conditional_text.started,conditional_text.stopped,textBlank500.started,textBlank500.stopped,study_word,study_num,study_order,study_type,word_color,textStudy.started,textStudy.stopped,keyStudy.keys,keyStudy.started,keyStudy.stopped,textTestInstructions.started,textTestInstructions.stopped,key_resp_3.keys,key_resp_3.rt,key_resp_3.started,key_resp_3.stopped,test_word,test_num,test_order,test_condition,old_new_test,test_word_original_color,textConf.started,textConf.stopped,textConfScale.started,textConfScale.stopped,keyConf.keys,keyConf.rt,keyConf.started,keyConf.stopped,confidence response time,textTestBlank.started,textTestBlank.stopped,textRKN.started,textRKN.stopped,textRKNScale.started,textRKNScale.stopped,keyRKN.keys,keyRKN.rt,keyRKN.started,keyRKN.stopped,rkn response time,textEnd.started,textEnd.stopped,participant,session,date,expName,psychopyVersion,frameRate,
,,,,,,,,25.96355039998889,None,c,3.4377354998141527,25.96355039998889,None,,,,,,,,,,,,,,,,,,,,,,,,,,,,,,,,,,,,,,,,,,,,,,,,,,,,,,,,,,,,,,72 Sing,001,2022_Nov_03_1540,ProdSingRedoBetween,2021.2.3,60.0964067881892,
,,,,,,,,,,,,,,SingTest,29.442001699935645,None,space,335.551005799789,29.442001699935645,None,,,,,,,,,,,,,,,,,,,,,,,,,,,,,,,,,,,,,,,,,,,,,,,,,,,,,,,72 Sing,001,2022_Nov_03_1540,ProdSingRedoBetween,2021.2.3,60.0964067881892,
0,0,0,0,,,,,,,,,,,,,,,,,,29.442001699935645,None,29.442001699935645,None,29.442001699935645,None,29.442001699935645,None,367.5363110997714,None,rural,66,1,sing,red,365.5264085000381,None,None,365.5264085000381,None,,,,,,,,,,,,,,,,,,,,,,,,,,,,,,,,,,,72 Sing,001,2022_Nov_03_1540,ProdSingRedoBetween,2021.2.3,60.0964067881892,
1,0,1,0,,,,,,,,,,,,,,,,,,,,,,,,,,370.0553823998198,None,broad,84,2,sing,red,368.0420069000684,None,None,368.0420069000684,None,,,,,,,,,,,,,,,,,,,,,,,,,,,,,,,,,,,72 Sing,001,2022_Nov_03_1540,ProdSingRedoBetween,2021.2.3,60.0964067881892,
2,0,2,0,,,,,,,,,,,,,,,,,,,,,,,,,,372.57468299986795,None,expansion,58,3,sing,blue,370.57165260007605,None,None,370.57165260007605,None,,,,,,,,,,,,,,,,,,,,,,,,,,,,,,,,,,,72 Sing,001,2022_Nov_03_1540,ProdSingRedoBetween,2021.2.3,60.0964067881892,
3,0,3,0,,,,,,,,,,,,,,,,,,,,,,,,,,375.0937320999801,None,course,57,4,sing,blue,373.0800385000184,None,None,373.0800385000184,None,,,,,,,,,,,,,,,,,,,,,,,,,,,,,,,,,,,72 Sing,001,2022_Nov_03_1540,ProdSingRedoBetween,2021.2.3,60.0964067881892,
4,0,4,0,,,,,,,,,,,,,,,,,,,,,,,,,,377.6128933997825,None,spoke,7,5,sing,yellow,375.6017009001225,None,None,375.6017009001225,None,,,,,,,,,,,,,,,,,,,,,,,,,,,,,,,,,,,72 Sing,001,2022_Nov_03_1540,ProdSingRedoBetween,2021.2.3,60.0964067881892,
5,0,5,0,,,,,,,,,,,,,,,,,,,,,,,,,,380.1153983999975,None,impact,18,6,sing,yellow,378.11343090003356,None,None,378.11343090003356,None,,,,,,,,,,,,,,,,,,,,,,,,,,,,,,,,,,,72 Sing,001,2022_Nov_03_1540,ProdSingRedoBetween,2021.2.3,60.0964067881892,
6,0,6,0,,,,,,,,,,,,,,,,,,,,,,,,,,382.6178393000737,None,career,26,7,sing,yellow,380.61828960012645,None,None,380.61828960012645,None,,,,,,,,,,,,,,,,,,,,,,,,,,,,,,,,,,,72 Sing,001,2022_Nov_03_1540,ProdSingRedoBetween,2021.2.3,60.0964067881892,
7,0,7,0,,,,,,,,,,,,,,,,,,,,,,,,,,385.1203586999327,None,shape,69,8,sing,red,383.1184013998136,None,None,383.1184013998136,None,,,,,,,,,,,,,,,,,,,,,,,,,,,,,,,,,,,72 Sing,001,2022_Nov_03_1540,ProdSingRedoBetween,2021.2.3,60.0964067881892,
8,0,8,0,,,,,,,,,,,,,,,,,,,,,,,,,,387.6395474001765,None,quiet,0,9,sing,yellow,385.6370573001914,None,None,385.6370573001914,None,,,,,,,,,,,,,,,,,,,,,,,,,,,,,,,,,,,72 Sing,001,2022_Nov_03_1540,ProdSingRedoBetween,2021.2.3,60.0964067881892,
9,0,9,0,,,,,,,,,,,,,,,,,,,,,,,,,,390.15874919993803,None,express,33,10,sing,blue,388.1447219001129,None,None,388.1447219001129,None,,,,,,,,,,,,,,,,,,,,,,,,,,,,,,,,,,,72 Sing,001,2022_Nov_03_1540,ProdSingRedoBetween,2021.2.3,60.0964067881892,
10,0,10,0,,,,,,,,,,,,,,,,,,,,,,,,,,392.67800919990987,None,edition,88,11,sing,red,390.6706071998924,None,None,390.6706071998924,None,,,,,,,,,,,,,,,,,,,,,,,,,,,,,,,,,,,72 Sing,001,2022_Nov_03_1540,ProdSingRedoBetween,2021.2.3,60.0964067881892,
11,0,11,0,,,,,,,,,,,,,,,,,,,,,,,,,,395.18020919989794,None,report,29,12,sing,blue,393.1784389000386,None,None,393.1784389000386,None,,,,,,,,,,,,,,,,,,,,,,,,,,,,,,,,,,,72 Sing,001,2022_Nov_03_1540,ProdSingRedoBetween,2021.2.3,60.0964067881892,
12,0,12,0,,,,,,,,,,,,,,,,,,,,,,,,,,397.6829705000855,None,election,6,13,sing,yellow,395.682669499889,None,None,395.682669499889,None,,,,,,,,,,,,,,,,,,,,,,,,,,,,,,,,,,,72 Sing,001,2022_Nov_03_1540,ProdSingRedoBetween,2021.2.3,60.0964067881892,
13,0,13,0,,,,,,,,,,,,,,,,,,,,,,,,,,400.2021535001695,None,salary,10,14,sing,yellow,398.18847300019115,None,None,398.18847300019115,None,,,,,,,,,,,,,,,,,,,,,,,,,,,,,,,,,,,72 Sing,001,2022_Nov_03_1540,ProdSingRedoBetween,2021.2.3,60.0964067881892,
14,0,14,0,,,,,,,,,,,,,,,,,,,,,,,,,,402.7212784001604,None,colonel,81,15,sing,red,400.70592209976166,None,None,400.70592209976166,None,,,,,,,,,,,,,,,,,,,,,,,,,,,,,,,,,,,72 Sing,001,2022_Nov_03_1540,ProdSingRedoBetween,2021.2.3,60.0964067881892,
15,0,15,0,,,,,,,,,,,,,,,,,,,,,,,,,,405.24034179979935,None,error,35,16,sing,blue,403.2257841001265,None,None,403.2257841001265,None,,,,,,,,,,,,,,,,,,,,,,,,,,,,,,,,,,,72 Sing,001,2022_Nov_03_1540,ProdSingRedoBetween,2021.2.3,60.0964067881892,
16,0,16,0,,,,,,,,,,,,,,,,,,,,,,,,,,407.742962599732,None,trial,1,17,sing,yellow,405.7406846000813,None,None,405.7406846000813,None,,,,,,,,,,,,,,,,,,,,,,,,,,,,,,,,,,,72 Sing,001,2022_Nov_03_1540,ProdSingRedoBetween,2021.2.3,60.0964067881892,
17,0,17,0,,,,,,,,,,,,,,,,,,,,,,,,,,410.2622122997418,None,sight,9,18,sing,yellow,408.2474933001213,None,None,408.2474933001213,None,,,,,,,,,,,,,,,,,,,,,,,,,,,,,,,,,,,72 Sing,001,2022_Nov_03_1540,ProdSingRedoBetween,2021.2.3,60.0964067881892,
18,0,18,0,,,,,,,,,,,,,,,,,,,,,,,,,,412.76461259974167,None,equipment,25,19,sing,yellow,410.7629418000579,None,None,410.7629418000579,None,,,,,,,,,,,,,,,,,,,,,,,,,,,,,,,,,,,72 Sing,001,2022_Nov_03_1540,ProdSingRedoBetween,2021.2.3,60.0964067881892,
19,0,19,0,,,,,,,,,,,,,,,,,,,,,,,,,,415.2670958000235,None,patient,28,20,sing,yellow,413.26576490001753,None,None,413.26576490001753,None,,,,,,,,,,,,,,,,,,,,,,,,,,,,,,,,,,,72 Sing,001,2022_Nov_03_1540,ProdSingRedoBetween,2021.2.3,60.0964067881892,
20,0,20,0,,,,,,,,,,,,,,,,,,,,,,,,,,417.7862919997424,None,estate,53,21,sing,blue,415.77362129976973,None,None,415.77362129976973,None,,,,,,,,,,,,,,,,,,,,,,,,,,,,,,,,,,,72 Sing,001,2022_Nov_03_1540,ProdSingRedoBetween,2021.2.3,60.0964067881892,
21,0,21,0,,,,,,,,,,,,,,,,,,,,,,,,,,420.28893159981817,None,collection,2,22,sing,yellow,418.2868194999173,None,None,418.2868194999173,None,,,,,,,,,,,,,,,,,,,,,,,,,,,,,,,,,,,72 Sing,001,2022_Nov_03_1540,ProdSingRedoBetween,2021.2.3,60.0964067881892,
22,0,22,0,,,,,,,,,,,,,,,,,,,,,,,,,,422.7913712998852,None,crime,38,23,sing,blue,420.78936850000173,None,None,420.78936850000173,None,,,,,,,,,,,,,,,,,,,,,,,,,,,,,,,,,,,72 Sing,001,2022_Nov_03_1540,ProdSingRedoBetween,2021.2.3,60.0964067881892,
23,0,23,0,,,,,,,,,,,,,,,,,,,,,,,,,,425.3104380001314,None,center,27,24,sing,yellow,423.2970464997925,None,None,423.2970464997925,None,,,,,,,,,,,,,,,,,,,,,,,,,,,,,,,,,,,72 Sing,001,2022_Nov_03_1540,ProdSingRedoBetween,2021.2.3,60.0964067881892,
24,0,24,0,,,,,,,,,,,,,,,,,,,,,,,,,,427.8130318997428,None,atmosphere,30,25,sing,blue,425.81391739984974,None,None,425.81391739984974,None,,,,,,,,,,,,,,,,,,,,,,,,,,,,,,,,,,,72 Sing,001,2022_Nov_03_1540,ProdSingRedoBetween,2021.2.3,60.0964067881892,
25,0,25,0,,,,,,,,,,,,,,,,,,,,,,,,,,430.3319465997629,None,country,85,26,sing,red,428.3184752999805,None,None,428.3184752999805,None,,,,,,,,,,,,,,,,,,,,,,,,,,,,,,,,,,,72 Sing,001,2022_Nov_03_1540,ProdSingRedoBetween,2021.2.3,60.0964067881892,
26,0,26,0,,,,,,,,,,,,,,,,,,,,,,,,,,432.8512740000151,None,count,46,27,sing,blue,430.8379474999383,None,None,430.8379474999383,None,,,,,,,,,,,,,,,,,,,,,,,,,,,,,,,,,,,72 Sing,001,2022_Nov_03_1540,ProdSingRedoBetween,2021.2.3,60.0964067881892,
27,0,27,0,,,,,,,,,,,,,,,,,,,,,,,,,,435.3539017997682,None,force,54,28,sing,blue,433.3536896998994,None,None,433.3536896998994,None,,,,,,,,,,,,,,,,,,,,,,,,,,,,,,,,,,,72 Sing,001,2022_Nov_03_1540,ProdSingRedoBetween,2021.2.3,60.0964067881892,
28,0,28,0,,,,,,,,,,,,,,,,,,,,,,,,,,437.87318760016933,None,strain,44,29,sing,blue,435.86491080000997,None,None,435.86491080000997,None,,,,,,,,,,,,,,,,,,,,,,,,,,,,,,,,,,,72 Sing,001,2022_Nov_03_1540,ProdSingRedoBetween,2021.2.3,60.0964067881892,
29,0,29,0,,,,,,,,,,,,,,,,,,,,,,,,,,440.3755092998035,None,public,64,30,sing,red,438.37368809990585,None,None,438.37368809990585,None,,,,,,,,,,,,,,,,,,,,,,,,,,,,,,,,,,,72 Sing,001,2022_Nov_03_1540,ProdSingRedoBetween,2021.2.3,60.0964067881892,
30,0,30,0,,,,,,,,,,,,,,,,,,,,,,,,,,442.87795870006084,None,plane,49,31,sing,blue,440.8758430997841,None,None,440.8758430997841,None,,,,,,,,,,,,,,,,,,,,,,,,,,,,,,,,,,,72 Sing,001,2022_Nov_03_1540,ProdSingRedoBetween,2021.2.3,60.0964067881892,
31,0,31,0,,,,,,,,,,,,,,,,,,,,,,,,,,445.38047209987417,None,military,19,32,sing,yellow,443.37908589979634,None,None,443.37908589979634,None,,,,,,,,,,,,,,,,,,,,,,,,,,,,,,,,,,,72 Sing,001,2022_Nov_03_1540,ProdSingRedoBetween,2021.2.3,60.0964067881892,
32,0,32,0,,,,,,,,,,,,,,,,,,,,,,,,,,447.899419200141,None,government,31,33,sing,blue,445.88486609980464,None,None,445.88486609980464,None,,,,,,,,,,,,,,,,,,,,,,,,,,,,,,,,,,,72 Sing,001,2022_Nov_03_1540,ProdSingRedoBetween,2021.2.3,60.0964067881892,
33,0,33,0,,,,,,,,,,,,,,,,,,,,,,,,,,450.41888820007443,None,phrase,42,34,sing,blue,448.4079213999212,None,None,448.4079213999212,None,,,,,,,,,,,,,,,,,,,,,,,,,,,,,,,,,,,72 Sing,001,2022_Nov_03_1540,ProdSingRedoBetween,2021.2.3,60.0964067881892,
34,0,34,0,,,,,,,,,,,,,,,,,,,,,,,,,,452.9214004999958,None,company,75,35,sing,red,450.9193214997649,None,None,450.9193214997649,None,,,,,,,,,,,,,,,,,,,,,,,,,,,,,,,,,,,72 Sing,001,2022_Nov_03_1540,ProdSingRedoBetween,2021.2.3,60.0964067881892,
35,0,35,0,,,,,,,,,,,,,,,,,,,,,,,,,,455.4238362000324,None,power,61,36,sing,red,453.4218347999267,None,None,453.4218347999267,None,,,,,,,,,,,,,,,,,,,,,,,,,,,,,,,,,,,72 Sing,001,2022_Nov_03_1540,ProdSingRedoBetween,2021.2.3,60.0964067881892,
36,0,36,0,,,,,,,,,,,,,,,,,,,,,,,,,,457.92634639982134,None,quantity,63,37,sing,red,455.92553720017895,None,None,455.92553720017895,None,,,,,,,,,,,,,,,,,,,,,,,,,,,,,,,,,,,72 Sing,001,2022_Nov_03_1540,ProdSingRedoBetween,2021.2.3,60.0964067881892,
37,0,37,0,,,,,,,,,,,,,,,,,,,,,,,,,,460.4288082001731,None,territory,15,38,sing,yellow,458.42903310013935,None,None,458.42903310013935,None,,,,,,,,,,,,,,,,,,,,,,,,,,,,,,,,,,,72 Sing,001,2022_Nov_03_1540,ProdSingRedoBetween,2021.2.3,60.0964067881892,
38,0,38,0,,,,,,,,,,,,,,,,,,,,,,,,,,462.94804679974914,None,principal,11,39,sing,yellow,460.9352779001929,None,None,460.9352779001929,None,,,,,,,,,,,,,,,,,,,,,,,,,,,,,,,,,,,72 Sing,001,2022_Nov_03_1540,ProdSingRedoBetween,2021.2.3,60.0964067881892,
39,0,39,0,,,,,,,,,,,,,,,,,,,,,,,,,,465.45051900018007,None,order,5,40,sing,yellow,463.4485845998861,None,None,463.4485845998861,None,,,,,,,,,,,,,,,,,,,,,,,,,,,,,,,,,,,72 Sing,001,2022_Nov_03_1540,ProdSingRedoBetween,2021.2.3,60.0964067881892,
40,0,40,0,,,,,,,,,,,,,,,,,,,,,,,,,,467.9696872001514,None,dozen,21,41,sing,yellow,465.9605588000268,None,None,465.9605588000268,None,,,,,,,,,,,,,,,,,,,,,,,,,,,,,,,,,,,72 Sing,001,2022_Nov_03_1540,ProdSingRedoBetween,2021.2.3,60.0964067881892,
41,0,41,0,,,,,,,,,,,,,,,,,,,,,,,,,,470.48893099976704,None,silence,43,42,sing,blue,468.4815523000434,None,None,468.4815523000434,None,,,,,,,,,,,,,,,,,,,,,,,,,,,,,,,,,,,72 Sing,001,2022_Nov_03_1540,ProdSingRedoBetween,2021.2.3,60.0964067881892,
42,0,42,0,,,,,,,,,,,,,,,,,,,,,,,,,,472.9913837001659,None,platform,41,43,sing,blue,470.98948600003496,None,None,470.98948600003496,None,,,,,,,,,,,,,,,,,,,,,,,,,,,,,,,,,,,72 Sing,001,2022_Nov_03_1540,ProdSingRedoBetween,2021.2.3,60.0964067881892,
43,0,43,0,,,,,,,,,,,,,,,,,,,,,,,,,,475.4939387999475,None,bureau,23,44,sing,yellow,473.4934871997684,None,None,473.4934871997684,None,,,,,,,,,,,,,,,,,,,,,,,,,,,,,,,,,,,72 Sing,001,2022_Nov_03_1540,ProdSingRedoBetween,2021.2.3,60.0964067881892,
44,0,44,0,,,,,,,,,,,,,,,,,,,,,,,,,,477.99636220000684,None,generation,16,45,sing,yellow,475.9957196000032,None,None,475.9957196000032,None,,,,,,,,,,,,,,,,,,,,,,,,,,,,,,,,,,,72 Sing,001,2022_Nov_03_1540,ProdSingRedoBetween,2021.2.3,60.0964067881892,
45,0,45,0,,,,,,,,,,,,,,,,,,,,,,,,,,480.5155265000649,None,entrance,34,46,sing,blue,478.5001608999446,None,None,478.5001608999446,None,,,,,,,,,,,,,,,,,,,,,,,,,,,,,,,,,,,72 Sing,001,2022_Nov_03_1540,ProdSingRedoBetween,2021.2.3,60.0964067881892,
46,0,46,0,,,,,,,,,,,,,,,,,,,,,,,,,,483.0179988001473,None,oxygen,51,47,sing,blue,481.01866000005975,None,None,481.01866000005975,None,,,,,,,,,,,,,,,,,,,,,,,,,,,,,,,,,,,72 Sing,001,2022_Nov_03_1540,ProdSingRedoBetween,2021.2.3,60.0964067881892,
47,0,47,0,,,,,,,,,,,,,,,,,,,,,,,,,,485.52052980009466,None,threat,24,48,sing,yellow,483.5185364000499,None,None,483.5185364000499,None,,,,,,,,,,,,,,,,,,,,,,,,,,,,,,,,,,,72 Sing,001,2022_Nov_03_1540,ProdSingRedoBetween,2021.2.3,60.0964067881892,
48,0,48,0,,,,,,,,,,,,,,,,,,,,,,,,,,488.02302879979834,None,pattern,52,49,sing,blue,486.0213338001631,None,None,486.0213338001631,None,,,,,,,,,,,,,,,,,,,,,,,,,,,,,,,,,,,72 Sing,001,2022_Nov_03_1540,ProdSingRedoBetween,2021.2.3,60.0964067881892,
49,0,49,0,,,,,,,,,,,,,,,,,,,,,,,,,,490.52554780011997,None,touch,65,50,sing,red,488.5235390001908,None,None,488.5235390001908,None,,,,,,,,,,,,,,,,,,,,,,,,,,,,,,,,,,,72 Sing,001,2022_Nov_03_1540,ProdSingRedoBetween,2021.2.3,60.0964067881892,
50,0,50,0,,,,,,,,,,,,,,,,,,,,,,,,,,493.0444662999362,None,route,87,51,sing,red,491.0291857998818,None,None,491.0291857998818,None,,,,,,,,,,,,,,,,,,,,,,,,,,,,,,,,,,,72 Sing,001,2022_Nov_03_1540,ProdSingRedoBetween,2021.2.3,60.0964067881892,
51,0,51,0,,,,,,,,,,,,,,,,,,,,,,,,,,495.5472725997679,None,tragedy,8,52,sing,yellow,493.54669319977984,None,None,493.54669319977984,None,,,,,,,,,,,,,,,,,,,,,,,,,,,,,,,,,,,72 Sing,001,2022_Nov_03_1540,ProdSingRedoBetween,2021.2.3,60.0964067881892,
52,0,52,0,,,,,,,,,,,,,,,,,,,,,,,,,,498.04972890019417,None,burden,55,53,sing,blue,496.04776490014046,None,None,496.04776490014046,None,,,,,,,,,,,,,,,,,,,,,,,,,,,,,,,,,,,72 Sing,001,2022_Nov_03_1540,ProdSingRedoBetween,2021.2.3,60.0964067881892,
53,0,53,0,,,,,,,,,,,,,,,,,,,,,,,,,,500.56891239993274,None,research,79,54,sing,red,498.55855379998684,None,None,498.55855379998684,None,,,,,,,,,,,,,,,,,,,,,,,,,,,,,,,,,,,72 Sing,001,2022_Nov_03_1540,ProdSingRedoBetween,2021.2.3,60.0964067881892,
54,0,54,0,,,,,,,,,,,,,,,,,,,,,,,,,,503.0713777001947,None,relation,39,55,sing,blue,501.069378899876,None,None,501.069378899876,None,,,,,,,,,,,,,,,,,,,,,,,,,,,,,,,,,,,72 Sing,001,2022_Nov_03_1540,ProdSingRedoBetween,2021.2.3,60.0964067881892,
55,0,55,0,,,,,,,,,,,,,,,,,,,,,,,,,,505.57383320014924,None,design,74,56,sing,red,503.5746685997583,None,None,503.5746685997583,None,,,,,,,,,,,,,,,,,,,,,,,,,,,,,,,,,,,72 Sing,001,2022_Nov_03_1540,ProdSingRedoBetween,2021.2.3,60.0964067881892,
56,0,56,0,,,,,,,,,,,,,,,,,,,,,,,,,,508.07622940000147,None,husband,62,57,sing,red,506.0751323001459,None,None,506.0751323001459,None,,,,,,,,,,,,,,,,,,,,,,,,,,,,,,,,,,,72 Sing,001,2022_Nov_03_1540,ProdSingRedoBetween,2021.2.3,60.0964067881892,
57,0,57,0,,,,,,,,,,,,,,,,,,,,,,,,,,510.59552010009065,None,judge,56,58,sing,blue,508.58388279983774,None,None,508.58388279983774,None,,,,,,,,,,,,,,,,,,,,,,,,,,,,,,,,,,,72 Sing,001,2022_Nov_03_1540,ProdSingRedoBetween,2021.2.3,60.0964067881892,
58,0,58,0,,,,,,,,,,,,,,,,,,,,,,,,,,513.0977528998628,None,division,13,59,sing,yellow,511.0964726000093,None,None,511.0964726000093,None,,,,,,,,,,,,,,,,,,,,,,,,,,,,,,,,,,,72 Sing,001,2022_Nov_03_1540,ProdSingRedoBetween,2021.2.3,60.0964067881892,
59,0,59,0,,,,,,,,,,,,,,,,,,,,,,,,,,515.6004896997474,None,weather,77,60,sing,red,513.5985217001289,None,None,513.5985217001289,None,,,,,,,,,,,,,,,,,,,,,,,,,,,,,,,,,,,72 Sing,001,2022_Nov_03_1540,ProdSingRedoBetween,2021.2.3,60.0964067881892,
60,0,60,0,,,,,,,,,,,,,,,,,,,,,,,,,,518.1196985999122,None,private,48,61,sing,blue,516.1147924000397,None,None,516.1147924000397,None,,,,,,,,,,,,,,,,,,,,,,,,,,,,,,,,,,,72 Sing,001,2022_Nov_03_1540,ProdSingRedoBetween,2021.2.3,60.0964067881892,
61,0,61,0,,,,,,,,,,,,,,,,,,,,,,,,,,520.6221831999719,None,question,60,62,sing,red,518.6201575999148,None,None,518.6201575999148,None,,,,,,,,,,,,,,,,,,,,,,,,,,,,,,,,,,,72 Sing,001,2022_Nov_03_1540,ProdSingRedoBetween,2021.2.3,60.0964067881892,
62,0,62,0,,,,,,,,,,,,,,,,,,,,,,,,,,523.1248130998574,None,material,59,63,sing,yellow,521.1237917998806,None,None,521.1237917998806,None,,,,,,,,,,,,,,,,,,,,,,,,,,,,,,,,,,,72 Sing,001,2022_Nov_03_1540,ProdSingRedoBetween,2021.2.3,60.0964067881892,
63,0,63,0,,,,,,,,,,,,,,,,,,,,,,,,,,525.627094999887,None,youth,50,64,sing,blue,523.6259865001775,None,None,523.6259865001775,None,,,,,,,,,,,,,,,,,,,,,,,,,,,,,,,,,,,72 Sing,001,2022_Nov_03_1540,ProdSingRedoBetween,2021.2.3,60.0964067881892,
64,0,64,0,,,,,,,,,,,,,,,,,,,,,,,,,,528.146355799865,None,employment,45,65,sing,blue,526.1397710000165,None,None,526.1397710000165,None,,,,,,,,,,,,,,,,,,,,,,,,,,,,,,,,,,,72 Sing,001,2022_Nov_03_1540,ProdSingRedoBetween,2021.2.3,60.0964067881892,
65,0,65,0,,,,,,,,,,,,,,,,,,,,,,,,,,530.6654767999426,None,review,32,66,sing,blue,528.6540569001809,None,None,528.6540569001809,None,,,,,,,,,,,,,,,,,,,,,,,,,,,,,,,,,,,72 Sing,001,2022_Nov_03_1540,ProdSingRedoBetween,2021.2.3,60.0964067881892,
66,0,66,0,,,,,,,,,,,,,,,,,,,,,,,,,,533.1681030001491,None,trend,12,67,sing,yellow,531.1669882000424,None,None,531.1669882000424,None,,,,,,,,,,,,,,,,,,,,,,,,,,,,,,,,,,,72 Sing,001,2022_Nov_03_1540,ProdSingRedoBetween,2021.2.3,60.0964067881892,
67,0,67,0,,,,,,,,,,,,,,,,,,,,,,,,,,535.6871742000803,None,brief,37,68,sing,blue,533.67257039994,None,None,533.67257039994,None,,,,,,,,,,,,,,,,,,,,,,,,,,,,,,,,,,,72 Sing,001,2022_Nov_03_1540,ProdSingRedoBetween,2021.2.3,60.0964067881892,
68,0,68,0,,,,,,,,,,,,,,,,,,,,,,,,,,538.1896580001339,None,addition,73,69,sing,red,536.1900725001469,None,None,536.1900725001469,None,,,,,,,,,,,,,,,,,,,,,,,,,,,,,,,,,,,72 Sing,001,2022_Nov_03_1540,ProdSingRedoBetween,2021.2.3,60.0964067881892,
69,0,69,0,,,,,,,,,,,,,,,,,,,,,,,,,,540.7090866998769,None,skill,78,70,sing,red,538.6962084001862,None,None,538.6962084001862,None,,,,,,,,,,,,,,,,,,,,,,,,,,,,,,,,,,,72 Sing,001,2022_Nov_03_1540,ProdSingRedoBetween,2021.2.3,60.0964067881892,
70,0,70,0,,,,,,,,,,,,,,,,,,,,,,,,,,543.2114647999406,None,region,89,71,sing,red,541.2094020000659,None,None,541.2094020000659,None,,,,,,,,,,,,,,,,,,,,,,,,,,,,,,,,,,,72 Sing,001,2022_Nov_03_1540,ProdSingRedoBetween,2021.2.3,60.0964067881892,
71,0,71,0,,,,,,,,,,,,,,,,,,,,,,,,,,545.7139213001356,None,conference,3,72,sing,yellow,543.7125475001521,None,None,543.7125475001521,None,,,,,,,,,,,,,,,,,,,,,,,,,,,,,,,,,,,72 Sing,001,2022_Nov_03_1540,ProdSingRedoBetween,2021.2.3,60.0964067881892,
72,0,72,0,,,,,,,,,,,,,,,,,,,,,,,,,,548.2330594998784,None,discovery,47,73,sing,blue,546.222374800127,None,None,546.222374800127,None,,,,,,,,,,,,,,,,,,,,,,,,,,,,,,,,,,,72 Sing,001,2022_Nov_03_1540,ProdSingRedoBetween,2021.2.3,60.0964067881892,
73,0,73,0,,,,,,,,,,,,,,,,,,,,,,,,,,550.7522275000811,None,device,22,74,sing,yellow,548.7407327997498,None,None,548.7407327997498,None,,,,,,,,,,,,,,,,,,,,,,,,,,,,,,,,,,,72 Sing,001,2022_Nov_03_1540,ProdSingRedoBetween,2021.2.3,60.0964067881892,
74,0,74,0,,,,,,,,,,,,,,,,,,,,,,,,,,553.2714192001149,None,universal,80,75,sing,red,551.2574404999614,None,None,551.2574404999614,None,,,,,,,,,,,,,,,,,,,,,,,,,,,,,,,,,,,72 Sing,001,2022_Nov_03_1540,ProdSingRedoBetween,2021.2.3,60.0964067881892,
75,0,75,0,,,,,,,,,,,,,,,,,,,,,,,,,,555.773869200144,None,scene,82,76,sing,red,553.774729500059,None,None,553.774729500059,None,,,,,,,,,,,,,,,,,,,,,,,,,,,,,,,,,,,72 Sing,001,2022_Nov_03_1540,ProdSingRedoBetween,2021.2.3,60.0964067881892,
76,0,76,0,,,,,,,,,,,,,,,,,,,,,,,,,,558.2764773997478,None,accident,83,77,sing,red,556.2762096999213,None,None,556.2762096999213,None,,,,,,,,,,,,,,,,,,,,,,,,,,,,,,,,,,,72 Sing,001,2022_Nov_03_1540,ProdSingRedoBetween,2021.2.3,60.0964067881892,
77,0,77,0,,,,,,,,,,,,,,,,,,,,,,,,,,560.7788714999333,None,dream,17,78,sing,yellow,558.7771704997867,None,None,558.7771704997867,None,,,,,,,,,,,,,,,,,,,,,,,,,,,,,,,,,,,72 Sing,001,2022_Nov_03_1540,ProdSingRedoBetween,2021.2.3,60.0964067881892,
78,0,78,0,,,,,,,,,,,,,,,,,,,,,,,,,,563.2813817001879,None,agency,67,79,sing,red,561.2798545998521,None,None,561.2798545998521,None,,,,,,,,,,,,,,,,,,,,,,,,,,,,,,,,,,,72 Sing,001,2022_Nov_03_1540,ProdSingRedoBetween,2021.2.3,60.0964067881892,
79,0,79,0,,,,,,,,,,,,,,,,,,,,,,,,,,565.7842705999501,None,session,72,80,sing,red,563.7823572000489,None,None,563.7823572000489,None,,,,,,,,,,,,,,,,,,,,,,,,,,,,,,,,,,,72 Sing,001,2022_Nov_03_1540,ProdSingRedoBetween,2021.2.3,60.0964067881892,
80,0,80,0,,,,,,,,,,,,,,,,,,,,,,,,,,568.2863913998008,None,religion,76,81,sing,red,566.2841118997894,None,None,566.2841118997894,None,,,,,,,,,,,,,,,,,,,,,,,,,,,,,,,,,,,72 Sing,001,2022_Nov_03_1540,ProdSingRedoBetween,2021.2.3,60.0964067881892,
81,0,81,0,,,,,,,,,,,,,,,,,,,,,,,,,,570.8055736999959,None,gesture,36,82,sing,blue,568.7912575998344,None,None,568.7912575998344,None,,,,,,,,,,,,,,,,,,,,,,,,,,,,,,,,,,,72 Sing,001,2022_Nov_03_1540,ProdSingRedoBetween,2021.2.3,60.0964067881892,
82,0,82,0,,,,,,,,,,,,,,,,,,,,,,,,,,573.3080798001029,None,taste,70,83,sing,red,571.3061402998865,None,None,571.3061402998865,None,,,,,,,,,,,,,,,,,,,,,,,,,,,,,,,,,,,72 Sing,001,2022_Nov_03_1540,ProdSingRedoBetween,2021.2.3,60.0964067881892,
83,0,83,0,,,,,,,,,,,,,,,,,,,,,,,,,,575.810206099879,None,exchange,4,84,sing,yellow,573.8085695998743,None,None,573.8085695998743,None,,,,,,,,,,,,,,,,,,,,,,,,,,,,,,,,,,,72 Sing,001,2022_Nov_03_1540,ProdSingRedoBetween,2021.2.3,60.0964067881892,
84,0,84,0,,,,,,,,,,,,,,,,,,,,,,,,,,578.3127044998109,None,minute,14,85,sing,yellow,576.3115173997357,None,None,576.3115173997357,None,,,,,,,,,,,,,,,,,,,,,,,,,,,,,,,,,,,72 Sing,001,2022_Nov_03_1540,ProdSingRedoBetween,2021.2.3,60.0964067881892,
85,0,85,0,,,,,,,,,,,,,,,,,,,,,,,,,,580.8322286000475,None,close,20,86,sing,yellow,578.8176759001799,None,None,578.8176759001799,None,,,,,,,,,,,,,,,,,,,,,,,,,,,,,,,,,,,72 Sing,001,2022_Nov_03_1540,ProdSingRedoBetween,2021.2.3,60.0964067881892,
86,0,86,0,,,,,,,,,,,,,,,,,,,,,,,,,,583.3347064000554,None,drama,71,87,sing,red,581.3329288000241,None,None,581.3329288000241,None,,,,,,,,,,,,,,,,,,,,,,,,,,,,,,,,,,,72 Sing,001,2022_Nov_03_1540,ProdSingRedoBetween,2021.2.3,60.0964067881892,
87,0,87,0,,,,,,,,,,,,,,,,,,,,,,,,,,585.8372355997562,None,partner,86,88,sing,red,583.8350474000908,None,None,583.8350474000908,None,,,,,,,,,,,,,,,,,,,,,,,,,,,,,,,,,,,72 Sing,001,2022_Nov_03_1540,ProdSingRedoBetween,2021.2.3,60.0964067881892,
88,0,88,0,,,,,,,,,,,,,,,,,,,,,,,,,,588.3564340001903,None,split,40,89,sing,blue,586.3407267997973,None,None,586.3407267997973,None,,,,,,,,,,,,,,,,,,,,,,,,,,,,,,,,,,,72 Sing,001,2022_Nov_03_1540,ProdSingRedoBetween,2021.2.3,60.0964067881892,
89,0,89,0,,,,,,,,,,,,,,,,,,,,,,,,,,590.8756093997508,None,carry,68,90,sing,red,588.861901300028,None,None,588.861901300028,None,,,,,,,,,,,,,,,,,,,,,,,,,,,,,,,,,,,72 Sing,001,2022_Nov_03_1540,ProdSingRedoBetween,2021.2.3,60.0964067881892,
,,,,,,,,,,,,,,,,,,,,,,,,,,,,,,,,,,,,,,,,,591.3763652998023,None,k,249.62393500003964,591.3763652998023,None,,,,,,,,,,,,,,,,,,,,,,,,,,,,,72 Sing,001,2022_Nov_03_1540,ProdSingRedoBetween,2021.2.3,60.0964067881892,
,,,,0,0,0,0,,,,,,,,,,,,,,,,,,,,,,855.5237384000793,None,,,,,,,,,,,,,,,,,atmosphere,30,1,sing,old,blue,841.5302157998085,None,841.5302157998085,None,5,9.246050800196826,841.5302157998085,None,9.246050800196826,850.8044139998965,None,851.3332595000975,None,851.3332595000975,None,f,4.170888100285083,851.3332595000975,None,4.170888100285083,,,72 Sing,001,2022_Nov_03_1540,ProdSingRedoBetween,2021.2.3,60.0964067881892,
,,,,1,0,1,0,,,,,,,,,,,,,,,,,,,,,,863.7852114997804,None,,,,,,,,,,,,,,,,,problem,101,2,sing,new,null,856.0338284000754,None,856.0338284000754,None,6,5.590592700056732,856.0338284000754,None,5.590592700056732,861.6548835998401,None,862.1672960999422,None,862.1672960999422,None,r,1.5929812998510897,862.1672960999422,None,1.5929812998510897,,,72 Sing,001,2022_Nov_03_1540,ProdSingRedoBetween,2021.2.3,60.0964067881892,
,,,,2,0,2,0,,,,,,,,,,,,,,,,,,,,,,869.7546047000214,None,,,,,,,,,,,,,,,,,crime,38,3,sing,old,blue,864.3012139997445,None,864.3012139997445,None,6,3.5071337996050715,864.3012139997445,None,3.5071337996050715,867.8404561998323,None,868.3524225000292,None,868.3524225000292,None,r,1.3758298996835947,868.3524225000292,None,1.3758298996835947,,,72 Sing,001,2022_Nov_03_1540,ProdSingRedoBetween,2021.2.3,60.0964067881892,
,,,,3,0,3,0,,,,,,,,,,,,,,,,,,,,,,875.1424023001455,None,,,,,,,,,,,,,,,,,appeal,156,4,sing,new,null,870.2582784001715,None,870.2582784001715,None,5,3.022039799951017,870.2582784001715,None,3.022039799951017,873.3168933000416,None,873.8278542999178,None,873.8278542999178,None,f,1.2845001998357475,873.8278542999178,None,1.2845001998357475,,,72 Sing,001,2022_Nov_03_1540,ProdSingRedoBetween,2021.2.3,60.0964067881892,
,,,,4,0,4,0,,,,,,,,,,,,,,,,,,,,,,880.0669943001121,None,,,,,,,,,,,,,,,,,route,87,5,sing,old,red,875.6488159997389,None,875.6488159997389,None,6,2.2315655001439154,875.6488159997389,None,2.2315655001439154,877.9029048997909,None,878.4171822997741,None,878.4171822997741,None,f,1.6310598999261856,878.4171822997741,None,1.6310598999261856,,,72 Sing,001,2022_Nov_03_1540,ProdSingRedoBetween,2021.2.3,60.0964067881892,
,,,,5,0,5,0,,,,,,,,,,,,,,,,,,,,,,884.7860201997682,None,,,,,,,,,,,,,,,,,detective,121,6,sing,new,null,880.5839351001196,None,880.5839351001196,None,6,2.400170899927616,880.5839351001196,None,2.400170899927616,883.0015263999812,None,883.5077136000618,None,883.5077136000618,None,r,1.260363600216806,883.5077136000618,None,1.260363600216806,,,72 Sing,001,2022_Nov_03_1540,ProdSingRedoBetween,2021.2.3,60.0964067881892,
,,,,6,0,6,0,,,,,,,,,,,,,,,,,,,,,,889.056300399825,None,,,,,,,,,,,,,,,,,silence,43,7,sing,old,blue,885.2913683997467,None,885.2913683997467,None,6,1.484742000233382,885.2913683997467,None,1.484742000233382,886.804954700172,None,887.3046387000941,None,887.3046387000941,None,r,1.7277130000293255,887.3046387000941,None,1.7277130000293255,,,72 Sing,001,2022_Nov_03_1540,ProdSingRedoBetween,2021.2.3,60.0964067881892,
,,,,7,0,7,0,,,,,,,,,,,,,,,,,,,,,,892.9433940001763,None,,,,,,,,,,,,,,,,,health,171,8,sing,new,null,889.5641842000186,None,889.5641842000186,None,6,1.4839645000174642,889.5641842000186,None,1.4839645000174642,891.0750704999082,None,891.5755859999917,None,891.5755859999917,None,r,1.344597099814564,891.5755859999917,None,1.344597099814564,,,72 Sing,001,2022_Nov_03_1540,ProdSingRedoBetween,2021.2.3,60.0964067881892,
,,,,8,0,8,0,,,,,,,,,,,,,,,,,,,,,,899.4676072001457,None,,,,,,,,,,,,,,,,,listen,152,9,sing,new,null,893.4524317998439,None,893.4524317998439,None,6,1.4996954998932779,893.4524317998439,None,1.4996954998932779,894.9806170999072,None,895.5003435001709,None,895.5003435001709,None,r,3.9399411003105342,895.5003435001709,None,3.9399411003105342,,,72 Sing,001,2022_Nov_03_1540,ProdSingRedoBetween,2021.2.3,60.0964067881892,
,,,,9,0,9,0,,,,,,,,,,,,,,,,,,,,,,905.6561015001498,None,,,,,,,,,,,,,,,,,generation,16,10,sing,old,yellow,899.972626300063,None,899.972626300063,None,6,2.843580899760127,899.972626300063,None,2.843580899760127,902.8411040999927,None,903.3574020997621,None,903.3574020997621,None,r,2.274743199814111,903.3574020997621,None,2.274743199814111,,,72 Sing,001,2022_Nov_03_1540,ProdSingRedoBetween,2021.2.3,60.0964067881892,
,,,,10,0,10,0,,,,,,,,,,,,,,,,,,,,,,909.1763110999018,None,,,,,,,,,,,,,,,,,production,155,11,sing,new,null,906.161528499797,None,906.161528499797,None,6,1.6388074001297355,906.161528499797,None,1.6388074001297355,907.8331995997578,None,908.3422400001436,None,908.3422400001436,None,r,0.810033299960196,908.3422400001436,None,0.810033299960196,,,72 Sing,001,2022_Nov_03_1540,ProdSingRedoBetween,2021.2.3,60.0964067881892,
,,,,11,0,11,0,,,,,,,,,,,,,,,,,,,,,,913.9477324001491,None,,,,,,,,,,,,,,,,,career,26,12,sing,old,yellow,909.6886081998236,None,909.6886081998236,None,6,1.1675694999285042,909.6886081998236,None,1.1675694999285042,910.8832076000981,None,911.3972032000311,None,911.3972032000311,None,r,2.5308811999857426,911.3972032000311,None,2.5308811999857426,,,72 Sing,001,2022_Nov_03_1540,ProdSingRedoBetween,2021.2.3,60.0964067881892,
,,,,12,0,12,0,,,,,,,,,,,,,,,,,,,,,,917.784782699775,None,,,,,,,,,,,,,,,,,bureau,23,13,sing,old,yellow,914.4524536998942,None,914.4524536998942,None,5,1.6836806000210345,914.4524536998942,None,1.6836806000210345,916.1672326000407,None,916.6670111999847,None,916.6670111999847,None,f,1.1011697999201715,916.6670111999847,None,1.1011697999201715,,,72 Sing,001,2022_Nov_03_1540,ProdSingRedoBetween,2021.2.3,60.0964067881892,
,,,,13,0,13,0,,,,,,,,,,,,,,,,,,,,,,922.0437039001845,None,,,,,,,,,,,,,,,,,piece,128,14,sing,new,null,918.2957854997367,None,918.2957854997367,None,6,2.040349100250751,918.2957854997367,None,2.040349100250751,920.3614488998428,None,920.873640100006,None,920.873640100006,None,r,1.1425618999637663,920.873640100006,None,1.1425618999637663,,,72 Sing,001,2022_Nov_03_1540,ProdSingRedoBetween,2021.2.3,60.0964067881892,
,,,,14,0,14,0,,,,,,,,,,,,,,,,,,,,,,925.2924506999552,None,,,,,,,,,,,,,,,,,signal,157,15,sing,new,null,922.569471700117,None,922.569471700117,None,6,1.2226181998848915,922.569471700117,None,1.2226181998848915,923.812975499779,None,924.3249034998007,None,924.3249034998007,None,r,0.939113000407815,924.3249034998007,None,0.939113000407815,,,72 Sing,001,2022_Nov_03_1540,ProdSingRedoBetween,2021.2.3,60.0964067881892,
,,,,15,0,15,0,,,,,,,,,,,,,,,,,,,,,,927.9172155000269,None,,,,,,,,,,,,,,,,,welcome,110,16,sing,new,null,925.7970417998731,None,925.7970417998731,None,6,1.0750007000751793,925.7970417998731,None,1.0750007000751793,926.8937858999707,None,927.3971604998223,None,927.3971604998223,None,r,0.4988932996056974,927.3971604998223,None,0.4988932996056974,,,72 Sing,001,2022_Nov_03_1540,ProdSingRedoBetween,2021.2.3,60.0964067881892,
,,,,16,0,16,0,,,,,,,,,,,,,,,,,,,,,,934.5847489000298,None,,,,,,,,,,,,,,,,,agency,67,17,sing,old,red,928.4369634999894,None,928.4369634999894,None,6,1.5071456003934145,928.4369634999894,None,1.5071456003934145,929.9664984997362,None,930.4850054001436,None,930.4850054001436,None,r,4.075141299981624,930.4850054001436,None,4.075141299981624,,,72 Sing,001,2022_Nov_03_1540,ProdSingRedoBetween,2021.2.3,60.0964067881892,
,,,,17,0,17,0,,,,,,,,,,,,,,,,,,,,,,937.2236151001416,None,,,,,,,,,,,,,,,,,opening,105,18,sing,new,null,935.1004486000165,None,935.1004486000165,None,6,1.1717676999978721,935.1004486000165,None,1.1717676999978721,936.3122950000688,None,936.8207970997319,None,936.8207970997319,None,r,0.37944980012252927,936.8207970997319,None,0.37944980012252927,,,72 Sing,001,2022_Nov_03_1540,ProdSingRedoBetween,2021.2.3,60.0964067881892,
,,,,18,0,18,0,,,,,,,,,,,,,,,,,,,,,,939.8068702998571,None,,,,,,,,,,,,,,,,,poetry,172,19,sing,new,null,937.7482384000905,None,937.7482384000905,None,6,1.0518470997922122,937.7482384000905,None,1.0518470997922122,938.8235182999633,None,939.3260929998942,None,939.3260929998942,None,r,0.45799799961969256,939.3260929998942,None,0.45799799961969256,,,72 Sing,001,2022_Nov_03_1540,ProdSingRedoBetween,2021.2.3,60.0964067881892,
,,,,19,0,19,0,,,,,,,,,,,,,,,,,,,,,,942.4292918997817,None,,,,,,,,,,,,,,,,,error,35,20,sing,old,blue,940.3189090001397,None,940.3189090001397,None,6,1.2492129001766443,940.3189090001397,None,1.2492129001766443,941.5950711001642,None,942.1171728000045,None,942.1171728000045,None,r,0.2830445999279618,942.1171728000045,None,0.2830445999279618,,,72 Sing,001,2022_Nov_03_1540,ProdSingRedoBetween,2021.2.3,60.0964067881892,
,,,,20,0,20,0,,,,,,,,,,,,,,,,,,,,,,944.9619861999527,None,,,,,,,,,,,,,,,,,quick,167,21,sing,new,null,942.9440354998223,None,942.9440354998223,None,6,1.0559851001016796,942.9440354998223,None,1.0559851001016796,944.0305630997755,None,944.5455108997412,None,944.5455108997412,None,r,0.3985701999627054,944.5455108997412,None,0.3985701999627054,,,72 Sing,001,2022_Nov_03_1540,ProdSingRedoBetween,2021.2.3,60.0964067881892,
,,,,21,0,21,0,,,,,,,,,,,,,,,,,,,,,,947.9014662997797,None,,,,,,,,,,,,,,,,,tragedy,8,22,sing,old,yellow,945.4643478998914,None,945.4643478998914,None,6,1.3196197003126144,945.4643478998914,None,1.3196197003126144,946.8150295000523,None,947.3309907000512,None,947.3309907000512,None,r,0.5409931000322104,947.3309907000512,None,0.5409931000322104,,,72 Sing,001,2022_Nov_03_1540,ProdSingRedoBetween,2021.2.3,60.0964067881892,
,,,,22,0,22,0,,,,,,,,,,,,,,,,,,,,,,952.6029178001918,None,,,,,,,,,,,,,,,,,rural,66,23,sing,old,red,948.421054400038,None,948.421054400038,None,4,3.0590157001279294,948.421054400038,None,3.0590157001279294,951.501610700041,None,952.0023611998186,None,952.0023611998186,None,f,0.5736428000964224,952.0023611998186,None,0.5736428000964224,,,72 Sing,001,2022_Nov_03_1540,ProdSingRedoBetween,2021.2.3,60.0964067881892,
,,,,23,0,23,0,,,,,,,,,,,,,,,,,,,,,,955.8895988999866,None,,,,,,,,,,,,,,,,,comfort,176,24,sing,new,null,953.1067341999151,None,953.1067341999151,None,6,1.0854296004399657,953.1067341999151,None,1.0854296004399657,954.2301142001525,None,954.7427249997854,None,954.7427249997854,None,r,1.1213308000005782,954.7427249997854,None,1.1213308000005782,,,72 Sing,001,2022_Nov_03_1540,ProdSingRedoBetween,2021.2.3,60.0964067881892,
,,,,24,0,24,0,,,,,,,,,,,,,,,,,,,,,,959.31066179974,None,,,,,,,,,,,,,,,,,touch,65,25,sing,old,red,956.3925144001842,None,956.3925144001842,None,6,1.8635370996780694,956.3925144001842,None,1.8635370996780694,958.2764659998938,None,958.7828681999817,None,958.7828681999817,None,r,0.505232899915427,958.7828681999817,None,0.505232899915427,,,72 Sing,001,2022_Nov_03_1540,ProdSingRedoBetween,2021.2.3,60.0964067881892,
,,,,25,0,25,0,,,,,,,,,,,,,,,,,,,,,,962.9132758998312,None,,,,,,,,,,,,,,,,,trail,164,26,sing,new,null,959.8238138998859,None,959.8238138998859,None,6,2.192227100022137,959.8238138998859,None,2.192227100022137,962.0470722997561,None,962.5630517997779,None,962.5630517997779,None,f,0.32499670004472136,962.5630517997779,None,0.32499670004472136,,,72 Sing,001,2022_Nov_03_1540,ProdSingRedoBetween,2021.2.3,60.0964067881892,
,,,,26,0,26,0,,,,,,,,,,,,,,,,,,,,,,965.6493293000385,None,,,,,,,,,,,,,,,,,partner,86,27,sing,old,red,963.4141973997466,None,963.4141973997466,None,6,1.265780400019139,963.4141973997466,None,1.265780400019139,964.7012486997992,None,965.2171609997749,None,965.2171609997749,None,r,0.4148748000152409,965.2171609997749,None,0.4148748000152409,,,72 Sing,001,2022_Nov_03_1540,ProdSingRedoBetween,2021.2.3,60.0964067881892,
,,,,27,0,27,0,,,,,,,,,,,,,,,,,,,,,,968.1017264998518,None,,,,,,,,,,,,,,,,,discovery,47,28,sing,old,blue,966.1626674998552,None,966.1626674998552,None,6,1.125548199750483,966.1626674998552,None,1.125548199750483,967.3233563997783,None,967.8375083999708,None,967.8375083999708,None,r,0.23453549994155765,967.8375083999708,None,0.23453549994155765,,,72 Sing,001,2022_Nov_03_1540,ProdSingRedoBetween,2021.2.3,60.0964067881892,
,,,,28,0,28,0,,,,,,,,,,,,,,,,,,,,,,971.8555454998277,None,,,,,,,,,,,,,,,,,gesture,36,29,sing,old,blue,968.6133432001807,None,968.6133432001807,None,5,1.850702999625355,968.6133432001807,None,1.850702999625355,970.4920242000371,None,971.0048062000424,None,971.0048062000424,None,f,0.8272285996936262,971.0048062000424,None,0.8272285996936262,,,72 Sing,001,2022_Nov_03_1540,ProdSingRedoBetween,2021.2.3,60.0964067881892,
,,,,29,0,29,0,,,,,,,,,,,,,,,,,,,,,,974.6249604998156,None,,,,,,,,,,,,,,,,,length,169,30,sing,new,null,972.3572213998996,None,972.3572213998996,None,6,1.3067896999418736,972.3572213998996,None,1.3067896999418736,973.6956516001374,None,974.2076793001033,None,974.2076793001033,None,r,0.4003046997822821,974.2076793001033,None,0.4003046997822821,,,72 Sing,001,2022_Nov_03_1540,ProdSingRedoBetween,2021.2.3,60.0964067881892,
,,,,30,0,30,0,,,,,,,,,,,,,,,,,,,,,,977.0605998998508,None,,,,,,,,,,,,,,,,,appearance,106,31,sing,new,null,975.1367607000284,None,975.1367607000284,None,6,1.2473651999607682,975.1367607000284,None,1.2473651999607682,976.4115508999676,None,976.9160080999136,None,976.9160080999136,None,r,0.12405120022594929,976.9160080999136,None,0.12405120022594929,,,72 Sing,001,2022_Nov_03_1540,ProdSingRedoBetween,2021.2.3,60.0964067881892,
,,,,31,0,31,0,,,,,,,,,,,,,,,,,,,,,,980.0970360999927,None,,,,,,,,,,,,,,,,,council,154,32,sing,new,null,977.5684183998965,None,977.5684183998965,None,6,1.9195861998014152,977.5684183998965,None,1.9195861998014152,979.5148331001401,None,980.0400386997499,None,980.0400386997499,None,f,0.032182700000703335,980.0400386997499,None,0.032182700000703335,,,72 Sing,001,2022_Nov_03_1540,ProdSingRedoBetween,2021.2.3,60.0964067881892,
,,,,32,0,32,0,,,,,,,,,,,,,,,,,,,,,,984.8711264999583,None,,,,,,,,,,,,,,,,,platform,41,33,sing,old,blue,980.6050795000046,None,980.6050795000046,None,5,2.9710875996388495,980.6050795000046,None,2.9710875996388495,983.6026067999192,None,984.1223404998891,None,984.1223404998891,None,f,0.717780299950391,984.1223404998891,None,0.717780299950391,,,72 Sing,001,2022_Nov_03_1540,ProdSingRedoBetween,2021.2.3,60.0964067881892,
,,,,33,0,33,0,,,,,,,,,,,,,,,,,,,,,,987.2709665000439,None,,,,,,,,,,,,,,,,,material,59,34,sing,old,yellow,985.398254300002,None,985.398254300002,None,6,1.2576472000218928,985.398254300002,None,1.2576472000218928,986.686828199774,None,987.1876205001026,None,987.1876205001026,None,r,0.05256420001387596,987.1876205001026,None,0.05256420001387596,,,72 Sing,001,2022_Nov_03_1540,ProdSingRedoBetween,2021.2.3,60.0964067881892,
,,,,34,0,34,0,,,,,,,,,,,,,,,,,,,,,,989.3895078999922,None,,,,,,,,,,,,,,,,,beginning,103,35,sing,new,null,987.7727771997452,None,987.7727771997452,None,6,1.0112381000071764,987.7727771997452,None,1.0112381000071764,988.8059704997577,None,989.3061812999658,None,989.3061812999658,None,r,0.061974100302904844,989.3061812999658,None,0.061974100302904844,,,72 Sing,001,2022_Nov_03_1540,ProdSingRedoBetween,2021.2.3,60.0964067881892,
,,,,35,0,35,0,,,,,,,,,,,,,,,,,,,,,,991.7086006999016,None,,,,,,,,,,,,,,,,,quiet,0,36,sing,old,yellow,989.8940464998595,None,989.8940464998595,None,6,1.0819668001495302,989.8940464998595,None,1.0819668001495302,990.9963297997601,None,991.5187562000938,None,991.5187562000938,None,r,0.16923489980399609,991.5187562000938,None,0.16923489980399609,,,72 Sing,001,2022_Nov_03_1540,ProdSingRedoBetween,2021.2.3,60.0964067881892,
,,,,36,0,36,0,,,,,,,,,,,,,,,,,,,,,,994.4620978999883,None,,,,,,,,,,,,,,,,,spoke,7,37,sing,old,yellow,992.2188905999064,None,992.2188905999064,None,5,1.6131552001461387,992.2188905999064,None,1.6131552001461387,993.8643054999411,None,994.3854224998504,None,994.3854224998504,None,f,0.04673610022291541,994.3854224998504,None,0.04673610022291541,,,72 Sing,001,2022_Nov_03_1540,ProdSingRedoBetween,2021.2.3,60.0964067881892,
,,,,37,0,37,0,,,,,,,,,,,,,,,,,,,,,,997.2641635998152,None,,,,,,,,,,,,,,,,,principal,11,38,sing,old,yellow,994.9657283001579,None,994.9657283001579,None,6,1.4183944002725184,994.9657283001579,None,1.4183944002725184,996.4151321998797,None,996.9334090999328,None,996.9334090999328,None,r,0.30658290022984147,996.9334090999328,None,0.30658290022984147,,,72 Sing,001,2022_Nov_03_1540,ProdSingRedoBetween,2021.2.3,60.0964067881892,
,,,,38,0,38,0,,,,,,,,,,,,,,,,,,,,,,1000.5174638000317,None,,,,,,,,,,,,,,,,,broad,84,39,sing,old,red,997.771526500117,None,997.771526500117,None,4,1.7884550001472235,997.771526500117,None,1.7884550001472235,999.584250099957,None,1000.083765400108,None,1000.083765400108,None,f,0.40421519987285137,1000.083765400108,None,0.40421519987285137,,,72 Sing,001,2022_Nov_03_1540,ProdSingRedoBetween,2021.2.3,60.0964067881892,
,,,,39,0,39,0,,,,,,,,,,,,,,,,,,,,,,1002.7029695999809,None,,,,,,,,,,,,,,,,,dream,17,40,sing,old,yellow,1001.0211535999551,None,1001.0211535999551,None,6,1.058882700279355,1001.0211535999551,None,1.058882700279355,1002.1068365997635,None,1002.6194283999503,None,1002.6194283999503,None,r,0.060526300221681595,1002.6194283999503,None,0.060526300221681595,,,72 Sing,001,2022_Nov_03_1540,ProdSingRedoBetween,2021.2.3,60.0964067881892,
,,,,40,0,40,0,,,,,,,,,,,,,,,,,,,,,,1004.856897499878,None,,,,,,,,,,,,,,,,,owner,111,41,sing,new,null,1003.2154907998629,None,1003.2154907998629,None,6,0.9605705002322793,1003.2154907998629,None,0.9605705002322793,1004.2104409998283,None,1004.725509500131,None,1004.725509500131,None,r,0.10657109972089529,1004.725509500131,None,0.10657109972089529,,,72 Sing,001,2022_Nov_03_1540,ProdSingRedoBetween,2021.2.3,60.0964067881892,
,,,,41,0,41,0,,,,,,,,,,,,,,,,,,,,,,1007.8945933999494,None,,,,,,,,,,,,,,,,,defeat,123,42,sing,new,null,1005.374614899978,None,1005.374614899978,None,6,1.6573727000504732,1005.374614899978,None,1.6573727000504732,1007.0641286000609,None,1007.5790697000921,None,1007.5790697000921,None,r,0.28491450008004904,1007.5790697000921,None,0.28491450008004904,,,72 Sing,001,2022_Nov_03_1540,ProdSingRedoBetween,2021.2.3,60.0964067881892,
,,,,42,0,42,0,,,,,,,,,,,,,,,,,,,,,,1011.5701562999748,None,,,,,,,,,,,,,,,,,watch,119,43,sing,new,null,1008.4087390000932,None,1008.4087390000932,None,6,1.8712291000410914,1008.4087390000932,None,1.8712291000410914,1010.3120948001742,None,1010.8276617000811,None,1010.8276617000811,None,r,0.7165918000973761,1010.8276617000811,None,0.7165918000973761,,,72 Sing,001,2022_Nov_03_1540,ProdSingRedoBetween,2021.2.3,60.0964067881892,
,,,,43,0,43,0,,,,,,,,,,,,,,,,,,,,,,1015.2531630001031,None,,,,,,,,,,,,,,,,,display,143,44,sing,new,null,1012.0790520999581,None,1012.0790520999581,None,5,2.040969100315124,1012.0790520999581,None,2.040969100315124,1014.1526069999672,None,1014.6649965997785,None,1014.6649965997785,None,r,0.5590289998799562,1014.6649965997785,None,0.5590289998799562,,,72 Sing,001,2022_Nov_03_1540,ProdSingRedoBetween,2021.2.3,60.0964067881892,
,,,,44,0,44,0,,,,,,,,,,,,,,,,,,,,,,1021.1897434997372,None,,,,,,,,,,,,,,,,,prime,113,45,sing,new,null,1015.772321399767,None,1015.772321399767,None,4,3.5236095003783703,1015.772321399767,None,3.5236095003783703,1019.3217817000113,None,1019.8482252997346,None,1019.8482252997346,None,f,1.3197491997852921,1019.8482252997346,None,1.3197491997852921,,,72 Sing,001,2022_Nov_03_1540,ProdSingRedoBetween,2021.2.3,60.0964067881892,
,,,,45,0,45,0,,,,,,,,,,,,,,,,,,,,,,1023.9101137998514,None,,,,,,,,,,,,,,,,,death,116,46,sing,new,null,1021.7135410001501,None,1021.7135410001501,None,6,1.3423891998827457,1021.7135410001501,None,1.3423891998827457,1023.076223900076,None,1023.5922004999593,None,1023.5922004999593,None,r,0.29582760017365217,1023.5922004999593,None,0.29582760017365217,,,72 Sing,001,2022_Nov_03_1540,ProdSingRedoBetween,2021.2.3,60.0964067881892,
,,,,46,0,46,0,,,,,,,,,,,,,,,,,,,,,,1026.427404299844,None,,,,,,,,,,,,,,,,,graduate,118,47,sing,new,null,1024.4314390001819,None,1024.4314390001819,None,6,1.0726236999034882,1024.4314390001819,None,1.0726236999034882,1025.5327881001867,None,1026.0462043001316,None,1026.0462043001316,None,r,0.3538907002657652,1026.0462043001316,None,0.3538907002657652,,,72 Sing,001,2022_Nov_03_1540,ProdSingRedoBetween,2021.2.3,60.0964067881892,
,,,,47,0,47,0,,,,,,,,,,,,,,,,,,,,,,1028.7453665998764,None,,,,,,,,,,,,,,,,,track,104,48,sing,new,null,1026.933470199816,None,1026.933470199816,None,6,1.098346299957484,1026.933470199816,None,1.098346299957484,1028.0630477997474,None,1028.5788602000102,None,1028.5788602000102,None,r,0.14111030008643866,1028.5788602000102,None,0.14111030008643866,,,72 Sing,001,2022_Nov_03_1540,ProdSingRedoBetween,2021.2.3,60.0964067881892,
,,,,48,0,48,0,,,,,,,,,,,,,,,,,,,,,,1031.3506768997759,None,,,,,,,,,,,,,,,,,order,5,49,sing,old,yellow,1029.2504461999051,None,1029.2504461999051,None,6,1.2294637002050877,1029.2504461999051,None,1.2294637002050877,1030.4985234998167,None,1031.0002146000043,None,1031.0002146000043,None,r,0.32795430021360517,1031.0002146000043,None,0.32795430021360517,,,72 Sing,001,2022_Nov_03_1540,ProdSingRedoBetween,2021.2.3,60.0964067881892,
,,,,49,0,49,0,,,,,,,,,,,,,,,,,,,,,,1034.267632999923,None,,,,,,,,,,,,,,,,,candidate,94,50,sing,new,null,1031.8839802998118,None,1031.8839802998118,None,6,1.6119377999566495,1031.8839802998118,None,1.6119377999566495,1033.5185433998704,None,1034.0342896999791,None,1034.0342896999791,None,r,0.21366379968822002,1034.0342896999791,None,0.21366379968822002,,,72 Sing,001,2022_Nov_03_1540,ProdSingRedoBetween,2021.2.3,60.0964067881892,
,,,,50,0,50,0,,,,,,,,,,,,,,,,,,,,,,1038.2551229000092,None,,,,,,,,,,,,,,,,,universal,80,51,sing,old,red,1034.7892150999978,None,1034.7892150999978,None,6,1.8506909999996424,1034.7892150999978,None,1.8506909999996424,1036.672810100019,None,1037.19192630006,None,1037.19192630006,None,f,1.0401332001201808,1037.19192630006,None,1.0401332001201808,,,72 Sing,001,2022_Nov_03_1540,ProdSingRedoBetween,2021.2.3,60.0964067881892,
,,,,51,0,51,0,,,,,,,,,,,,,,,,,,,,,,1040.8409494999796,None,,,,,,,,,,,,,,,,,sight,9,52,sing,old,yellow,1038.7725984998979,None,1038.7725984998979,None,6,1.3791956999339163,1038.7725984998979,None,1.3791956999339163,1040.1758320000954,None,1040.6953436001204,None,1040.6953436001204,None,r,0.12073510000482202,1040.6953436001204,None,0.12073510000482202,,,72 Sing,001,2022_Nov_03_1540,ProdSingRedoBetween,2021.2.3,60.0964067881892,
,,,,52,0,52,0,,,,,,,,,,,,,,,,,,,,,,1043.213967999909,None,,,,,,,,,,,,,,,,,thick,166,53,sing,new,null,1041.3515178998932,None,1041.3515178998932,None,6,1.144538199994713,1041.3515178998932,None,1.144538199994713,1042.528773999773,None,1043.0475233001634,None,1043.0475233001634,None,f,0.14455039985477924,1043.0475233001634,None,0.14455039985477924,,,72 Sing,001,2022_Nov_03_1540,ProdSingRedoBetween,2021.2.3,60.0964067881892,
,,,,53,0,53,0,,,,,,,,,,,,,,,,,,,,,,1046.3673283001408,None,,,,,,,,,,,,,,,,,general,150,54,sing,new,null,1043.731513099745,None,1043.731513099745,None,5,1.8444904000498354,1043.731513099745,None,1.8444904000498354,1045.6059301998466,None,1046.1167874997482,None,1046.1167874997482,None,f,0.227018800098449,1046.1167874997482,None,0.227018800098449,,,72 Sing,001,2022_Nov_03_1540,ProdSingRedoBetween,2021.2.3,60.0964067881892,
,,,,54,0,54,0,,,,,,,,,,,,,,,,,,,,,,1049.0665115998127,None,,,,,,,,,,,,,,,,,balance,174,55,sing,new,null,1046.8802378000692,None,1046.8802378000692,None,6,1.3357679997570813,1046.8802378000692,None,1.3357679997570813,1048.239294799976,None,1048.7490126001649,None,1048.7490126001649,None,r,0.29097319999709725,1048.7490126001649,None,0.29097319999709725,,,72 Sing,001,2022_Nov_03_1540,ProdSingRedoBetween,2021.2.3,60.0964067881892,
,,,,55,0,55,0,,,,,,,,,,,,,,,,,,,,,,1052.6146831000224,None,,,,,,,,,,,,,,,,,science,122,56,sing,new,null,1049.570060600061,None,1049.570060600061,None,6,2.1578332004137337,1049.570060600061,None,2.1578332004137337,1051.7549914000556,None,1052.2769053997472,None,1052.2769053997472,None,r,0.3071880997158587,1052.2769053997472,None,0.3071880997158587,,,72 Sing,001,2022_Nov_03_1540,ProdSingRedoBetween,2021.2.3,60.0964067881892,
,,,,56,0,56,0,,,,,,,,,,,,,,,,,,,,,,1055.457204400096,None,,,,,,,,,,,,,,,,,region,89,57,sing,old,red,1053.1301967999898,None,1053.1301967999898,None,6,1.55768149998039,1053.1301967999898,None,1.55768149998039,1054.7098038000986,None,1055.2220665998757,None,1055.2220665998757,None,f,0.20185720035806298,1055.2220665998757,None,0.20185720035806298,,,72 Sing,001,2022_Nov_03_1540,ProdSingRedoBetween,2021.2.3,60.0964067881892,
,,,,57,0,57,0,,,,,,,,,,,,,,,,,,,,,,1058.0817669001408,None,,,,,,,,,,,,,,,,,education,99,58,sing,new,null,1055.9732690001838,None,1055.9732690001838,None,6,1.4348263000138104,1055.9732690001838,None,1.4348263000138104,1057.4312065001577,None,1057.942583499942,None,1057.942583499942,None,r,0.1134627996943891,1057.942583499942,None,0.1134627996943891,,,72 Sing,001,2022_Nov_03_1540,ProdSingRedoBetween,2021.2.3,60.0964067881892,
,,,,58,0,58,0,,,,,,,,,,,,,,,,,,,,,,1060.9610839001834,None,,,,,,,,,,,,,,,,,design,74,59,sing,old,red,1058.5999638000503,None,1058.5999638000503,None,6,1.5119048999622464,1058.5999638000503,None,1.5119048999622464,1060.1286498000845,None,1060.6441506999545,None,1060.6441506999545,None,r,0.2997277998365462,1060.6441506999545,None,0.2997277998365462,,,72 Sing,001,2022_Nov_03_1540,ProdSingRedoBetween,2021.2.3,60.0964067881892,
,,,,59,0,59,0,,,,,,,,,,,,,,,,,,,,,,1063.747231299989,None,,,,,,,,,,,,,,,,,expansion,58,60,sing,old,blue,1061.4663288998418,None,1061.4663288998418,None,6,1.1814695000648499,1061.4663288998418,None,1.1814695000648499,1062.6831757999025,None,1063.1963904998265,None,1063.1963904998265,None,r,0.5234052003361285,1063.1963904998265,None,0.5234052003361285,,,72 Sing,001,2022_Nov_03_1540,ProdSingRedoBetween,2021.2.3,60.0964067881892,
,,,,60,0,60,0,,,,,,,,,,,,,,,,,,,,,,1066.182947800029,None,,,,,,,,,,,,,,,,,burden,55,61,sing,old,blue,1064.2540466999635,None,1064.2540466999635,None,6,1.121899999678135,1064.2540466999635,None,1.121899999678135,1065.4004914001562,None,1065.918296100106,None,1065.918296100106,None,r,0.24156340025365353,1065.918296100106,None,0.24156340025365353,,,72 Sing,001,2022_Nov_03_1540,ProdSingRedoBetween,2021.2.3,60.0964067881892,
,,,,61,0,61,0,,,,,,,,,,,,,,,,,,,,,,1069.519659999758,None,,,,,,,,,,,,,,,,,carry,68,62,sing,old,red,1066.6906459997408,None,1066.6906459997408,None,6,1.8772440003231168,1066.6906459997408,None,1.8772440003231168,1068.5940215000883,None,1069.1041465997696,None,1069.1041465997696,None,r,0.38373500015586615,1069.1041465997696,None,0.38373500015586615,,,72 Sing,001,2022_Nov_03_1540,ProdSingRedoBetween,2021.2.3,60.0964067881892,
,,,,62,0,62,0,,,,,,,,,,,,,,,,,,,,,,1071.98857449973,None,,,,,,,,,,,,,,,,,birth,140,63,sing,new,null,1070.0199798000976,None,1070.0199798000976,None,6,1.011755600105971,1070.0199798000976,None,1.011755600105971,1071.0626215999946,None,1071.571636099834,None,1071.571636099834,None,r,0.38824830017983913,1071.571636099834,None,0.38824830017983913,,,72 Sing,001,2022_Nov_03_1540,ProdSingRedoBetween,2021.2.3,60.0964067881892,
,,,,63,0,63,0,,,,,,,,,,,,,,,,,,,,,,1075.5923246000893,None,,,,,,,,,,,,,,,,,interior,163,64,sing,new,null,1072.496654599905,None,1072.496654599905,None,5,2.2072924999520183,1072.496654599905,None,2.2072924999520183,1074.7348809000105,None,1075.242064199876,None,1075.242064199876,None,f,0.3338346001692116,1075.242064199876,None,0.3338346001692116,,,72 Sing,001,2022_Nov_03_1540,ProdSingRedoBetween,2021.2.3,60.0964067881892,
,,,,64,0,64,0,,,,,,,,,,,,,,,,,,,,,,1078.6787290000357,None,,,,,,,,,,,,,,,,,company,75,65,sing,old,red,1076.1048798998818,None,1076.1048798998818,None,6,1.7108503002673388,1076.1048798998818,None,1.7108503002673388,1077.8456004997715,None,1078.35391779989,None,1078.35391779989,None,r,0.2940023001283407,1078.35391779989,None,0.2940023001283407,,,72 Sing,001,2022_Nov_03_1540,ProdSingRedoBetween,2021.2.3,60.0964067881892,
,,,,65,0,65,0,,,,,,,,,,,,,,,,,,,,,,1081.1154816998169,None,,,,,,,,,,,,,,,,,marriage,114,66,sing,new,null,1079.1830139998347,None,1079.1830139998347,None,6,0.9527678997255862,1079.1830139998347,None,0.9527678997255862,1080.1658251998015,None,1080.684038599953,None,1080.684038599953,None,r,0.4118293998762965,1080.684038599953,None,0.4118293998762965,,,72 Sing,001,2022_Nov_03_1540,ProdSingRedoBetween,2021.2.3,60.0964067881892,
,,,,66,0,66,0,,,,,,,,,,,,,,,,,,,,,,1083.7181341000833,None,,,,,,,,,,,,,,,,,trend,12,67,sing,old,yellow,1081.6162596000358,None,1081.6162596000358,None,6,1.2476893002167344,1081.6162596000358,None,1.2476893002167344,1082.882794899866,None,1083.3858977998607,None,1083.3858977998607,None,r,0.30207879981026053,1083.3858977998607,None,0.30207879981026053,,,72 Sing,001,2022_Nov_03_1540,ProdSingRedoBetween,2021.2.3,60.0964067881892,
,,,,67,0,67,0,,,,,,,,,,,,,,,,,,,,,,1086.0858291997574,None,,,,,,,,,,,,,,,,,grade,144,68,sing,new,null,1084.223989199847,None,1084.223989199847,None,6,0.9040533998049796,1084.223989199847,None,0.9040533998049796,1085.164745300077,None,1085.669068499934,None,1085.669068499934,None,r,0.38680220022797585,1085.669068499934,None,0.38680220022797585,,,72 Sing,001,2022_Nov_03_1540,ProdSingRedoBetween,2021.2.3,60.0964067881892,
,,,,68,0,68,0,,,,,,,,,,,,,,,,,,,,,,1088.5051361001097,None,,,,,,,,,,,,,,,,,government,31,69,sing,old,blue,1086.5985777000897,None,1086.5985777000897,None,6,0.9293323000892997,1086.5985777000897,None,0.9293323000892997,1087.5572891999036,None,1088.0715030999854,None,1088.0715030999854,None,r,0.4163231998682022,1088.0715030999854,None,0.4163231998682022,,,72 Sing,001,2022_Nov_03_1540,ProdSingRedoBetween,2021.2.3,60.0964067881892,
,,,,69,0,69,0,,,,,,,,,,,,,,,,,,,,,,1090.9243042999879,None,,,,,,,,,,,,,,,,,safety,179,70,sing,new,null,1089.009070099797,None,1089.009070099797,None,6,0.9508189000189304,1089.009070099797,None,0.9508189000189304,1089.9948732000776,None,1090.50732900016,None,1090.50732900016,None,r,0.3884184001944959,1090.50732900016,None,0.3884184001944959,,,72 Sing,001,2022_Nov_03_1540,ProdSingRedoBetween,2021.2.3,60.0964067881892,
,,,,70,0,70,0,,,,,,,,,,,,,,,,,,,,,,1093.2804531999864,None,,,,,,,,,,,,,,,,,corner,141,71,sing,new,null,1091.4246053998359,None,1091.4246053998359,None,6,0.9112652996554971,1091.4246053998359,None,0.9112652996554971,1092.366721500177,None,1092.8762913998216,None,1092.8762913998216,None,r,0.37166810035705566,1092.8762913998216,None,0.37166810035705566,,,72 Sing,001,2022_Nov_03_1540,ProdSingRedoBetween,2021.2.3,60.0964067881892,
,,,,71,0,71,0,,,,,,,,,,,,,,,,,,,,,,1095.8145598000847,None,,,,,,,,,,,,,,,,,conference,3,72,sing,old,yellow,1093.8002646998502,None,1093.8002646998502,None,6,1.0397545997984707,1093.8002646998502,None,1.0397545997984707,1094.8714544000104,None,1095.384230799973,None,1095.384230799973,None,r,0.4077499997802079,1095.384230799973,None,0.4077499997802079,,,72 Sing,001,2022_Nov_03_1540,ProdSingRedoBetween,2021.2.3,60.0964067881892,
,,,,72,0,72,0,,,,,,,,,,,,,,,,,,,,,,1099.0823435001075,None,,,,,,,,,,,,,,,,,entrance,34,73,sing,old,blue,1096.3313446999528,None,1096.3313446999528,None,6,1.7565096002072096,1096.3313446999528,None,1.7565096002072096,1098.1184262000024,None,1098.6335684000514,None,1098.6335684000514,None,r,0.42237940011546016,1098.6335684000514,None,0.42237940011546016,,,72 Sing,001,2022_Nov_03_1540,ProdSingRedoBetween,2021.2.3,60.0964067881892,
,,,,73,0,73,0,,,,,,,,,,,,,,,,,,,,,,1101.5526900999248,None,,,,,,,,,,,,,,,,,equipment,25,74,sing,old,yellow,1099.5947568998672,None,1099.5947568998672,None,6,1.0449827001430094,1099.5947568998672,None,1.0449827001430094,1100.6689218999818,None,1101.1845359997824,None,1101.1845359997824,None,r,0.35134629998356104,1101.1845359997824,None,0.35134629998356104,,,72 Sing,001,2022_Nov_03_1540,ProdSingRedoBetween,2021.2.3,60.0964067881892,
,,,,74,0,74,0,,,,,,,,,,,,,,,,,,,,,,1103.8920705998316,None,,,,,,,,,,,,,,,,,short,125,75,sing,new,null,1102.0556924999692,None,1102.0556924999692,None,6,0.9681981997564435,1102.0556924999692,None,0.9681981997564435,1103.055238599889,None,1103.5771265998483,None,1103.5771265998483,None,r,0.2866803999058902,1103.5771265998483,None,0.2866803999058902,,,72 Sing,001,2022_Nov_03_1540,ProdSingRedoBetween,2021.2.3,60.0964067881892,
,,,,75,0,75,0,,,,,,,,,,,,,,,,,,,,,,1106.2784210997634,None,,,,,,,,,,,,,,,,,little,161,76,sing,new,null,1104.4136053998955,None,1104.4136053998955,None,6,1.0422084997408092,1104.4136053998955,None,1.0422084997408092,1105.4737418000586,None,1106.0005181999877,None,1106.0005181999877,None,r,0.2551761004142463,1106.0005181999877,None,0.2551761004142463,,,72 Sing,001,2022_Nov_03_1540,ProdSingRedoBetween,2021.2.3,60.0964067881892,
,,,,76,0,76,0,,,,,,,,,,,,,,,,,,,,,,1108.525165699888,None,,,,,,,,,,,,,,,,,trash,98,77,sing,new,null,1106.7909754998982,None,1106.7909754998982,None,6,0.9048560000956059,1106.7909754998982,None,0.9048560000956059,1107.7267865999602,None,1108.2416869001463,None,1108.2416869001463,None,r,0.25418390007689595,1108.2416869001463,None,0.25418390007689595,,,72 Sing,001,2022_Nov_03_1540,ProdSingRedoBetween,2021.2.3,60.0964067881892,
,,,,77,0,77,0,,,,,,,,,,,,,,,,,,,,,,1111.9285570997745,None,,,,,,,,,,,,,,,,,power,61,78,sing,old,red,1109.035619399976,None,1109.035619399976,None,6,1.3640928999520838,1109.035619399976,None,1.3640928999520838,1110.4310920001008,None,1110.951928500086,None,1110.951928500086,None,r,0.9518474997021258,1110.951928500086,None,0.9518474997021258,,,72 Sing,001,2022_Nov_03_1540,ProdSingRedoBetween,2021.2.3,60.0964067881892,
,,,,78,0,78,0,,,,,,,,,,,,,,,,,,,,,,1114.5998301999643,None,,,,,,,,,,,,,,,,,division,13,79,sing,old,yellow,1112.4416394997388,None,1112.4416394997388,None,6,1.2062222003005445,1112.4416394997388,None,1.2062222003005445,1113.6675494997762,None,1114.1852388000116,None,1114.1852388000116,None,f,0.39075700007379055,1114.1852388000116,None,0.39075700007379055,,,72 Sing,001,2022_Nov_03_1540,ProdSingRedoBetween,2021.2.3,60.0964067881892,
,,,,79,0,79,0,,,,,,,,,,,,,,,,,,,,,,1118.6710613998584,None,,,,,,,,,,,,,,,,,master,129,80,sing,new,null,1115.1186294998042,None,1115.1186294998042,None,6,2.001202399842441,1115.1186294998042,None,2.001202399842441,1117.158420899883,None,1117.674052900169,None,1117.674052900169,None,f,0.9739337996579707,1117.674052900169,None,0.9739337996579707,,,72 Sing,001,2022_Nov_03_1540,ProdSingRedoBetween,2021.2.3,60.0964067881892,
,,,,80,0,80,0,,,,,,,,,,,,,,,,,,,,,,1121.2211845000274,None,,,,,,,,,,,,,,,,,direction,112,81,sing,new,null,1119.1898068999872,None,1119.1898068999872,None,6,1.2019484001211822,1119.1898068999872,None,1.2019484001211822,1120.4254566999152,None,1120.9376606000587,None,1120.9376606000587,None,r,0.2621447001583874,1120.9376606000587,None,0.2621447001583874,,,72 Sing,001,2022_Nov_03_1540,ProdSingRedoBetween,2021.2.3,60.0964067881892,
,,,,81,0,81,0,,,,,,,,,,,,,,,,,,,,,,1123.4415756999515,None,,,,,,,,,,,,,,,,,count,46,82,sing,old,blue,1121.7254857998341,None,1121.7254857998341,None,6,0.8422893001697958,1121.7254857998341,None,0.8422893001697958,1122.5909114000387,None,1123.1125448001549,None,1123.1125448001549,None,r,0.3112439000979066,1123.1125448001549,None,0.3112439000979066,,,72 Sing,001,2022_Nov_03_1540,ProdSingRedoBetween,2021.2.3,60.0964067881892,
,,,,82,0,82,0,,,,,,,,,,,,,,,,,,,,,,1125.9422451998107,None,,,,,,,,,,,,,,,,,staff,158,83,sing,new,null,1123.9578056000173,None,1123.9578056000173,None,6,0.9459442999213934,1123.9578056000173,None,0.9459442999213934,1124.9269416001625,None,1125.446779599879,None,1125.446779599879,None,r,0.4730242001824081,1125.446779599879,None,0.4730242001824081,,,72 Sing,001,2022_Nov_03_1540,ProdSingRedoBetween,2021.2.3,60.0964067881892,
,,,,83,0,83,0,,,,,,,,,,,,,,,,,,,,,,1128.18001380004,None,,,,,,,,,,,,,,,,,right,115,84,sing,new,null,1126.4468902000226,None,1126.4468902000226,None,6,0.832880700007081,1126.4468902000226,None,0.832880700007081,1127.312033600174,None,1127.8173965997994,None,1127.8173965997994,None,r,0.34242659993469715,1127.8173965997994,None,0.34242659993469715,,,72 Sing,001,2022_Nov_03_1540,ProdSingRedoBetween,2021.2.3,60.0964067881892,
,,,,84,0,84,0,,,,,,,,,,,,,,,,,,,,,,1130.530430200044,None,,,,,,,,,,,,,,,,,oxygen,51,85,sing,old,blue,1128.7007601000369,None,1128.7007601000369,None,6,0.8429979998618364,1128.7007601000369,None,0.8429979998618364,1129.5646567000076,None,1130.0801087999716,None,1130.0801087999716,None,r,0.4316948000341654,1130.0801087999716,None,0.4316948000341654,,,72 Sing,001,2022_Nov_03_1540,ProdSingRedoBetween,2021.2.3,60.0964067881892,
,,,,85,0,85,0,,,,,,,,,,,,,,,,,,,,,,1132.9660259000957,None,,,,,,,,,,,,,,,,,course,57,86,sing,old,blue,1131.0310105001554,None,1131.0310105001554,None,6,1.0006826999597251,1131.0310105001554,None,1.0006826999597251,1132.0612312001176,None,1132.5681409998797,None,1132.5681409998797,None,r,0.3675166997127235,1132.5681409998797,None,0.3675166997127235,,,72 Sing,001,2022_Nov_03_1540,ProdSingRedoBetween,2021.2.3,60.0964067881892,
,,,,86,0,86,0,,,,,,,,,,,,,,,,,,,,,,1135.3199065001681,None,,,,,,,,,,,,,,,,,force,54,87,sing,old,blue,1133.4668073998764,None,1133.4668073998764,None,6,0.8530949000269175,1133.4668073998764,None,0.8530949000269175,1134.356069199741,None,1134.8690364998765,None,1134.8690364998765,None,r,0.418713899794966,1134.8690364998765,None,0.418713899794966,,,72 Sing,001,2022_Nov_03_1540,ProdSingRedoBetween,2021.2.3,60.0964067881892,
,,,,87,0,87,0,,,,,,,,,,,,,,,,,,,,,,1138.3549056998454,None,,,,,,,,,,,,,,,,,whole,145,88,sing,new,null,1135.8306929999962,None,1135.8306929999962,None,6,1.1530695003457367,1135.8306929999962,None,1.1530695003457367,1137.0093800001778,None,1137.524352400098,None,1137.524352400098,None,r,0.8033082000911236,1137.524352400098,None,0.8033082000911236,,,72 Sing,001,2022_Nov_03_1540,ProdSingRedoBetween,2021.2.3,60.0964067881892,
,,,,88,0,88,0,,,,,,,,,,,,,,,,,,,,,,1140.7071929997765,None,,,,,,,,,,,,,,,,,front,142,89,sing,new,null,1138.862635300029,None,1138.862635300029,None,6,1.0171843999996781,1138.862635300029,None,1.0171843999996781,1139.908197700046,None,1140.4271096000448,None,1140.4271096000448,None,r,0.26062790025025606,1140.4271096000448,None,0.26062790025025606,,,72 Sing,001,2022_Nov_03_1540,ProdSingRedoBetween,2021.2.3,60.0964067881892,
,,,,89,0,89,0,,,,,,,,,,,,,,,,,,,,,,1142.8758351001889,None,,,,,,,,,,,,,,,,,addition,73,90,sing,old,red,1141.2152935997583,None,1141.2152935997583,None,6,0.8164014997892082,1141.2152935997583,None,0.8164014997892082,1142.0599853000604,None,1142.564619800076,None,1142.564619800076,None,r,0.29114590026438236,1142.564619800076,None,0.29114590026438236,,,72 Sing,001,2022_Nov_03_1540,ProdSingRedoBetween,2021.2.3,60.0964067881892,
,,,,90,0,90,0,,,,,,,,,,,,,,,,,,,,,,1145.5145934000611,None,,,,,,,,,,,,,,,,,impact,18,91,sing,old,yellow,1143.379738799762,None,1143.379738799762,None,6,1.1479464997537434,1143.379738799762,None,1.1479464997537434,1144.544618899934,None,1145.0450659999624,None,1145.0450659999624,None,f,0.45079040015116334,1145.0450659999624,None,0.45079040015116334,,,72 Sing,001,2022_Nov_03_1540,ProdSingRedoBetween,2021.2.3,60.0964067881892,
,,,,91,0,91,0,,,,,,,,,,,,,,,,,,,,,,1148.1812848001719,None,,,,,,,,,,,,,,,,,youth,50,92,sing,old,blue,1146.0360734001733,None,1146.0360734001733,None,6,1.1317786001600325,1146.0360734001733,None,1.1317786001600325,1147.2032484998927,None,1147.7187466998585,None,1147.7187466998585,None,r,0.44113440020009875,1147.7187466998585,None,0.44113440020009875,,,72 Sing,001,2022_Nov_03_1540,ProdSingRedoBetween,2021.2.3,60.0964067881892,
,,,,92,0,92,0,,,,,,,,,,,,,,,,,,,,,,1150.769225299824,None,,,,,,,,,,,,,,,,,minute,14,93,sing,old,yellow,1148.6913609001786,None,1148.6913609001786,None,6,1.0523680001497269,1148.6913609001786,None,1.0523680001497269,1149.7688821000047,None,1150.2858171998523,None,1150.2858171998523,None,r,0.45797150023281574,1150.2858171998523,None,0.45797150023281574,,,72 Sing,001,2022_Nov_03_1540,ProdSingRedoBetween,2021.2.3,60.0964067881892,
,,,,93,0,93,0,,,,,,,,,,,,,,,,,,,,,,1153.236389500089,None,,,,,,,,,,,,,,,,,judge,56,94,sing,old,blue,1151.2857411000878,None,1151.2857411000878,None,6,0.9140457999892533,1151.2857411000878,None,0.9140457999892533,1152.2207709997892,None,1152.7359810997732,None,1152.7359810997732,None,r,0.47175000002607703,1152.7359810997732,None,0.47175000002607703,,,72 Sing,001,2022_Nov_03_1540,ProdSingRedoBetween,2021.2.3,60.0964067881892,
,,,,94,0,94,0,,,,,,,,,,,,,,,,,,,,,,1155.4883523001336,None,,,,,,,,,,,,,,,,,under,135,95,sing,new,null,1153.7451368998736,None,1153.7451368998736,None,6,0.8466121000237763,1153.7451368998736,None,0.8466121000237763,1154.6271851998754,None,1155.141684200149,None,1155.141684200149,None,r,0.3299480997957289,1155.141684200149,None,0.3299480997957289,,,72 Sing,001,2022_Nov_03_1540,ProdSingRedoBetween,2021.2.3,60.0964067881892,
,,,,95,0,95,0,,,,,,,,,,,,,,,,,,,,,,1157.8409266001545,None,,,,,,,,,,,,,,,,,skill,78,96,sing,old,red,1156.0077149998397,None,1156.0077149998397,None,6,0.9119762000627816,1156.0077149998397,None,0.9119762000627816,1156.9440990001895,None,1157.4622248001397,None,1157.4622248001397,None,r,0.3614302999339998,1157.4622248001397,None,0.3614302999339998,,,72 Sing,001,2022_Nov_03_1540,ProdSingRedoBetween,2021.2.3,60.0964067881892,
,,,,96,0,96,0,,,,,,,,,,,,,,,,,,,,,,1160.0597431999631,None,,,,,,,,,,,,,,,,,empty,165,97,sing,new,null,1158.3537085000426,None,1158.3537085000426,None,6,0.8779739998281002,1158.3537085000426,None,0.8779739998281002,1159.264546299819,None,1159.7763769999146,None,1159.7763769999146,None,r,0.2553611001931131,1159.7763769999146,None,0.2553611001931131,,,72 Sing,001,2022_Nov_03_1540,ProdSingRedoBetween,2021.2.3,60.0964067881892,
,,,,97,0,97,0,,,,,,,,,,,,,,,,,,,,,,1162.195294499863,None,,,,,,,,,,,,,,,,,device,22,98,sing,old,yellow,1160.5679644001648,None,1160.5679644001648,None,6,0.7756484001874924,1160.5679644001648,None,0.7756484001874924,1161.3637970001437,None,1161.878248900175,None,1161.878248900175,None,r,0.29749639984220266,1161.878248900175,None,0.29749639984220266,,,72 Sing,001,2022_Nov_03_1540,ProdSingRedoBetween,2021.2.3,60.0964067881892,
,,,,98,0,98,0,,,,,,,,,,,,,,,,,,,,,,1164.398362299893,None,,,,,,,,,,,,,,,,,afternoon,168,99,sing,new,null,1162.7066823998466,None,1162.7066823998466,None,6,0.8210704997181892,1162.7066823998466,None,0.8210704997181892,1163.5494066998363,None,1164.0655324999243,None,1164.0655324999243,None,r,0.31025550002232194,1164.0655324999243,None,0.31025550002232194,,,72 Sing,001,2022_Nov_03_1540,ProdSingRedoBetween,2021.2.3,60.0964067881892,
,,,,99,0,99,0,,,,,,,,,,,,,,,,,,,,,,1166.966481000185,None,,,,,,,,,,,,,,,,,drove,126,100,sing,new,null,1164.9035231000744,None,1164.9035231000744,None,6,0.9121973002329469,1164.9035231000744,None,0.9121973002329469,1165.836187900044,None,1166.3494453001767,None,1166.3494453001767,None,r,0.5861823000013828,1166.3494453001767,None,0.5861823000013828,,,72 Sing,001,2022_Nov_03_1540,ProdSingRedoBetween,2021.2.3,60.0964067881892,
,,,,100,0,100,0,,,,,,,,,,,,,,,,,,,,,,1169.5048255999573,None,,,,,,,,,,,,,,,,,strain,44,101,sing,old,blue,1167.4720005001873,None,1167.4720005001873,None,6,1.079781400039792,1167.4720005001873,None,1.079781400039792,1168.5720059997402,None,1169.094764799811,None,1169.094764799811,None,f,0.38507959991693497,1169.094764799811,None,0.38507959991693497,,,72 Sing,001,2022_Nov_03_1540,ProdSingRedoBetween,2021.2.3,60.0964067881892,
,,,,101,0,101,0,,,,,,,,,,,,,,,,,,,,,,1172.2720106998459,None,,,,,,,,,,,,,,,,,close,20,102,sing,old,yellow,1170.0253249998204,None,1170.0253249998204,None,6,1.4783749002963305,1170.0253249998204,None,1.4783749002963305,1171.5242248000577,None,1172.038625500165,None,1172.038625500165,None,r,0.21702819969505072,1172.038625500165,None,0.21702819969505072,,,72 Sing,001,2022_Nov_03_1540,ProdSingRedoBetween,2021.2.3,60.0964067881892,
,,,,102,0,102,0,,,,,,,,,,,,,,,,,,,,,,1174.7412161999382,None,,,,,,,,,,,,,,,,,exchange,4,103,sing,old,yellow,1172.7806457001716,None,1172.7806457001716,None,6,0.6350739998742938,1172.7806457001716,None,0.6350739998742938,1173.444954200182,None,1173.9593917997554,None,1173.9593917997554,None,r,0.7523937998339534,1173.9593917997554,None,0.7523937998339534,,,72 Sing,001,2022_Nov_03_1540,ProdSingRedoBetween,2021.2.3,60.0964067881892,
,,,,103,0,103,0,,,,,,,,,,,,,,,,,,,,,,1176.5929600000381,None,,,,,,,,,,,,,,,,,quantity,63,104,sing,old,red,1175.2500101998448,None,1175.2500101998448,None,6,0.5658805002458394,1175.2500101998448,None,0.5658805002458394,1175.8523753001355,None,1176.360725800041,None,1176.360725800041,None,r,0.214937100186944,1176.360725800041,None,0.214937100186944,,,72 Sing,001,2022_Nov_03_1540,ProdSingRedoBetween,2021.2.3,60.0964067881892,
,,,,104,0,104,0,,,,,,,,,,,,,,,,,,,,,,1178.5955261001363,None,,,,,,,,,,,,,,,,,trial,1,105,sing,old,yellow,1177.1087859999388,None,1177.1087859999388,None,6,0.7068092003464699,1177.1087859999388,None,0.7068092003464699,1177.8443478001282,None,1178.349375799764,None,1178.349375799764,None,r,0.2183109000325203,1178.349375799764,None,0.2183109000325203,,,72 Sing,001,2022_Nov_03_1540,ProdSingRedoBetween,2021.2.3,60.0964067881892,
,,,,105,0,105,0,,,,,,,,,,,,,,,,,,,,,,1180.4469270999543,None,,,,,,,,,,,,,,,,,narrow,108,106,sing,new,null,1179.0963967000134,None,1179.0963967000134,None,6,0.7032830999232829,1179.0963967000134,None,0.7032830999232829,1179.8326643998735,None,1180.3502177000046,None,1180.3502177000046,None,r,0.06542919995263219,1180.3502177000046,None,0.06542919995263219,,,72 Sing,001,2022_Nov_03_1540,ProdSingRedoBetween,2021.2.3,60.0964067881892,
,,,,106,0,106,0,,,,,,,,,,,,,,,,,,,,,,1182.5865798997693,None,,,,,,,,,,,,,,,,,estate,53,107,sing,old,blue,1180.9513250999153,None,1180.9513250999153,None,6,0.8084015003405511,1180.9513250999153,None,0.8084015003405511,1181.7884868001565,None,1182.2995047001168,None,1182.2995047001168,None,f,0.2523550996556878,1182.2995047001168,None,0.2523550996556878,,,72 Sing,001,2022_Nov_03_1540,ProdSingRedoBetween,2021.2.3,60.0964067881892,
,,,,107,0,107,0,,,,,,,,,,,,,,,,,,,,,,1185.084840899799,None,,,,,,,,,,,,,,,,,review,32,108,sing,old,blue,1183.1100229001604,None,1183.1100229001604,None,6,1.3377255001105368,1183.1100229001604,None,1.3377255001105368,1184.475742700044,None,1184.9879441000521,None,1184.9879441000521,None,r,0.075704799965024,1184.9879441000521,None,0.075704799965024,,,72 Sing,001,2022_Nov_03_1540,ProdSingRedoBetween,2021.2.3,60.0964067881892,
,,,,108,0,108,0,,,,,,,,,,,,,,,,,,,,,,1187.4402681998909,None,,,,,,,,,,,,,,,,,object,170,109,sing,new,null,1185.601208999753,None,1185.601208999753,None,6,1.0544208004139364,1185.601208999753,None,1.0544208004139364,1186.686234400142,None,1187.1905196001753,None,1187.1905196001753,None,r,0.2172719999216497,1187.1905196001753,None,0.2172719999216497,,,72 Sing,001,2022_Nov_03_1540,ProdSingRedoBetween,2021.2.3,60.0964067881892,
,,,,109,0,109,0,,,,,,,,,,,,,,,,,,,,,,1189.6727617997676,None,,,,,,,,,,,,,,,,,incident,178,110,sing,new,null,1187.964219099842,None,1187.964219099842,None,6,0.9154082001186907,1187.964219099842,None,0.9154082001186907,1188.9085126998834,None,1189.4263872997835,None,1189.4263872997835,None,r,0.22923219995573163,1189.4263872997835,None,0.22923219995573163,,,72 Sing,001,2022_Nov_03_1540,ProdSingRedoBetween,2021.2.3,60.0964067881892,
,,,,110,0,110,0,,,,,,,,,,,,,,,,,,,,,,1191.9247224000283,None,,,,,,,,,,,,,,,,,history,109,111,sing,new,null,1190.1867419001646,None,1190.1867419001646,None,6,0.7968521998263896,1190.1867419001646,None,0.7968521998263896,1191.0076485001482,None,1191.511392899789,None,1191.511392899789,None,r,0.3843775000423193,1191.511392899789,None,0.3843775000423193,,,72 Sing,001,2022_Nov_03_1540,ProdSingRedoBetween,2021.2.3,60.0964067881892,
,,,,111,0,111,0,,,,,,,,,,,,,,,,,,,,,,1193.9122525001876,None,,,,,,,,,,,,,,,,,accident,83,112,sing,old,red,1192.4270986001939,None,1192.4270986001939,None,6,0.6844428996555507,1192.4270986001939,None,0.6844428996555507,1193.1267852000892,None,1193.6265561999753,None,1193.6265561999753,None,r,0.2529887999407947,1193.6265561999753,None,0.2529887999407947,,,72 Sing,001,2022_Nov_03_1540,ProdSingRedoBetween,2021.2.3,60.0964067881892,
,,,,112,0,112,0,,,,,,,,,,,,,,,,,,,,,,1196.3625472001731,None,,,,,,,,,,,,,,,,,portion,96,113,sing,new,null,1194.4273426001891,None,1194.4273426001891,None,6,0.9802399002946913,1194.4273426001891,None,0.9802399002946913,1195.435819900129,None,1195.9533671000972,None,1195.9533671000972,None,r,0.3821549001149833,1195.9533671000972,None,0.3821549001149833,,,72 Sing,001,2022_Nov_03_1540,ProdSingRedoBetween,2021.2.3,60.0964067881892,
,,,,113,0,113,0,,,,,,,,,,,,,,,,,,,,,,1198.5482189999893,None,,,,,,,,,,,,,,,,,research,79,114,sing,old,red,1196.8716792999767,None,1196.8716792999767,None,6,0.7758658002130687,1196.8716792999767,None,0.7758658002130687,1197.6741959000938,None,1198.181220000144,None,1198.181220000144,None,r,0.3465113998390734,1198.181220000144,None,0.3465113998390734,,,72 Sing,001,2022_Nov_03_1540,ProdSingRedoBetween,2021.2.3,60.0964067881892,
,,,,114,0,114,0,,,,,,,,,,,,,,,,,,,,,,1200.7337938998826,None,,,,,,,,,,,,,,,,,group,132,115,sing,new,null,1199.0486729000695,None,1199.0486729000695,None,6,0.8309709997847676,1199.0486729000695,None,0.8309709997847676,1199.9048564000987,None,1200.4171621999703,None,1200.4171621999703,None,r,0.2867320002987981,1200.4171621999703,None,0.2867320002987981,,,72 Sing,001,2022_Nov_03_1540,ProdSingRedoBetween,2021.2.3,60.0964067881892,
,,,,115,0,115,0,,,,,,,,,,,,,,,,,,,,,,1202.9879423999228,None,,,,,,,,,,,,,,,,,brief,37,116,sing,old,blue,1201.2472120998427,None,1201.2472120998427,None,6,0.8723858003504574,1201.2472120998427,None,0.8723858003504574,1202.1372877997346,None,1202.6547650997527,None,1202.6547650997527,None,f,0.3128829998895526,1202.6547650997527,None,0.3128829998895526,,,72 Sing,001,2022_Nov_03_1540,ProdSingRedoBetween,2021.2.3,60.0964067881892,
,,,,116,0,116,0,,,,,,,,,,,,,,,,,,,,,,1205.1381918000989,None,,,,,,,,,,,,,,,,,rapid,159,117,sing,new,null,1203.5031317998655,None,1203.5031317998655,None,6,0.920488900039345,1203.5031317998655,None,0.920488900039345,1204.4559639999643,None,1204.9712808001786,None,1204.9712808001786,None,r,0.14036819990724325,1204.9712808001786,None,0.14036819990724325,,,72 Sing,001,2022_Nov_03_1540,ProdSingRedoBetween,2021.2.3,60.0964067881892,
,,,,117,0,117,0,,,,,,,,,,,,,,,,,,,,,,1207.125308000017,None,,,,,,,,,,,,,,,,,religion,76,118,sing,old,red,1205.6489503001794,None,1205.6489503001794,None,6,0.7586461002938449,1205.6489503001794,None,0.7586461002938449,1206.4254316999577,None,1206.940016800072,None,1206.940016800072,None,r,0.1636467999778688,1206.940016800072,None,0.1636467999778688,,,72 Sing,001,2022_Nov_03_1540,ProdSingRedoBetween,2021.2.3,60.0964067881892,
,,,,118,0,118,0,,,,,,,,,,,,,,,,,,,,,,1209.4925095001236,None,,,,,,,,,,,,,,,,,dozen,21,119,sing,old,yellow,1207.6527986000292,None,1207.6527986000292,None,6,1.0108658000826836,1207.6527986000292,None,1.0108658000826836,1208.6965385000221,None,1209.2092268997803,None,1209.2092268997803,None,r,0.2544219000265002,1209.2092268997803,None,0.2544219000265002,,,72 Sing,001,2022_Nov_03_1540,ProdSingRedoBetween,2021.2.3,60.0964067881892,
,,,,119,0,119,0,,,,,,,,,,,,,,,,,,,,,,1212.1451543997973,None,,,,,,,,,,,,,,,,,weather,77,120,sing,old,red,1210.0028399000876,None,1210.0028399000876,None,6,0.8368053999729455,1210.0028399000876,None,0.8368053999729455,1210.8661483000033,None,1211.3778232000768,None,1211.3778232000768,None,r,0.7418244001455605,1211.3778232000768,None,0.7418244001455605,,,72 Sing,001,2022_Nov_03_1540,ProdSingRedoBetween,2021.2.3,60.0964067881892,
,,,,120,0,120,0,,,,,,,,,,,,,,,,,,,,,,1214.3190839998424,None,,,,,,,,,,,,,,,,,territory,15,121,sing,old,yellow,1212.6559293000028,None,1212.6559293000028,None,6,0.7997018001042306,1212.6559293000028,None,0.7997018001042306,1213.4826011997648,None,1213.9981319000944,None,1213.9981319000944,None,r,0.28959259996190667,1213.9981319000944,None,0.28959259996190667,,,72 Sing,001,2022_Nov_03_1540,ProdSingRedoBetween,2021.2.3,60.0964067881892,
,,,,121,0,121,0,,,,,,,,,,,,,,,,,,,,,,1216.382714400068,None,,,,,,,,,,,,,,,,,phrase,42,122,sing,old,blue,1214.8434747997671,None,1214.8434747997671,None,6,0.6441140999086201,1214.8434747997671,None,0.6441140999086201,1215.5189824998379,None,1216.0366186001338,None,1216.0366186001338,None,r,0.33102209959179163,1216.0366186001338,None,0.33102209959179163,,,72 Sing,001,2022_Nov_03_1540,ProdSingRedoBetween,2021.2.3,60.0964067881892,
,,,,122,0,122,0,,,,,,,,,,,,,,,,,,,,,,1218.4542503999546,None,,,,,,,,,,,,,,,,,patient,28,123,sing,old,yellow,1216.8857009997591,None,1216.8857009997591,None,6,0.7139106998220086,1216.8857009997591,None,0.7139106998220086,1217.6185181001201,None,1218.1308667999692,None,1218.1308667999692,None,r,0.2927954001352191,1218.1308667999692,None,0.2927954001352191,,,72 Sing,001,2022_Nov_03_1540,ProdSingRedoBetween,2021.2.3,60.0964067881892,
,,,,123,0,123,0,,,,,,,,,,,,,,,,,,,,,,1220.4058249997906,None,,,,,,,,,,,,,,,,,account,137,124,sing,new,null,1218.9707872001454,None,1218.9707872001454,None,6,0.596817699726671,1218.9707872001454,None,0.596817699726671,1219.5949122998863,None,1220.1071417001076,None,1220.1071417001076,None,r,0.27657909970730543,1220.1071417001076,None,0.27657909970730543,,,72 Sing,001,2022_Nov_03_1540,ProdSingRedoBetween,2021.2.3,60.0964067881892,
,,,,124,0,124,0,,,,,,,,,,,,,,,,,,,,,,1222.4398699998856,None,,,,,,,,,,,,,,,,,benefit,93,125,sing,new,null,1220.9259218000807,None,1220.9259218000807,None,6,0.7379546002484858,1220.9259218000807,None,0.7379546002484858,1221.7022246997803,None,1222.2140731997788,None,1222.2140731997788,None,r,0.20963279996067286,1222.2140731997788,None,0.20963279996067286,,,72 Sing,001,2022_Nov_03_1540,ProdSingRedoBetween,2021.2.3,60.0964067881892,
,,,,125,0,125,0,,,,,,,,,,,,,,,,,,,,,,1224.4083182001486,None,,,,,,,,,,,,,,,,,angle,117,126,sing,new,null,1222.9436634997837,None,1222.9436634997837,None,6,0.6239517000503838,1222.9436634997837,None,0.6239517000503838,1223.5915628001094,None,1224.112634200137,None,1224.112634200137,None,r,0.27092770021408796,1224.112634200137,None,0.27092770021408796,,,72 Sing,001,2022_Nov_03_1540,ProdSingRedoBetween,2021.2.3,60.0964067881892,
,,,,126,0,126,0,,,,,,,,,,,,,,,,,,,,,,1226.3591101001948,None,,,,,,,,,,,,,,,,,question,60,127,sing,old,red,1224.9145467001945,None,1224.9145467001945,None,6,0.5650272001512349,1224.9145467001945,None,0.5650272001512349,1225.5132744000293,None,1226.0258442000486,None,1226.0258442000486,None,r,0.3097023000009358,1226.0258442000486,None,0.3097023000009358,,,72 Sing,001,2022_Nov_03_1540,ProdSingRedoBetween,2021.2.3,60.0964067881892,
,,,,127,0,127,0,,,,,,,,,,,,,,,,,,,,,,1228.3447305001318,None,,,,,,,,,,,,,,,,,shape,69,128,sing,old,red,1226.8630018001422,None,1226.8630018001422,None,6,0.5447158999741077,1226.8630018001422,None,0.5447158999741077,1227.436980499886,None,1227.949671200011,None,1227.949671200011,None,r,0.3778335000388324,1227.949671200011,None,0.3778335000388324,,,72 Sing,001,2022_Nov_03_1540,ProdSingRedoBetween,2021.2.3,60.0964067881892,
,,,,128,0,128,0,,,,,,,,,,,,,,,,,,,,,,1230.1296962997876,None,,,,,,,,,,,,,,,,,raise,177,129,sing,new,null,1228.8517917999998,None,1228.8517917999998,None,6,0.6038641002960503,1228.8517917999998,None,0.6038641002960503,1229.4824807997793,None,1229.9989832998253,None,1229.9989832998253,None,r,0.11255390010774136,1229.9989832998253,None,0.11255390010774136,,,72 Sing,001,2022_Nov_03_1540,ProdSingRedoBetween,2021.2.3,60.0964067881892,
,,,,129,0,129,0,,,,,,,,,,,,,,,,,,,,,,1232.165133500006,None,,,,,,,,,,,,,,,,,background,175,130,sing,new,null,1230.6300733000971,None,1230.6300733000971,None,6,0.7375140003859997,1230.6300733000971,None,0.7375140003859997,1231.4015926001593,None,1231.9147414001636,None,1231.9147414001636,None,r,0.2208391996100545,1231.9147414001636,None,0.2208391996100545,,,72 Sing,001,2022_Nov_03_1540,ProdSingRedoBetween,2021.2.3,60.0964067881892,
,,,,130,0,130,0,,,,,,,,,,,,,,,,,,,,,,1234.133771999739,None,,,,,,,,,,,,,,,,,business,95,131,sing,new,null,1232.6871341001242,None,1232.6871341001242,None,6,0.5843724999576807,1232.6871341001242,None,0.5843724999576807,1233.3034327998757,None,1233.8168759997934,None,1233.8168759997934,None,r,0.2867447999306023,1233.8168759997934,None,0.2867447999306023,,,72 Sing,001,2022_Nov_03_1540,ProdSingRedoBetween,2021.2.3,60.0964067881892,
,,,,131,0,131,0,,,,,,,,,,,,,,,,,,,,,,1236.2859120001085,None,,,,,,,,,,,,,,,,,salary,10,132,sing,old,yellow,1234.6477657998912,None,1234.6477657998912,None,6,0.7198727000504732,1234.6477657998912,None,0.7198727000504732,1235.3947471999563,None,1235.9023099998012,None,1235.9023099998012,None,r,0.3532862002030015,1235.9023099998012,None,0.3532862002030015,,,72 Sing,001,2022_Nov_03_1540,ProdSingRedoBetween,2021.2.3,60.0964067881892,
,,,,132,0,132,0,,,,,,,,,,,,,,,,,,,,,,1239.4223934998736,None,,,,,,,,,,,,,,,,,title,151,133,sing,new,null,1236.7939292998053,None,1236.7939292998053,None,6,1.6935795000754297,1236.7939292998053,None,1.6935795000754297,1238.5064460001886,None,1239.024256899953,None,1239.024256899953,None,r,0.36728750029578805,1239.024256899953,None,0.36728750029578805,,,72 Sing,001,2022_Nov_03_1540,ProdSingRedoBetween,2021.2.3,60.0964067881892,
,,,,133,0,133,0,,,,,,,,,,,,,,,,,,,,,,1241.6097872997634,None,,,,,,,,,,,,,,,,,chief,162,134,sing,new,null,1239.934338899795,None,1239.934338899795,None,6,0.841225499752909,1239.934338899795,None,0.841225499752909,1240.791742600035,None,1241.2943151001818,None,1241.2943151001818,None,r,0.28930649999529123,1241.2943151001818,None,0.28930649999529123,,,72 Sing,001,2022_Nov_03_1540,ProdSingRedoBetween,2021.2.3,60.0964067881892,
,,,,134,0,134,0,,,,,,,,,,,,,,,,,,,,,,1243.5781956999563,None,,,,,,,,,,,,,,,,,center,27,135,sing,old,yellow,1242.1252203998156,None,1242.1252203998156,None,6,0.5943819000385702,1242.1252203998156,None,0.5943819000385702,1242.7455075001344,None,1243.2594265998341,None,1243.2594265998341,None,r,0.2921667001210153,1243.2594265998341,None,0.2921667001210153,,,72 Sing,001,2022_Nov_03_1540,ProdSingRedoBetween,2021.2.3,60.0964067881892,
,,,,135,0,135,0,,,,,,,,,,,,,,,,,,,,,,1245.7286326000467,None,,,,,,,,,,,,,,,,,society,149,136,sing,new,null,1244.1055172998458,None,1244.1055172998458,None,6,0.5419854000210762,1244.1055172998458,None,0.5419854000210762,1244.6821142998524,None,1245.194857900031,None,1245.194857900031,None,f,0.5087192999199033,1245.194857900031,None,0.5087192999199033,,,72 Sing,001,2022_Nov_03_1540,ProdSingRedoBetween,2021.2.3,60.0964067881892,
,,,,136,0,136,0,,,,,,,,,,,,,,,,,,,,,,1247.9475158001296,None,,,,,,,,,,,,,,,,,heavy,91,137,sing,new,null,1246.2411905000918,None,1246.2411905000918,None,6,0.7664012000896037,1246.2411905000918,None,0.7664012000896037,1247.037944899872,None,1247.554954700172,None,1247.554954700172,None,r,0.3645963999442756,1247.554954700172,None,0.3645963999442756,,,72 Sing,001,2022_Nov_03_1540,ProdSingRedoBetween,2021.2.3,60.0964067881892,
,,,,137,0,137,0,,,,,,,,,,,,,,,,,,,,,,1250.1830933000892,None,,,,,,,,,,,,,,,,,author,97,138,sing,new,null,1248.4586260998622,None,1248.4586260998622,None,6,0.7969098999164999,1248.4586260998622,None,0.7969098999164999,1249.2830586000346,None,1249.7856560000218,None,1249.7856560000218,None,r,0.38194300001487136,1249.7856560000218,None,0.38194300001487136,,,72 Sing,001,2022_Nov_03_1540,ProdSingRedoBetween,2021.2.3,60.0964067881892,
,,,,138,0,138,0,,,,,,,,,,,,,,,,,,,,,,1252.6522420998663,None,,,,,,,,,,,,,,,,,recall,90,139,sing,new,null,1250.6912111998536,None,1250.6912111998536,None,6,0.980415599886328,1250.6912111998536,None,0.980415599886328,1251.7052571000531,None,1252.2185537000187,None,1252.2185537000187,None,f,0.41295589972287416,1252.2185537000187,None,0.41295589972287416,,,72 Sing,001,2022_Nov_03_1540,ProdSingRedoBetween,2021.2.3,60.0964067881892,
,,,,139,0,139,0,,,,,,,,,,,,,,,,,,,,,,1254.8877845997922,None,,,,,,,,,,,,,,,,,concern,133,140,sing,new,null,1253.1618741001002,None,1253.1618741001002,None,6,0.9255579998716712,1253.1618741001002,None,0.9255579998716712,1254.1053659999743,None,1254.6210257997736,None,1254.6210257997736,None,r,0.25069830007851124,1254.6210257997736,None,0.25069830007851124,,,72 Sing,001,2022_Nov_03_1540,ProdSingRedoBetween,2021.2.3,60.0964067881892,
,,,,140,0,140,0,,,,,,,,,,,,,,,,,,,,,,1256.9632092001848,None,,,,,,,,,,,,,,,,,bucket,134,141,sing,new,null,1255.4073335998692,None,1255.4073335998692,None,6,0.8161694002337754,1255.4073335998692,None,0.8161694002337754,1256.2605133000761,None,1256.7727875998244,None,1256.7727875998244,None,r,0.15463720029219985,1256.7727875998244,None,0.15463720029219985,,,72 Sing,001,2022_Nov_03_1540,ProdSingRedoBetween,2021.2.3,60.0964067881892,
,,,,141,0,141,0,,,,,,,,,,,,,,,,,,,,,,1259.0422597997822,None,,,,,,,,,,,,,,,,,revolution,173,142,sing,new,null,1257.4839977999218,None,1257.4839977999218,None,6,0.8434962998144329,1257.4839977999218,None,0.8434962998144329,1258.3596175001003,None,1258.880516000092,None,1258.880516000092,None,r,0.13498090021312237,1258.880516000092,None,0.13498090021312237,,,72 Sing,001,2022_Nov_03_1540,ProdSingRedoBetween,2021.2.3,60.0964067881892,
,,,,142,0,142,0,,,,,,,,,,,,,,,,,,,,,,1260.9312820001505,None,,,,,,,,,,,,,,,,,plane,49,143,sing,old,blue,1259.5455750999972,None,1259.5455750999972,None,6,0.6619644002057612,1259.5455750999972,None,0.6619644002057612,1260.2274702000432,None,1260.727015200071,None,1260.727015200071,None,r,0.18455350026488304,1260.727015200071,None,0.18455350026488304,,,72 Sing,001,2022_Nov_03_1540,ProdSingRedoBetween,2021.2.3,60.0964067881892,
,,,,143,0,143,0,,,,,,,,,,,,,,,,,,,,,,1262.6817521001212,None,,,,,,,,,,,,,,,,,express,33,144,sing,old,blue,1261.447154500056,None,1261.447154500056,None,6,0.608387699816376,1261.447154500056,None,0.608387699816376,1262.0804452998564,None,1262.5999885997735,None,1262.5999885997735,None,r,0.06360969971865416,1262.5999885997735,None,0.06360969971865416,,,72 Sing,001,2022_Nov_03_1540,ProdSingRedoBetween,2021.2.3,60.0964067881892,
,,,,144,0,144,0,,,,,,,,,,,,,,,,,,,,,,1264.7976069999859,None,,,,,,,,,,,,,,,,,private,48,145,sing,old,blue,1263.2069298997521,None,1263.2069298997521,None,6,0.7686087000183761,1263.2069298997521,None,0.7686087000183761,1264.0189093998633,None,1264.5308481999673,None,1264.5308481999673,None,r,0.2368817999958992,1264.5308481999673,None,0.2368817999958992,,,72 Sing,001,2022_Nov_03_1540,ProdSingRedoBetween,2021.2.3,60.0964067881892,
,,,,145,0,145,0,,,,,,,,,,,,,,,,,,,,,,1268.5180513998494,None,,,,,,,,,,,,,,,,,relation,39,146,sing,old,blue,1265.3045223997906,None,1265.3045223997906,None,6,1.8791055995970964,1265.3045223997906,None,1.8791055995970964,1267.200002499856,None,1267.7063937997445,None,1267.7063937997445,None,f,0.7891420000232756,1267.7063937997445,None,0.7891420000232756,,,72 Sing,001,2022_Nov_03_1540,ProdSingRedoBetween,2021.2.3,60.0964067881892,
,,,,146,0,146,0,,,,,,,,,,,,,,,,,,,,,,1271.6878615999594,None,,,,,,,,,,,,,,,,,collection,2,147,sing,old,yellow,1269.0270612998866,None,1269.0270612998866,None,6,2.076428100001067,1269.0270612998866,None,2.076428100001067,1271.121009499766,None,1271.624057999812,None,1271.624057999812,None,r,0.04743009991943836,1271.624057999812,None,0.04743009991943836,,,72 Sing,001,2022_Nov_03_1540,ProdSingRedoBetween,2021.2.3,60.0964067881892,
,,,,147,0,147,0,,,,,,,,,,,,,,,,,,,,,,1273.5397422998212,None,,,,,,,,,,,,,,,,,match,160,148,sing,new,null,1272.194369699806,None,1272.194369699806,None,6,0.6851520999334753,1272.194369699806,None,0.6851520999334753,1272.9054735000245,None,1273.4085371000692,None,1273.4085371000692,None,r,0.11103839986026287,1273.4085371000692,None,0.11103839986026287,,,72 Sing,001,2022_Nov_03_1540,ProdSingRedoBetween,2021.2.3,60.0964067881892,
,,,,148,0,148,0,,,,,,,,,,,,,,,,,,,,,,1275.64174669981,None,,,,,,,,,,,,,,,,,alert,120,149,sing,new,null,1274.0523161999881,None,1274.0523161999881,None,6,0.7393076997250319,1274.0523161999881,None,0.7393076997250319,1274.8154919999652,None,1275.3262219000608,None,1275.3262219000608,None,r,0.28921830002218485,1275.3262219000608,None,0.28921830002218485,,,72 Sing,001,2022_Nov_03_1540,ProdSingRedoBetween,2021.2.3,60.0964067881892,
,,,,149,0,149,0,,,,,,,,,,,,,,,,,,,,,,1277.577037599869,None,,,,,,,,,,,,,,,,,measure,139,150,sing,new,null,1276.1527454000898,None,1276.1527454000898,None,6,0.7988367998041213,1276.1527454000898,None,0.7988367998041213,1276.9812843999825,None,1277.4957039998844,None,1277.4957039998844,None,r,0.0637939004227519,1277.4957039998844,None,0.0637939004227519,,,72 Sing,001,2022_Nov_03_1540,ProdSingRedoBetween,2021.2.3,60.0964067881892,
,,,,150,0,150,0,,,,,,,,,,,,,,,,,,,,,,1280.9304220997728,None,,,,,,,,,,,,,,,,,shear,138,151,sing,new,null,1278.0887154000811,None,1278.0887154000811,None,4,1.9428173997439444,1278.0887154000811,None,1.9428173997439444,1280.064864399843,None,1280.5806426000781,None,1280.5806426000781,None,f,0.33090069983154535,1280.5806426000781,None,0.33090069983154535,,,72 Sing,001,2022_Nov_03_1540,ProdSingRedoBetween,2021.2.3,60.0964067881892,
,,,,151,0,151,0,,,,,,,,,,,,,,,,,,,,,,1283.599663299974,None,,,,,,,,,,,,,,,,,session,72,152,sing,old,red,1281.443077299744,None,1281.443077299744,None,6,1.196598299778998,1281.443077299744,None,1.196598299778998,1282.6846998999827,None,1283.199420799967,None,1283.199420799967,None,r,0.3839332000352442,1283.199420799967,None,0.3839332000352442,,,72 Sing,001,2022_Nov_03_1540,ProdSingRedoBetween,2021.2.3,60.0964067881892,
,,,,152,0,152,0,,,,,,,,,,,,,,,,,,,,,,1285.5858776997775,None,,,,,,,,,,,,,,,,,threat,24,153,sing,old,yellow,1284.1001439997926,None,1284.1001439997926,None,6,0.6834730999544263,1284.1001439997926,None,0.6834730999544263,1284.8077126001008,None,1285.3233408001252,None,1285.3233408001252,None,r,0.23612299980595708,1285.3233408001252,None,0.23612299980595708,,,72 Sing,001,2022_Nov_03_1540,ProdSingRedoBetween,2021.2.3,60.0964067881892,
,,,,153,0,153,0,,,,,,,,,,,,,,,,,,,,,,1287.4702753997408,None,,,,,,,,,,,,,,,,,edition,88,154,sing,old,red,1286.1061077001505,None,1286.1061077001505,None,6,0.5733205997385085,1286.1061077001505,None,0.5733205997385085,1286.704686500132,None,1287.2201041001827,None,1287.2201041001827,None,r,0.22740380000323057,1287.2201041001827,None,0.22740380000323057,,,72 Sing,001,2022_Nov_03_1540,ProdSingRedoBetween,2021.2.3,60.0964067881892,
,,,,154,0,154,0,,,,,,,,,,,,,,,,,,,,,,1289.3721162998118,None,,,,,,,,,,,,,,,,,people,100,155,sing,new,null,1287.9884175998159,None,1287.9884175998159,None,6,0.5550692998804152,1287.9884175998159,None,0.5550692998804152,1288.5787947000936,None,1289.0943901999854,None,1289.0943901999854,None,r,0.24908739980310202,1289.0943901999854,None,0.24908739980310202,,,72 Sing,001,2022_Nov_03_1540,ProdSingRedoBetween,2021.2.3,60.0964067881892,
,,,,155,0,155,0,,,,,,,,,,,,,,,,,,,,,,1291.3908723997883,None,,,,,,,,,,,,,,,,,split,40,156,sing,old,blue,1289.8843352999538,None,1289.8843352999538,None,6,0.7071616998873651,1289.8843352999538,None,0.7071616998873651,1290.609461700078,None,1291.1284198998474,None,1291.1284198998474,None,r,0.23120460007339716,1291.1284198998474,None,0.23120460007339716,,,72 Sing,001,2022_Nov_03_1540,ProdSingRedoBetween,2021.2.3,60.0964067881892,
,,,,156,0,156,0,,,,,,,,,,,,,,,,,,,,,,1293.4262501997873,None,,,,,,,,,,,,,,,,,country,85,157,sing,old,red,1291.894793999847,None,1291.894793999847,None,6,0.7926956000737846,1291.894793999847,None,0.7926956000737846,1292.7102389000356,None,1293.2152068000287,None,1293.2152068000287,None,r,0.1842440003529191,1293.2152068000287,None,0.1842440003529191,,,72 Sing,001,2022_Nov_03_1540,ProdSingRedoBetween,2021.2.3,60.0964067881892,
,,,,157,0,157,0,,,,,,,,,,,,,,,,,,,,,,1295.3447746001184,None,,,,,,,,,,,,,,,,,election,6,158,sing,old,yellow,1293.9286230998114,None,1293.9286230998114,None,6,0.5990518000908196,1293.9286230998114,None,0.5990518000908196,1294.5486690998077,None,1295.061304899864,None,1295.061304899864,None,r,0.2581455996260047,1295.061304899864,None,0.2581455996260047,,,72 Sing,001,2022_Nov_03_1540,ProdSingRedoBetween,2021.2.3,60.0964067881892,
,,,,158,0,158,0,,,,,,,,,,,,,,,,,,,,,,1297.230006299913,None,,,,,,,,,,,,,,,,,growth,136,159,sing,new,null,1295.854562100023,None,1295.854562100023,None,6,0.5290450002066791,1295.854562100023,None,0.5290450002066791,1296.4185798000544,None,1296.929661899805,None,1296.929661899805,None,r,0.27792179957032204,1296.929661899805,None,0.27792179957032204,,,72 Sing,001,2022_Nov_03_1540,ProdSingRedoBetween,2021.2.3,60.0964067881892,
,,,,159,0,159,0,,,,,,,,,,,,,,,,,,,,,,1299.615395099856,None,,,,,,,,,,,,,,,,,executive,153,160,sing,new,null,1297.7337059997953,None,1297.7337059997953,None,6,0.8816974000073969,1297.7337059997953,None,0.8816974000073969,1298.6344739999622,None,1299.1514552999288,None,1299.1514552999288,None,f,0.43991190008819103,1299.1514552999288,None,0.43991190008819103,,,72 Sing,001,2022_Nov_03_1540,ProdSingRedoBetween,2021.2.3,60.0964067881892,
,,,,160,0,160,0,,,,,,,,,,,,,,,,,,,,,,1303.7697936999612,None,,,,,,,,,,,,,,,,,report,29,161,sing,old,blue,1300.1168527998962,None,1300.1168527998962,None,6,2.7387374001555145,1300.1168527998962,None,2.7387374001555145,1302.8958239997737,None,1303.4073042999953,None,1303.4073042999953,None,r,0.34414369985461235,1303.4073042999953,None,0.34414369985461235,,,72 Sing,001,2022_Nov_03_1540,ProdSingRedoBetween,2021.2.3,60.0964067881892,
,,,,161,0,161,0,,,,,,,,,,,,,,,,,,,,,,1305.7894970001653,None,,,,,,,,,,,,,,,,,taste,70,162,sing,old,red,1304.276733700186,None,1304.276733700186,None,6,0.6027511996217072,1304.276733700186,None,0.6027511996217072,1304.904331699945,None,1305.4085152000189,None,1305.4085152000189,None,r,0.35098520014435053,1305.4085152000189,None,0.35098520014435053,,,72 Sing,001,2022_Nov_03_1540,ProdSingRedoBetween,2021.2.3,60.0964067881892,
,,,,162,0,162,0,,,,,,,,,,,,,,,,,,,,,,1307.7809100998566,None,,,,,,,,,,,,,,,,,drama,71,163,sing,old,red,1306.3051168997772,None,1306.3051168997772,None,6,0.7023382000625134,1306.3051168997772,None,0.7023382000625134,1307.0284632998519,None,1307.5403348999098,None,1307.5403348999098,None,r,0.21129570016637444,1307.5403348999098,None,0.21129570016637444,,,72 Sing,001,2022_Nov_03_1540,ProdSingRedoBetween,2021.2.3,60.0964067881892,
,,,,163,0,163,0,,,,,,,,,,,,,,,,,,,,,,1310.5780771998689,None,,,,,,,,,,,,,,,,,scene,82,164,sing,old,red,1308.2994095999748,None,1308.2994095999748,None,6,0.6760367997922003,1308.2994095999748,None,0.6760367997922003,1308.9939163001254,None,1309.5208720001392,None,1309.5208720001392,None,r,1.0385883003473282,1309.5208720001392,None,1.0385883003473282,,,72 Sing,001,2022_Nov_03_1540,ProdSingRedoBetween,2021.2.3,60.0964067881892,
,,,,164,0,164,0,,,,,,,,,,,,,,,,,,,,,,1313.0290059000254,None,,,,,,,,,,,,,,,,,vision,147,165,sing,new,null,1311.0938295000233,None,1311.0938295000233,None,6,0.7855960000306368,1311.0938295000233,None,0.7855960000306368,1311.92147880001,None,1312.4341369001195,None,1312.4341369001195,None,r,0.573398900218308,1312.4341369001195,None,0.573398900218308,,,72 Sing,001,2022_Nov_03_1540,ProdSingRedoBetween,2021.2.3,60.0964067881892,
,,,,165,0,165,0,,,,,,,,,,,,,,,,,,,,,,1315.0977864000015,None,,,,,,,,,,,,,,,,,employment,45,166,sing,old,blue,1313.5442459001206,None,1313.5442459001206,None,6,0.6632185997441411,1313.5442459001206,None,0.6632185997441411,1314.237461199984,None,1314.7500808001496,None,1314.7500808001496,None,r,0.32137729972600937,1314.7500808001496,None,0.32137729972600937,,,72 Sing,001,2022_Nov_03_1540,ProdSingRedoBetween,2021.2.3,60.0964067881892,
,,,,166,0,166,0,,,,,,,,,,,,,,,,,,,,,,1316.9827686999924,None,,,,,,,,,,,,,,,,,husband,62,167,sing,old,red,1315.6015305998735,None,1315.6015305998735,None,6,0.4698622999712825,1315.6015305998735,None,0.4698622999712825,1316.1001630998217,None,1316.615790599957,None,1316.615790599957,None,r,0.35155910020694137,1316.615790599957,None,0.35155910020694137,,,72 Sing,001,2022_Nov_03_1540,ProdSingRedoBetween,2021.2.3,60.0964067881892,
,,,,167,0,167,0,,,,,,,,,,,,,,,,,,,,,,1319.204619999975,None,,,,,,,,,,,,,,,,,store,127,168,sing,new,null,1317.4922676999122,None,1317.4922676999122,None,6,0.7392660998739302,1317.4922676999122,None,0.7392660998739302,1318.2584541998804,None,1318.7704889001325,None,1318.7704889001325,None,r,0.41299769980832934,1318.7704889001325,None,0.41299769980832934,,,72 Sing,001,2022_Nov_03_1540,ProdSingRedoBetween,2021.2.3,60.0964067881892,
,,,,168,0,168,0,,,,,,,,,,,,,,,,,,,,,,1321.1372663998045,None,,,,,,,,,,,,,,,,,crowd,146,169,sing,new,null,1319.7198920999654,None,1319.7198920999654,None,6,0.47155570005998015,1319.7198920999654,None,0.47155570005998015,1320.22257169988,None,1320.7417632997967,None,1320.7417632997967,None,r,0.36966519989073277,1320.7417632997967,None,0.36966519989073277,,,72 Sing,001,2022_Nov_03_1540,ProdSingRedoBetween,2021.2.3,60.0964067881892,
,,,,169,0,169,0,,,,,,,,,,,,,,,,,,,,,,1323.4561880999245,None,,,,,,,,,,,,,,,,,union,102,170,sing,new,null,1321.6405234001577,None,1321.6405234001577,None,6,0.6147753000259399,1321.6405234001577,None,0.6147753000259399,1322.275276800152,None,1322.7890857998282,None,1322.7890857998282,None,f,0.6423049001023173,1322.7890857998282,None,0.6423049001023173,,,72 Sing,001,2022_Nov_03_1540,ProdSingRedoBetween,2021.2.3,60.0964067881892,
,,,,170,0,170,0,,,,,,,,,,,,,,,,,,,,,,1325.9586543999612,None,,,,,,,,,,,,,,,,,public,64,171,sing,old,red,1323.9637811998837,None,1323.9637811998837,None,6,1.2916840999387205,1323.9637811998837,None,1.2916840999387205,1325.2818582998589,None,1325.7916721999645,None,1325.7916721999645,None,r,0.14367400016635656,1325.7916721999645,None,0.14367400016635656,,,72 Sing,001,2022_Nov_03_1540,ProdSingRedoBetween,2021.2.3,60.0964067881892,
,,,,171,0,171,0,,,,,,,,,,,,,,,,,,,,,,1327.7951285997406,None,,,,,,,,,,,,,,,,,member,131,172,sing,new,null,1326.470218299888,None,1326.470218299888,None,6,0.6013639997690916,1326.470218299888,None,0.6013639997690916,1327.1070086997934,None,1327.61040889984,None,1327.61040889984,None,r,0.1649310002103448,1327.61040889984,None,0.1649310002103448,,,72 Sing,001,2022_Nov_03_1540,ProdSingRedoBetween,2021.2.3,60.0964067881892,
,,,,172,0,172,0,,,,,,,,,,,,,,,,,,,,,,1329.7964265001938,None,,,,,,,,,,,,,,,,,volume,107,173,sing,new,null,1328.3043259000406,None,1328.3043259000406,None,6,0.6551565998233855,1328.3043259000406,None,0.6551565998233855,1328.9847805998288,None,1329.4992521000095,None,1329.4992521000095,None,r,0.268234099727124,1329.4992521000095,None,0.268234099727124,,,72 Sing,001,2022_Nov_03_1540,ProdSingRedoBetween,2021.2.3,60.0964067881892,
,,,,173,0,173,0,,,,,,,,,,,,,,,,,,,,,,1331.716688499786,None,,,,,,,,,,,,,,,,,military,19,174,sing,old,yellow,1330.3129994999617,None,1330.3129994999617,None,6,0.574450499843806,1330.3129994999617,None,0.574450499843806,1330.9214694001712,None,1331.4321396001615,None,1331.4321396001615,None,r,0.255377400200814,1331.4321396001615,None,0.255377400200814,,,72 Sing,001,2022_Nov_03_1540,ProdSingRedoBetween,2021.2.3,60.0964067881892,
,,,,174,0,174,0,,,,,,,,,,,,,,,,,,,,,,1333.5495043001138,None,,,,,,,,,,,,,,,,,pattern,52,175,sing,old,blue,1332.237204299774,None,1332.237204299774,None,6,0.5063285999931395,1332.237204299774,None,0.5063285999931395,1332.7754103997722,None,1333.286004499998,None,1333.286004499998,None,r,0.24139840016141534,1333.286004499998,None,0.24139840016141534,,,72 Sing,001,2022_Nov_03_1540,ProdSingRedoBetween,2021.2.3,60.0964067881892,
,,,,175,0,175,0,,,,,,,,,,,,,,,,,,,,,,1335.770101599861,None,,,,,,,,,,,,,,,,,notice,130,176,sing,new,null,1334.056416399777,None,1334.056416399777,None,6,1.0870775999501348,1334.056416399777,None,1.0870775999501348,1335.174616899807,None,1335.6872203000821,None,1335.6872203000821,None,r,0.05623030010610819,1335.6872203000821,None,0.05623030010610819,,,72 Sing,001,2022_Nov_03_1540,ProdSingRedoBetween,2021.2.3,60.0964067881892,
,,,,176,0,176,0,,,,,,,,,,,,,,,,,,,,,,1337.5554208001122,None,,,,,,,,,,,,,,,,,tough,92,177,sing,new,null,1336.2857459997758,None,1336.2857459997758,None,6,0.4819263000972569,1336.2857459997758,None,0.4819263000972569,1336.802651999984,None,1337.3034481001087,None,1337.3034481001087,None,r,0.2319279001094401,1337.3034481001087,None,0.2319279001094401,,,72 Sing,001,2022_Nov_03_1540,ProdSingRedoBetween,2021.2.3,60.0964067881892,
