StudyLoop.thisRepN,StudyLoop.thisTrialN,StudyLoop.thisN,StudyLoop.thisIndex,TestLoop.thisRepN,TestLoop.thisTrialN,TestLoop.thisN,TestLoop.thisIndex,textCondition.started,textCondition.stopped,keyCondition.keys,keyCondition.rt,keyCondition.started,keyCondition.stopped,Condition,textWelcome.started,textWelcome.stopped,keyWelcome.keys,keyWelcome.rt,keyWelcome.started,keyWelcome.stopped,textAloud.started,textAloud.stopped,textSilent.started,textSilent.stopped,textSing.started,textSing.stopped,conditional_text.started,conditional_text.stopped,textBlank500.started,textBlank500.stopped,study_word,study_num,study_order,study_type,word_color,textStudy.started,textStudy.stopped,keyStudy.keys,keyStudy.started,keyStudy.stopped,textTestInstructions.started,textTestInstructions.stopped,key_resp_3.keys,key_resp_3.rt,key_resp_3.started,key_resp_3.stopped,test_word,test_num,test_order,test_condition,old_new_test,test_word_original_color,textConf.started,textConf.stopped,textConfScale.started,textConfScale.stopped,keyConf.keys,keyConf.rt,keyConf.started,keyConf.stopped,confidence response time,textTestBlank.started,textTestBlank.stopped,textRKN.started,textRKN.stopped,textRKNScale.started,textRKNScale.stopped,keyRKN.keys,keyRKN.rt,keyRKN.started,keyRKN.stopped,rkn response time,textEnd.started,textEnd.stopped,participant,session,date,expName,psychopyVersion,frameRate
,,,,,,,,30.2412187,None,a,126.2482769,30.2412187,None,,,,,,,,,,,,,,,,,,,,,,,,,,,,,,,,,,,,,,,,,,,,,,,,,,,,,,,,,,,,,,Nov4Silent5,73,2022_Nov_04_1425,ProdSingRedoBetween,2021.2.3,60.03006306
,,,,,,,,,,,,,,SilentTest,156.5404215,None,space,11.0768249,156.5404215,None,,,,,,,,,,,,,,,,,,,,,,,,,,,,,,,,,,,,,,,,,,,,,,,,,,,,,,,Nov4Silent5,73,2022_Nov_04_1425,ProdSingRedoBetween,2021.2.3,60.03006306
0,0,0,0,,,,,,,,,,,,,,,,,,156.5404215,None,156.5404215,None,156.5404215,None,156.5404215,None,170.1592473,None,trend,43,1,silent,blue,168.1538565,None,None,168.1538565,None,,,,,,,,,,,,,,,,,,,,,,,,,,,,,,,,,,,Nov4Silent5,73,2022_Nov_04_1425,ProdSingRedoBetween,2021.2.3,60.03006306
1,0,1,0,,,,,,,,,,,,,,,,,,,,,,,,,,172.6618711,None,hunger,3,2,silent,yellow,170.6610963,None,None,170.6610963,None,,,,,,,,,,,,,,,,,,,,,,,,,,,,,,,,,,,Nov4Silent5,73,2022_Nov_04_1425,ProdSingRedoBetween,2021.2.3,60.03006306
2,0,2,0,,,,,,,,,,,,,,,,,,,,,,,,,,175.1642813,None,clean,30,3,silent,blue,173.1623518,None,None,173.1623518,None,,,,,,,,,,,,,,,,,,,,,,,,,,,,,,,,,,,Nov4Silent5,73,2022_Nov_04_1425,ProdSingRedoBetween,2021.2.3,60.03006306
3,0,3,0,,,,,,,,,,,,,,,,,,,,,,,,,,177.683462,None,judge,35,4,silent,blue,175.6679523,None,None,175.6679523,None,,,,,,,,,,,,,,,,,,,,,,,,,,,,,,,,,,,Nov4Silent5,73,2022_Nov_04_1425,ProdSingRedoBetween,2021.2.3,60.03006306
4,0,4,0,,,,,,,,,,,,,,,,,,,,,,,,,,180.1860437,None,track,46,5,silent,blue,178.1838721,None,None,178.1838721,None,,,,,,,,,,,,,,,,,,,,,,,,,,,,,,,,,,,Nov4Silent5,73,2022_Nov_04_1425,ProdSingRedoBetween,2021.2.3,60.03006306
5,0,5,0,,,,,,,,,,,,,,,,,,,,,,,,,,182.6884141,None,agency,47,6,silent,blue,180.6881906,None,None,180.6881906,None,,,,,,,,,,,,,,,,,,,,,,,,,,,,,,,,,,,Nov4Silent5,73,2022_Nov_04_1425,ProdSingRedoBetween,2021.2.3,60.03006306
6,0,6,0,,,,,,,,,,,,,,,,,,,,,,,,,,185.1909552,None,prime,65,7,silent,red,183.190154,None,None,183.190154,None,,,,,,,,,,,,,,,,,,,,,,,,,,,,,,,,,,,Nov4Silent5,73,2022_Nov_04_1425,ProdSingRedoBetween,2021.2.3,60.03006306
7,0,7,0,,,,,,,,,,,,,,,,,,,,,,,,,,187.6930565,None,science,14,8,silent,yellow,185.6915867,None,None,185.6915867,None,,,,,,,,,,,,,,,,,,,,,,,,,,,,,,,,,,,Nov4Silent5,73,2022_Nov_04_1425,ProdSingRedoBetween,2021.2.3,60.03006306
8,0,8,0,,,,,,,,,,,,,,,,,,,,,,,,,,190.2126688,None,account,8,9,silent,yellow,188.1986513,None,None,188.1986513,None,,,,,,,,,,,,,,,,,,,,,,,,,,,,,,,,,,,Nov4Silent5,73,2022_Nov_04_1425,ProdSingRedoBetween,2021.2.3,60.03006306
9,0,9,0,,,,,,,,,,,,,,,,,,,,,,,,,,192.7148705,None,shock,62,10,silent,red,190.713087,None,None,190.713087,None,,,,,,,,,,,,,,,,,,,,,,,,,,,,,,,,,,,Nov4Silent5,73,2022_Nov_04_1425,ProdSingRedoBetween,2021.2.3,60.03006306
10,0,10,0,,,,,,,,,,,,,,,,,,,,,,,,,,195.2176491,None,touch,70,11,silent,red,193.2154467,None,None,193.2154467,None,,,,,,,,,,,,,,,,,,,,,,,,,,,,,,,,,,,Nov4Silent5,73,2022_Nov_04_1425,ProdSingRedoBetween,2021.2.3,60.03006306
11,0,11,0,,,,,,,,,,,,,,,,,,,,,,,,,,197.7364766,None,month,69,12,silent,red,195.7221788,None,None,195.7221788,None,,,,,,,,,,,,,,,,,,,,,,,,,,,,,,,,,,,Nov4Silent5,73,2022_Nov_04_1425,ProdSingRedoBetween,2021.2.3,60.03006306
12,0,12,0,,,,,,,,,,,,,,,,,,,,,,,,,,200.2392317,None,title,40,13,silent,blue,198.2373934,None,None,198.2373934,None,,,,,,,,,,,,,,,,,,,,,,,,,,,,,,,,,,,Nov4Silent5,73,2022_Nov_04_1425,ProdSingRedoBetween,2021.2.3,60.03006306
13,0,13,0,,,,,,,,,,,,,,,,,,,,,,,,,,202.7416751,None,right,10,14,silent,yellow,200.739882,None,None,200.739882,None,,,,,,,,,,,,,,,,,,,,,,,,,,,,,,,,,,,Nov4Silent5,73,2022_Nov_04_1425,ProdSingRedoBetween,2021.2.3,60.03006306
14,0,14,0,,,,,,,,,,,,,,,,,,,,,,,,,,205.24408,None,story,39,15,silent,blue,203.2435315,None,None,203.2435315,None,,,,,,,,,,,,,,,,,,,,,,,,,,,,,,,,,,,Nov4Silent5,73,2022_Nov_04_1425,ProdSingRedoBetween,2021.2.3,60.03006306
15,0,15,0,,,,,,,,,,,,,,,,,,,,,,,,,,207.7634542,None,symbol,76,16,silent,red,205.7487673,None,None,205.7487673,None,,,,,,,,,,,,,,,,,,,,,,,,,,,,,,,,,,,Nov4Silent5,73,2022_Nov_04_1425,ProdSingRedoBetween,2021.2.3,60.03006306
16,0,16,0,,,,,,,,,,,,,,,,,,,,,,,,,,210.28261,None,center,28,17,silent,yellow,208.2702791,None,None,208.2702791,None,,,,,,,,,,,,,,,,,,,,,,,,,,,,,,,,,,,Nov4Silent5,73,2022_Nov_04_1425,ProdSingRedoBetween,2021.2.3,60.03006306
17,0,17,0,,,,,,,,,,,,,,,,,,,,,,,,,,212.8018181,None,defeat,42,18,silent,blue,210.7882385,None,None,210.7882385,None,,,,,,,,,,,,,,,,,,,,,,,,,,,,,,,,,,,Nov4Silent5,73,2022_Nov_04_1425,ProdSingRedoBetween,2021.2.3,60.03006306
18,0,18,0,,,,,,,,,,,,,,,,,,,,,,,,,,215.3042446,None,escape,26,19,silent,yellow,213.3023532,None,None,213.3023532,None,,,,,,,,,,,,,,,,,,,,,,,,,,,,,,,,,,,Nov4Silent5,73,2022_Nov_04_1425,ProdSingRedoBetween,2021.2.3,60.03006306
19,0,19,0,,,,,,,,,,,,,,,,,,,,,,,,,,217.8067333,None,emergency,32,20,silent,blue,215.8052078,None,None,215.8052078,None,,,,,,,,,,,,,,,,,,,,,,,,,,,,,,,,,,,Nov4Silent5,73,2022_Nov_04_1425,ProdSingRedoBetween,2021.2.3,60.03006306
20,0,20,0,,,,,,,,,,,,,,,,,,,,,,,,,,220.3098977,None,recall,2,21,silent,yellow,218.3098978,None,None,218.3098978,None,,,,,,,,,,,,,,,,,,,,,,,,,,,,,,,,,,,Nov4Silent5,73,2022_Nov_04_1425,ProdSingRedoBetween,2021.2.3,60.03006306
21,0,21,0,,,,,,,,,,,,,,,,,,,,,,,,,,222.8284453,None,service,34,22,silent,blue,220.8174046,None,None,220.8174046,None,,,,,,,,,,,,,,,,,,,,,,,,,,,,,,,,,,,Nov4Silent5,73,2022_Nov_04_1425,ProdSingRedoBetween,2021.2.3,60.03006306
22,0,22,0,,,,,,,,,,,,,,,,,,,,,,,,,,225.3308702,None,people,12,23,silent,yellow,223.3286023,None,None,223.3286023,None,,,,,,,,,,,,,,,,,,,,,,,,,,,,,,,,,,,Nov4Silent5,73,2022_Nov_04_1425,ProdSingRedoBetween,2021.2.3,60.03006306
23,0,23,0,,,,,,,,,,,,,,,,,,,,,,,,,,227.8334274,None,government,0,24,silent,yellow,225.8314331,None,None,225.8314331,None,,,,,,,,,,,,,,,,,,,,,,,,,,,,,,,,,,,Nov4Silent5,73,2022_Nov_04_1425,ProdSingRedoBetween,2021.2.3,60.03006306
24,0,24,0,,,,,,,,,,,,,,,,,,,,,,,,,,230.3358419,None,level,25,25,silent,yellow,228.3339327,None,None,228.3339327,None,,,,,,,,,,,,,,,,,,,,,,,,,,,,,,,,,,,Nov4Silent5,73,2022_Nov_04_1425,ProdSingRedoBetween,2021.2.3,60.03006306
25,0,25,0,,,,,,,,,,,,,,,,,,,,,,,,,,232.8551443,None,candidate,5,26,silent,yellow,230.8404267,None,None,230.8404267,None,,,,,,,,,,,,,,,,,,,,,,,,,,,,,,,,,,,Nov4Silent5,73,2022_Nov_04_1425,ProdSingRedoBetween,2021.2.3,60.03006306
26,0,26,0,,,,,,,,,,,,,,,,,,,,,,,,,,235.357489,None,display,22,27,silent,yellow,233.3556206,None,None,233.3556206,None,,,,,,,,,,,,,,,,,,,,,,,,,,,,,,,,,,,Nov4Silent5,73,2022_Nov_04_1425,ProdSingRedoBetween,2021.2.3,60.03006306
27,0,27,0,,,,,,,,,,,,,,,,,,,,,,,,,,237.8601979,None,victory,82,28,silent,red,235.858671,None,None,235.858671,None,,,,,,,,,,,,,,,,,,,,,,,,,,,,,,,,,,,Nov4Silent5,73,2022_Nov_04_1425,ProdSingRedoBetween,2021.2.3,60.03006306
28,0,28,0,,,,,,,,,,,,,,,,,,,,,,,,,,240.3626022,None,testimony,53,29,silent,blue,238.3605769,None,None,238.3605769,None,,,,,,,,,,,,,,,,,,,,,,,,,,,,,,,,,,,Nov4Silent5,73,2022_Nov_04_1425,ProdSingRedoBetween,2021.2.3,60.03006306
29,0,29,0,,,,,,,,,,,,,,,,,,,,,,,,,,242.8817431,None,block,49,30,silent,blue,240.8676932,None,None,240.8676932,None,,,,,,,,,,,,,,,,,,,,,,,,,,,,,,,,,,,Nov4Silent5,73,2022_Nov_04_1425,ProdSingRedoBetween,2021.2.3,60.03006306
30,0,30,0,,,,,,,,,,,,,,,,,,,,,,,,,,245.3842915,None,group,63,31,silent,red,243.3825897,None,None,243.3825897,None,,,,,,,,,,,,,,,,,,,,,,,,,,,,,,,,,,,Nov4Silent5,73,2022_Nov_04_1425,ProdSingRedoBetween,2021.2.3,60.03006306
31,0,31,0,,,,,,,,,,,,,,,,,,,,,,,,,,247.9035443,None,little,88,32,silent,red,245.895482,None,None,245.895482,None,,,,,,,,,,,,,,,,,,,,,,,,,,,,,,,,,,,Nov4Silent5,73,2022_Nov_04_1425,ProdSingRedoBetween,2021.2.3,60.03006306
32,0,32,0,,,,,,,,,,,,,,,,,,,,,,,,,,250.4059383,None,addition,67,33,silent,red,248.4039855,None,None,248.4039855,None,,,,,,,,,,,,,,,,,,,,,,,,,,,,,,,,,,,Nov4Silent5,73,2022_Nov_04_1425,ProdSingRedoBetween,2021.2.3,60.03006306
33,0,33,0,,,,,,,,,,,,,,,,,,,,,,,,,,252.9084919,None,bright,37,34,silent,blue,250.9083305,None,None,250.9083305,None,,,,,,,,,,,,,,,,,,,,,,,,,,,,,,,,,,,Nov4Silent5,73,2022_Nov_04_1425,ProdSingRedoBetween,2021.2.3,60.03006306
34,0,34,0,,,,,,,,,,,,,,,,,,,,,,,,,,255.4109566,None,close,56,35,silent,blue,253.4096233,None,None,253.4096233,None,,,,,,,,,,,,,,,,,,,,,,,,,,,,,,,,,,,Nov4Silent5,73,2022_Nov_04_1425,ProdSingRedoBetween,2021.2.3,60.03006306
35,0,35,0,,,,,,,,,,,,,,,,,,,,,,,,,,257.9133439,None,thick,31,36,silent,blue,255.9114288,None,None,255.9114288,None,,,,,,,,,,,,,,,,,,,,,,,,,,,,,,,,,,,Nov4Silent5,73,2022_Nov_04_1425,ProdSingRedoBetween,2021.2.3,60.03006306
36,0,36,0,,,,,,,,,,,,,,,,,,,,,,,,,,260.4158565,None,signal,54,37,silent,blue,258.4139232,None,None,258.4139232,None,,,,,,,,,,,,,,,,,,,,,,,,,,,,,,,,,,,Nov4Silent5,73,2022_Nov_04_1425,ProdSingRedoBetween,2021.2.3,60.03006306
37,0,37,0,,,,,,,,,,,,,,,,,,,,,,,,,,262.9350697,None,narrow,4,38,silent,yellow,260.932802,None,None,260.932802,None,,,,,,,,,,,,,,,,,,,,,,,,,,,,,,,,,,,Nov4Silent5,73,2022_Nov_04_1425,ProdSingRedoBetween,2021.2.3,60.03006306
38,0,38,0,,,,,,,,,,,,,,,,,,,,,,,,,,265.4376236,None,universal,83,39,silent,red,263.4353658,None,None,263.4353658,None,,,,,,,,,,,,,,,,,,,,,,,,,,,,,,,,,,,Nov4Silent5,73,2022_Nov_04_1425,ProdSingRedoBetween,2021.2.3,60.03006306
39,0,39,0,,,,,,,,,,,,,,,,,,,,,,,,,,267.9398342,None,public,23,40,silent,yellow,265.9408255,None,None,265.9408255,None,,,,,,,,,,,,,,,,,,,,,,,,,,,,,,,,,,,Nov4Silent5,73,2022_Nov_04_1425,ProdSingRedoBetween,2021.2.3,60.03006306
40,0,40,0,,,,,,,,,,,,,,,,,,,,,,,,,,270.4425738,None,distance,68,41,silent,red,268.4403615,None,None,268.4403615,None,,,,,,,,,,,,,,,,,,,,,,,,,,,,,,,,,,,Nov4Silent5,73,2022_Nov_04_1425,ProdSingRedoBetween,2021.2.3,60.03006306
41,0,41,0,,,,,,,,,,,,,,,,,,,,,,,,,,272.9448888,None,notice,78,42,silent,red,270.945869,None,None,270.945869,None,,,,,,,,,,,,,,,,,,,,,,,,,,,,,,,,,,,Nov4Silent5,73,2022_Nov_04_1425,ProdSingRedoBetween,2021.2.3,60.03006306
42,0,42,0,,,,,,,,,,,,,,,,,,,,,,,,,,275.464345,None,express,75,43,silent,red,273.4519795,None,None,273.4519795,None,,,,,,,,,,,,,,,,,,,,,,,,,,,,,,,,,,,Nov4Silent5,73,2022_Nov_04_1425,ProdSingRedoBetween,2021.2.3,60.03006306
43,0,43,0,,,,,,,,,,,,,,,,,,,,,,,,,,277.9667588,None,throw,86,44,silent,red,275.9662253,None,None,275.9662253,None,,,,,,,,,,,,,,,,,,,,,,,,,,,,,,,,,,,Nov4Silent5,73,2022_Nov_04_1425,ProdSingRedoBetween,2021.2.3,60.03006306
44,0,44,0,,,,,,,,,,,,,,,,,,,,,,,,,,280.4859623,None,individual,60,45,silent,red,278.4731401,None,None,278.4731401,None,,,,,,,,,,,,,,,,,,,,,,,,,,,,,,,,,,,Nov4Silent5,73,2022_Nov_04_1425,ProdSingRedoBetween,2021.2.3,60.03006306
45,0,45,0,,,,,,,,,,,,,,,,,,,,,,,,,,282.9884617,None,danger,21,46,silent,yellow,280.9864622,None,None,280.9864622,None,,,,,,,,,,,,,,,,,,,,,,,,,,,,,,,,,,,Nov4Silent5,73,2022_Nov_04_1425,ProdSingRedoBetween,2021.2.3,60.03006306
46,0,46,0,,,,,,,,,,,,,,,,,,,,,,,,,,285.4907292,None,dispute,1,47,silent,yellow,283.4908924,None,None,283.4908924,None,,,,,,,,,,,,,,,,,,,,,,,,,,,,,,,,,,,Nov4Silent5,73,2022_Nov_04_1425,ProdSingRedoBetween,2021.2.3,60.03006306
47,0,47,0,,,,,,,,,,,,,,,,,,,,,,,,,,287.9933786,None,direction,64,48,silent,red,285.9916744,None,None,285.9916744,None,,,,,,,,,,,,,,,,,,,,,,,,,,,,,,,,,,,Nov4Silent5,73,2022_Nov_04_1425,ProdSingRedoBetween,2021.2.3,60.03006306
48,0,48,0,,,,,,,,,,,,,,,,,,,,,,,,,,290.4959659,None,pressure,52,49,silent,blue,288.4969315,None,None,288.4969315,None,,,,,,,,,,,,,,,,,,,,,,,,,,,,,,,,,,,Nov4Silent5,73,2022_Nov_04_1425,ProdSingRedoBetween,2021.2.3,60.03006306
49,0,49,0,,,,,,,,,,,,,,,,,,,,,,,,,,293.015001,None,interview,73,50,silent,red,291.0040423,None,None,291.0040423,None,,,,,,,,,,,,,,,,,,,,,,,,,,,,,,,,,,,Nov4Silent5,73,2022_Nov_04_1425,ProdSingRedoBetween,2021.2.3,60.03006306
50,0,50,0,,,,,,,,,,,,,,,,,,,,,,,,,,295.5340819,None,equipment,57,51,silent,blue,293.5191168,None,None,293.5191168,None,,,,,,,,,,,,,,,,,,,,,,,,,,,,,,,,,,,Nov4Silent5,73,2022_Nov_04_1425,ProdSingRedoBetween,2021.2.3,60.03006306
51,0,51,0,,,,,,,,,,,,,,,,,,,,,,,,,,298.0369299,None,master,19,52,silent,yellow,296.0347437,None,None,296.0347437,None,,,,,,,,,,,,,,,,,,,,,,,,,,,,,,,,,,,Nov4Silent5,73,2022_Nov_04_1425,ProdSingRedoBetween,2021.2.3,60.03006306
52,0,52,0,,,,,,,,,,,,,,,,,,,,,,,,,,300.5393493,None,scene,20,53,silent,yellow,298.5374081,None,None,298.5374081,None,,,,,,,,,,,,,,,,,,,,,,,,,,,,,,,,,,,Nov4Silent5,73,2022_Nov_04_1425,ProdSingRedoBetween,2021.2.3,60.03006306
53,0,53,0,,,,,,,,,,,,,,,,,,,,,,,,,,303.0584427,None,quantity,44,54,silent,blue,301.0482842,None,None,301.0482842,None,,,,,,,,,,,,,,,,,,,,,,,,,,,,,,,,,,,Nov4Silent5,73,2022_Nov_04_1425,ProdSingRedoBetween,2021.2.3,60.03006306
54,0,54,0,,,,,,,,,,,,,,,,,,,,,,,,,,305.5610137,None,object,85,55,silent,red,303.5598162,None,None,303.5598162,None,,,,,,,,,,,,,,,,,,,,,,,,,,,,,,,,,,,Nov4Silent5,73,2022_Nov_04_1425,ProdSingRedoBetween,2021.2.3,60.03006306
55,0,55,0,,,,,,,,,,,,,,,,,,,,,,,,,,308.0633402,None,appearance,11,56,silent,yellow,306.0621005,None,None,306.0621005,None,,,,,,,,,,,,,,,,,,,,,,,,,,,,,,,,,,,Nov4Silent5,73,2022_Nov_04_1425,ProdSingRedoBetween,2021.2.3,60.03006306
56,0,56,0,,,,,,,,,,,,,,,,,,,,,,,,,,310.5825863,None,smooth,36,57,silent,blue,308.5695112,None,None,308.5695112,None,,,,,,,,,,,,,,,,,,,,,,,,,,,,,,,,,,,Nov4Silent5,73,2022_Nov_04_1425,ProdSingRedoBetween,2021.2.3,60.03006306
57,0,57,0,,,,,,,,,,,,,,,,,,,,,,,,,,313.0851349,None,permit,87,58,silent,red,311.0829232,None,None,311.0829232,None,,,,,,,,,,,,,,,,,,,,,,,,,,,,,,,,,,,Nov4Silent5,73,2022_Nov_04_1425,ProdSingRedoBetween,2021.2.3,60.03006306
58,0,58,0,,,,,,,,,,,,,,,,,,,,,,,,,,315.6041604,None,stand,66,59,silent,red,313.5893568,None,None,313.5893568,None,,,,,,,,,,,,,,,,,,,,,,,,,,,,,,,,,,,Nov4Silent5,73,2022_Nov_04_1425,ProdSingRedoBetween,2021.2.3,60.03006306
59,0,59,0,,,,,,,,,,,,,,,,,,,,,,,,,,318.1068045,None,sight,61,60,silent,red,316.1047467,None,None,316.1047467,None,,,,,,,,,,,,,,,,,,,,,,,,,,,,,,,,,,,Nov4Silent5,73,2022_Nov_04_1425,ProdSingRedoBetween,2021.2.3,60.03006306
60,0,60,0,,,,,,,,,,,,,,,,,,,,,,,,,,320.6260354,None,skill,71,61,silent,red,318.6138054,None,None,318.6138054,None,,,,,,,,,,,,,,,,,,,,,,,,,,,,,,,,,,,Nov4Silent5,73,2022_Nov_04_1425,ProdSingRedoBetween,2021.2.3,60.03006306
61,0,61,0,,,,,,,,,,,,,,,,,,,,,,,,,,323.1451773,None,angle,29,62,silent,blue,321.1307706,None,None,321.1307706,None,,,,,,,,,,,,,,,,,,,,,,,,,,,,,,,,,,,Nov4Silent5,73,2022_Nov_04_1425,ProdSingRedoBetween,2021.2.3,60.03006306
62,0,62,0,,,,,,,,,,,,,,,,,,,,,,,,,,325.6476716,None,payment,48,63,silent,blue,323.6484906,None,None,323.6484906,None,,,,,,,,,,,,,,,,,,,,,,,,,,,,,,,,,,,Nov4Silent5,73,2022_Nov_04_1425,ProdSingRedoBetween,2021.2.3,60.03006306
63,0,63,0,,,,,,,,,,,,,,,,,,,,,,,,,,328.1501375,None,personnel,79,64,silent,red,326.148617,None,None,326.148617,None,,,,,,,,,,,,,,,,,,,,,,,,,,,,,,,,,,,Nov4Silent5,73,2022_Nov_04_1425,ProdSingRedoBetween,2021.2.3,60.03006306
64,0,64,0,,,,,,,,,,,,,,,,,,,,,,,,,,330.6693519,None,alert,7,65,silent,yellow,328.6576212,None,None,328.6576212,None,,,,,,,,,,,,,,,,,,,,,,,,,,,,,,,,,,,Nov4Silent5,73,2022_Nov_04_1425,ProdSingRedoBetween,2021.2.3,60.03006306
65,0,65,0,,,,,,,,,,,,,,,,,,,,,,,,,,333.1719195,None,empty,38,66,silent,blue,331.169913,None,None,331.169913,None,,,,,,,,,,,,,,,,,,,,,,,,,,,,,,,,,,,Nov4Silent5,73,2022_Nov_04_1425,ProdSingRedoBetween,2021.2.3,60.03006306
66,0,66,0,,,,,,,,,,,,,,,,,,,,,,,,,,335.6909667,None,scale,33,67,silent,blue,333.6864359,None,None,333.6864359,None,,,,,,,,,,,,,,,,,,,,,,,,,,,,,,,,,,,Nov4Silent5,73,2022_Nov_04_1425,ProdSingRedoBetween,2021.2.3,60.03006306
67,0,67,0,,,,,,,,,,,,,,,,,,,,,,,,,,338.1935035,None,dance,24,68,silent,yellow,336.191548,None,None,336.191548,None,,,,,,,,,,,,,,,,,,,,,,,,,,,,,,,,,,,Nov4Silent5,73,2022_Nov_04_1425,ProdSingRedoBetween,2021.2.3,60.03006306
68,0,68,0,,,,,,,,,,,,,,,,,,,,,,,,,,340.7125685,None,bureau,59,69,silent,yellow,338.6972442,None,None,338.6972442,None,,,,,,,,,,,,,,,,,,,,,,,,,,,,,,,,,,,Nov4Silent5,73,2022_Nov_04_1425,ProdSingRedoBetween,2021.2.3,60.03006306
69,0,69,0,,,,,,,,,,,,,,,,,,,,,,,,,,343.2319779,None,music,89,70,silent,red,341.2178666,None,None,341.2178666,None,,,,,,,,,,,,,,,,,,,,,,,,,,,,,,,,,,,Nov4Silent5,73,2022_Nov_04_1425,ProdSingRedoBetween,2021.2.3,60.03006306
70,0,70,0,,,,,,,,,,,,,,,,,,,,,,,,,,345.7343709,None,answer,55,71,silent,blue,343.7321801,None,None,343.7321801,None,,,,,,,,,,,,,,,,,,,,,,,,,,,,,,,,,,,Nov4Silent5,73,2022_Nov_04_1425,ProdSingRedoBetween,2021.2.3,60.03006306
71,0,71,0,,,,,,,,,,,,,,,,,,,,,,,,,,348.2367991,None,plane,16,72,silent,yellow,346.2348392,None,None,346.2348392,None,,,,,,,,,,,,,,,,,,,,,,,,,,,,,,,,,,,Nov4Silent5,73,2022_Nov_04_1425,ProdSingRedoBetween,2021.2.3,60.03006306
72,0,72,0,,,,,,,,,,,,,,,,,,,,,,,,,,350.7393931,None,shear,58,73,silent,blue,348.737344,None,None,348.737344,None,,,,,,,,,,,,,,,,,,,,,,,,,,,,,,,,,,,Nov4Silent5,73,2022_Nov_04_1425,ProdSingRedoBetween,2021.2.3,60.03006306
73,0,73,0,,,,,,,,,,,,,,,,,,,,,,,,,,353.2586854,None,resistance,50,74,silent,blue,351.2462752,None,None,351.2462752,None,,,,,,,,,,,,,,,,,,,,,,,,,,,,,,,,,,,Nov4Silent5,73,2022_Nov_04_1425,ProdSingRedoBetween,2021.2.3,60.03006306
74,0,74,0,,,,,,,,,,,,,,,,,,,,,,,,,,355.7777346,None,atmosphere,18,75,silent,yellow,353.7631433,None,None,353.7631433,None,,,,,,,,,,,,,,,,,,,,,,,,,,,,,,,,,,,Nov4Silent5,73,2022_Nov_04_1425,ProdSingRedoBetween,2021.2.3,60.03006306
75,0,75,0,,,,,,,,,,,,,,,,,,,,,,,,,,358.2821376,None,short,80,76,silent,red,356.2782835,None,None,356.2782835,None,,,,,,,,,,,,,,,,,,,,,,,,,,,,,,,,,,,Nov4Silent5,73,2022_Nov_04_1425,ProdSingRedoBetween,2021.2.3,60.03006306
76,0,76,0,,,,,,,,,,,,,,,,,,,,,,,,,,360.799357,None,school,27,77,silent,yellow,358.7971959,None,None,358.7971959,None,,,,,,,,,,,,,,,,,,,,,,,,,,,,,,,,,,,Nov4Silent5,73,2022_Nov_04_1425,ProdSingRedoBetween,2021.2.3,60.03006306
77,0,77,0,,,,,,,,,,,,,,,,,,,,,,,,,,363.3018808,None,interior,41,78,silent,blue,361.2999058,None,None,361.2999058,None,,,,,,,,,,,,,,,,,,,,,,,,,,,,,,,,,,,Nov4Silent5,73,2022_Nov_04_1425,ProdSingRedoBetween,2021.2.3,60.03006306
78,0,78,0,,,,,,,,,,,,,,,,,,,,,,,,,,365.8043625,None,mankind,84,79,silent,red,363.8022066,None,None,363.8022066,None,,,,,,,,,,,,,,,,,,,,,,,,,,,,,,,,,,,Nov4Silent5,73,2022_Nov_04_1425,ProdSingRedoBetween,2021.2.3,60.03006306
79,0,79,0,,,,,,,,,,,,,,,,,,,,,,,,,,368.3068549,None,drove,51,80,silent,blue,366.3075532,None,None,366.3075532,None,,,,,,,,,,,,,,,,,,,,,,,,,,,,,,,,,,,Nov4Silent5,73,2022_Nov_04_1425,ProdSingRedoBetween,2021.2.3,60.03006306
80,0,80,0,,,,,,,,,,,,,,,,,,,,,,,,,,370.8260582,None,silence,74,81,silent,red,368.8108981,None,None,368.8108981,None,,,,,,,,,,,,,,,,,,,,,,,,,,,,,,,,,,,Nov4Silent5,73,2022_Nov_04_1425,ProdSingRedoBetween,2021.2.3,60.03006306
81,0,81,0,,,,,,,,,,,,,,,,,,,,,,,,,,373.3286249,None,meeting,45,82,silent,blue,371.3265566,None,None,371.3265566,None,,,,,,,,,,,,,,,,,,,,,,,,,,,,,,,,,,,Nov4Silent5,73,2022_Nov_04_1425,ProdSingRedoBetween,2021.2.3,60.03006306
82,0,82,0,,,,,,,,,,,,,,,,,,,,,,,,,,375.8478505,None,agreement,9,83,silent,yellow,373.8344663,None,None,373.8344663,None,,,,,,,,,,,,,,,,,,,,,,,,,,,,,,,,,,,Nov4Silent5,73,2022_Nov_04_1425,ProdSingRedoBetween,2021.2.3,60.03006306
83,0,83,0,,,,,,,,,,,,,,,,,,,,,,,,,,378.3502504,None,suggestion,17,84,silent,yellow,376.3483052,None,None,376.3483052,None,,,,,,,,,,,,,,,,,,,,,,,,,,,,,,,,,,,Nov4Silent5,73,2022_Nov_04_1425,ProdSingRedoBetween,2021.2.3,60.03006306
84,0,84,0,,,,,,,,,,,,,,,,,,,,,,,,,,380.8693502,None,provision,81,85,silent,red,378.8611456,None,None,378.8611456,None,,,,,,,,,,,,,,,,,,,,,,,,,,,,,,,,,,,Nov4Silent5,73,2022_Nov_04_1425,ProdSingRedoBetween,2021.2.3,60.03006306
85,0,85,0,,,,,,,,,,,,,,,,,,,,,,,,,,383.3718547,None,partner,72,86,silent,red,381.3699103,None,None,381.3699103,None,,,,,,,,,,,,,,,,,,,,,,,,,,,,,,,,,,,Nov4Silent5,73,2022_Nov_04_1425,ProdSingRedoBetween,2021.2.3,60.03006306
86,0,86,0,,,,,,,,,,,,,,,,,,,,,,,,,,385.8744603,None,employment,15,87,silent,yellow,383.8723865,None,None,383.8723865,None,,,,,,,,,,,,,,,,,,,,,,,,,,,,,,,,,,,Nov4Silent5,73,2022_Nov_04_1425,ProdSingRedoBetween,2021.2.3,60.03006306
87,0,87,0,,,,,,,,,,,,,,,,,,,,,,,,,,388.37672,None,season,13,88,silent,yellow,386.3754312,None,None,386.3754312,None,,,,,,,,,,,,,,,,,,,,,,,,,,,,,,,,,,,Nov4Silent5,73,2022_Nov_04_1425,ProdSingRedoBetween,2021.2.3,60.03006306
88,0,88,0,,,,,,,,,,,,,,,,,,,,,,,,,,390.8793375,None,health,77,89,silent,red,388.8792035,None,None,388.8792035,None,,,,,,,,,,,,,,,,,,,,,,,,,,,,,,,,,,,Nov4Silent5,73,2022_Nov_04_1425,ProdSingRedoBetween,2021.2.3,60.03006306
89,0,89,0,,,,,,,,,,,,,,,,,,,,,,,,,,393.3985412,None,benefit,6,90,silent,yellow,391.3896325,None,None,391.3896325,None,,,,,,,,,,,,,,,,,,,,,,,,,,,,,,,,,,,Nov4Silent5,73,2022_Nov_04_1425,ProdSingRedoBetween,2021.2.3,60.03006306
,,,,,,,,,,,,,,,,,,,,,,,,,,,,,,,,,,,,,,,,,393.8993224,None,k,100.0695879,393.8993224,None,,,,,,,,,,,,,,,,,,,,,,,,,,,,,Nov4Silent5,73,2022_Nov_04_1425,ProdSingRedoBetween,2021.2.3,60.03006306
,,,,0,0,0,0,,,,,,,,,,,,,,,,,,,,,,506.6807665,None,,,,,,,,,,,,,,,,,youth,126,1,silent,new,null,494.5098002,None,494.5098002,None,1,10.0671562,494.5098002,None,10.0671562,504.6013368,None,505.1098268,None,505.1098268,None,n,1.5468443,505.1098268,None,1.5468443,,,Nov4Silent5,73,2022_Nov_04_1425,ProdSingRedoBetween,2021.2.3,60.03006306
,,,,1,0,1,0,,,,,,,,,,,,,,,,,,,,,,513.9187281,None,,,,,,,,,,,,,,,,,bureau,59,2,silent,old,yellow,507.1953955,None,507.1953955,None,6,4.1092604,507.1953955,None,4.1092604,511.334198,None,511.8334121,None,511.8334121,None,r,2.0632323,511.8334121,None,2.0632323,,,Nov4Silent5,73,2022_Nov_04_1425,ProdSingRedoBetween,2021.2.3,60.03006306
,,,,2,0,2,0,,,,,,,,,,,,,,,,,,,,,,518.0561935,None,,,,,,,,,,,,,,,,,judge,35,3,silent,old,blue,514.425942,None,514.425942,None,6,1.9986676,514.425942,None,1.9986676,516.4576773,None,516.9718725,None,516.9718725,None,r,1.0607563,516.9718725,None,1.0607563,,,Nov4Silent5,73,2022_Nov_04_1425,ProdSingRedoBetween,2021.2.3,60.03006306
,,,,3,0,3,0,,,,,,,,,,,,,,,,,,,,,,521.1258014,None,,,,,,,,,,,,,,,,,silence,74,4,silent,old,red,518.5674205,None,518.5674205,None,6,1.4251827,518.5674205,None,1.4251827,520.0100616,None,520.5254109,None,520.5254109,None,r,0.5712851,520.5254109,None,0.5712851,,,Nov4Silent5,73,2022_Nov_04_1425,ProdSingRedoBetween,2021.2.3,60.03006306
,,,,4,0,4,0,,,,,,,,,,,,,,,,,,,,,,525.2299048,None,,,,,,,,,,,,,,,,,throw,86,5,silent,old,red,521.6294362,None,521.6294362,None,4,2.0032056,521.6294362,None,2.0032056,523.6618431,None,524.162345,None,524.162345,None,f,1.0382724,524.162345,None,1.0382724,,,Nov4Silent5,73,2022_Nov_04_1425,ProdSingRedoBetween,2021.2.3,60.03006306
,,,,5,0,5,0,,,,,,,,,,,,,,,,,,,,,,528.2496111,None,,,,,,,,,,,,,,,,,express,75,6,silent,old,red,525.7325497,None,525.7325497,None,6,1.652037,525.7325497,None,1.652037,527.4164921,None,527.9212469,None,527.9212469,None,r,0.3113396,527.9212469,None,0.3113396,,,Nov4Silent5,73,2022_Nov_04_1425,ProdSingRedoBetween,2021.2.3,60.03006306
,,,,6,0,6,0,,,,,,,,,,,,,,,,,,,,,,533.1712441,None,,,,,,,,,,,,,,,,,impact,145,7,silent,new,null,528.7588095,None,528.7588095,None,4,2.8819269,528.7588095,None,2.8819269,531.6705998,None,532.1704151,None,532.1704151,None,f,0.9822298,532.1704151,None,0.9822298,,,Nov4Silent5,73,2022_Nov_04_1425,ProdSingRedoBetween,2021.2.3,60.03006306
,,,,7,0,7,0,,,,,,,,,,,,,,,,,,,,,,536.4745388,None,,,,,,,,,,,,,,,,,interview,73,8,silent,old,red,533.6791125,None,533.6791125,None,6,1.9697189,533.6791125,None,1.9697189,535.6780251,None,536.1950703,None,536.1950703,None,r,0.2616142,536.1950703,None,0.2616142,,,Nov4Silent5,73,2022_Nov_04_1425,ProdSingRedoBetween,2021.2.3,60.03006306
,,,,8,0,8,0,,,,,,,,,,,,,,,,,,,,,,542.6973473,None,,,,,,,,,,,,,,,,,mankind,84,9,silent,old,red,536.9854383,None,536.9854383,None,3,3.9750592,536.9854383,None,3.9750592,540.9810746,None,541.498443,None,541.498443,None,f,1.1741386,541.498443,None,1.1741386,,,Nov4Silent5,73,2022_Nov_04_1425,ProdSingRedoBetween,2021.2.3,60.03006306
,,,,9,0,9,0,,,,,,,,,,,,,,,,,,,,,,547.7870169,None,,,,,,,,,,,,,,,,,exchange,153,10,silent,new,null,543.2006948,None,543.2006948,None,6,3.7518095,543.2006948,None,3.7518095,546.9684061,None,547.4688073,None,547.4688073,None,r,0.2917536,547.4688073,None,0.2917536,,,Nov4Silent5,73,2022_Nov_04_1425,ProdSingRedoBetween,2021.2.3,60.03006306
,,,,10,0,10,0,,,,,,,,,,,,,,,,,,,,,,552.3069644,None,,,,,,,,,,,,,,,,,individual,60,11,silent,old,red,548.3019447,None,548.3019447,None,6,1.8345362,548.3019447,None,1.8345362,550.1578354,None,550.6721818,None,550.6721818,None,r,1.6083349,550.6721818,None,1.6083349,,,Nov4Silent5,73,2022_Nov_04_1425,ProdSingRedoBetween,2021.2.3,60.03006306
,,,,11,0,11,0,,,,,,,,,,,,,,,,,,,,,,556.1777446,None,,,,,,,,,,,,,,,,,escape,26,12,silent,old,yellow,552.8155098,None,552.8155098,None,5,2.1611098,552.8155098,None,2.1611098,554.9967136,None,555.5102837,None,555.5102837,None,f,0.6501855,555.5102837,None,0.6501855,,,Nov4Silent5,73,2022_Nov_04_1425,ProdSingRedoBetween,2021.2.3,60.03006306
,,,,12,0,12,0,,,,,,,,,,,,,,,,,,,,,,560.2982815,None,,,,,,,,,,,,,,,,,break,124,13,silent,new,null,556.6940063,None,556.6940063,None,4,2.0346848,556.6940063,None,2.0346848,558.7538081,None,559.2641659,None,559.2641659,None,f,1.0163836,559.2641659,None,1.0163836,,,Nov4Silent5,73,2022_Nov_04_1425,ProdSingRedoBetween,2021.2.3,60.03006306
,,,,13,0,13,0,,,,,,,,,,,,,,,,,,,,,,564.5525469,None,,,,,,,,,,,,,,,,,medicine,102,14,silent,new,null,560.8098273,None,560.8098273,None,1,1.9827248,560.8098273,None,1.9827248,562.8184508,None,563.3180818,None,563.3180818,None,n,1.2104684,563.3180818,None,1.2104684,,,Nov4Silent5,73,2022_Nov_04_1425,ProdSingRedoBetween,2021.2.3,60.03006306
,,,,14,0,14,0,,,,,,,,,,,,,,,,,,,,,,567.6223051,None,,,,,,,,,,,,,,,,,symbol,76,15,silent,old,red,565.0721321,None,565.0721321,None,6,1.656358,565.0721321,None,1.656358,566.7559501,None,567.2553704,None,567.2553704,None,r,0.3451713,567.2553704,None,0.3451713,,,Nov4Silent5,73,2022_Nov_04_1425,ProdSingRedoBetween,2021.2.3,60.03006306
,,,,15,0,15,0,,,,,,,,,,,,,,,,,,,,,,573.6783004,None,,,,,,,,,,,,,,,,,sleep,114,16,silent,new,null,568.1306305,None,568.1306305,None,1,3.1419351,568.1306305,None,3.1419351,571.29951,None,571.8147251,None,571.8147251,None,n,1.833831,571.8147251,None,1.833831,,,Nov4Silent5,73,2022_Nov_04_1425,ProdSingRedoBetween,2021.2.3,60.03006306
,,,,16,0,16,0,,,,,,,,,,,,,,,,,,,,,,576.5646886,None,,,,,,,,,,,,,,,,,cousin,158,17,silent,new,null,574.1815261,None,574.1815261,None,1,1.4510473,574.1815261,None,1.4510473,575.6680552,None,576.181248,None,576.181248,None,n,0.3631891,576.181248,None,0.3631891,,,Nov4Silent5,73,2022_Nov_04_1425,ProdSingRedoBetween,2021.2.3,60.03006306
,,,,17,0,17,0,,,,,,,,,,,,,,,,,,,,,,580.234773,None,,,,,,,,,,,,,,,,,close,56,18,silent,old,blue,577.0696267,None,577.0696267,None,4,1.6828591,577.0696267,None,1.6828591,578.7928912,None,579.3061297,None,579.3061297,None,f,0.910386,579.3061297,None,0.910386,,,Nov4Silent5,73,2022_Nov_04_1425,ProdSingRedoBetween,2021.2.3,60.03006306
,,,,18,0,18,0,,,,,,,,,,,,,,,,,,,,,,587.1584698,None,,,,,,,,,,,,,,,,,author,109,19,silent,new,null,580.7448326,None,580.7448326,None,2,1.7436378,580.7448326,None,1.7436378,582.5054195,None,583.0211608,None,583.0211608,None,n,4.115335,583.0211608,None,4.115335,,,Nov4Silent5,73,2022_Nov_04_1425,ProdSingRedoBetween,2021.2.3,60.03006306
,,,,19,0,19,0,,,,,,,,,,,,,,,,,,,,,,592.9683807,None,,,,,,,,,,,,,,,,,direction,64,20,silent,old,red,587.6680149,None,587.6680149,None,5,2.0524695,587.6680149,None,2.0524695,589.7443995,None,590.2477701,None,590.2477701,None,f,2.6968059,590.2477701,None,2.6968059,,,Nov4Silent5,73,2022_Nov_04_1425,ProdSingRedoBetween,2021.2.3,60.03006306
,,,,20,0,20,0,,,,,,,,,,,,,,,,,,,,,,596.2675133,None,,,,,,,,,,,,,,,,,dispute,1,21,silent,old,yellow,593.4885144,None,593.4885144,None,6,1.75996,593.4885144,None,1.75996,595.2695653,None,595.7888409,None,595.7888409,None,r,0.4516081,595.7888409,None,0.4516081,,,Nov4Silent5,73,2022_Nov_04_1425,ProdSingRedoBetween,2021.2.3,60.03006306
,,,,21,0,21,0,,,,,,,,,,,,,,,,,,,,,,600.1046766,None,,,,,,,,,,,,,,,,,candidate,5,22,silent,old,yellow,596.7771594,None,596.7771594,None,6,2.1592827,596.7771594,None,2.1592827,598.9561962,None,599.4708565,None,599.4708565,None,r,0.6179148,599.4708565,None,0.6179148,,,Nov4Silent5,73,2022_Nov_04_1425,ProdSingRedoBetween,2021.2.3,60.03006306
,,,,22,0,22,0,,,,,,,,,,,,,,,,,,,,,,602.8741141,None,,,,,,,,,,,,,,,,,clean,30,23,silent,old,blue,600.6097011,None,600.6097011,None,6,1.390709,600.6097011,None,1.390709,602.023795,None,602.523747,None,602.523747,None,r,0.3247862,602.523747,None,0.3247862,,,Nov4Silent5,73,2022_Nov_04_1425,ProdSingRedoBetween,2021.2.3,60.03006306
,,,,23,0,23,0,,,,,,,,,,,,,,,,,,,,,,606.8795378,None,,,,,,,,,,,,,,,,,hunger,3,24,silent,old,yellow,603.3834277,None,603.3834277,None,6,2.6329762,603.3834277,None,2.6329762,606.0456165,None,606.5612732,None,606.5612732,None,r,0.287099,606.5612732,None,0.287099,,,Nov4Silent5,73,2022_Nov_04_1425,ProdSingRedoBetween,2021.2.3,60.03006306
,,,,24,0,24,0,,,,,,,,,,,,,,,,,,,,,,613.1509783,None,,,,,,,,,,,,,,,,,corner,178,25,silent,new,null,607.3952955,None,607.3952955,None,4,4.933157,607.3952955,None,4.933157,612.3515126,None,612.8589131,None,612.8589131,None,f,0.2695117,612.8589131,None,0.2695117,,,Nov4Silent5,73,2022_Nov_04_1425,ProdSingRedoBetween,2021.2.3,60.03006306
,,,,25,0,25,0,,,,,,,,,,,,,,,,,,,,,,617.9057769,None,,,,,,,,,,,,,,,,,trend,43,26,silent,old,blue,613.6585944,None,613.6585944,None,6,2.421856,613.6585944,None,2.421856,616.1066579,None,616.6234592,None,616.6234592,None,r,1.2570422,616.6234592,None,1.2570422,,,Nov4Silent5,73,2022_Nov_04_1425,ProdSingRedoBetween,2021.2.3,60.03006306
,,,,26,0,26,0,,,,,,,,,,,,,,,,,,,,,,621.7595832,None,,,,,,,,,,,,,,,,,territory,116,27,silent,new,null,618.4162127,None,618.4162127,None,4,2.3921898,618.4162127,None,2.3921898,620.8269382,None,621.3425701,None,621.3425701,None,f,0.3859885,621.3425701,None,0.3859885,,,Nov4Silent5,73,2022_Nov_04_1425,ProdSingRedoBetween,2021.2.3,60.03006306
,,,,27,0,27,0,,,,,,,,,,,,,,,,,,,,,,627.5678368,None,,,,,,,,,,,,,,,,,bright,37,28,silent,old,blue,622.2728941,None,622.2728941,None,4,4.279557,622.2728941,None,4.279557,626.582638,None,627.09853,None,627.09853,None,f,0.4461832,627.09853,None,0.4461832,,,Nov4Silent5,73,2022_Nov_04_1425,ProdSingRedoBetween,2021.2.3,60.03006306
,,,,28,0,28,0,,,,,,,,,,,,,,,,,,,,,,630.3847204,None,,,,,,,,,,,,,,,,,level,25,29,silent,old,yellow,628.094283,None,628.094283,None,6,1.4423314,628.094283,None,1.4423314,629.5736945,None,630.084695,None,630.084695,None,r,0.2757445,630.084695,None,0.2757445,,,Nov4Silent5,73,2022_Nov_04_1425,ProdSingRedoBetween,2021.2.3,60.03006306
,,,,29,0,29,0,,,,,,,,,,,,,,,,,,,,,,634.9060239,None,,,,,,,,,,,,,,,,,poetry,133,30,silent,new,null,630.8965073,None,630.8965073,None,2,2.2558718,630.8965073,None,2.2558718,633.1732358,None,633.6883265,None,633.6883265,None,n,1.2000713,633.6883265,None,1.2000713,,,Nov4Silent5,73,2022_Nov_04_1425,ProdSingRedoBetween,2021.2.3,60.03006306
,,,,30,0,30,0,,,,,,,,,,,,,,,,,,,,,,639.9777897,None,,,,,,,,,,,,,,,,,court,107,31,silent,new,null,635.4182902,None,635.4182902,None,6,3.4621101,635.4182902,None,3.4621101,638.9107304,None,639.4103427,None,639.4103427,None,r,0.5500725,639.4103427,None,0.5500725,,,Nov4Silent5,73,2022_Nov_04_1425,ProdSingRedoBetween,2021.2.3,60.03006306
,,,,31,0,31,0,,,,,,,,,,,,,,,,,,,,,,642.9640924,None,,,,,,,,,,,,,,,,,speech,162,32,silent,new,null,640.4888714,None,640.4888714,None,6,1.6717076,640.4888714,None,1.6717076,642.1800774,None,642.6805539,None,642.6805539,None,r,0.2558347,642.6805539,None,0.2558347,,,Nov4Silent5,73,2022_Nov_04_1425,ProdSingRedoBetween,2021.2.3,60.03006306
,,,,32,0,32,0,,,,,,,,,,,,,,,,,,,,,,647.7354816,None,,,,,,,,,,,,,,,,,afternoon,175,33,silent,new,null,643.4726259,None,643.4726259,None,4,3.3838077,643.4726259,None,3.3838077,646.8885588,None,647.4062786,None,647.4062786,None,f,0.3141289,647.4062786,None,0.3141289,,,Nov4Silent5,73,2022_Nov_04_1425,ProdSingRedoBetween,2021.2.3,60.03006306
,,,,33,0,33,0,,,,,,,,,,,,,,,,,,,,,,651.055499,None,,,,,,,,,,,,,,,,,scale,33,34,silent,old,blue,648.2438978,None,648.2438978,None,6,1.9485594,648.2438978,None,1.9485594,650.2272864,None,650.7430611,None,650.7430611,None,r,0.2892587,650.7430611,None,0.2892587,,,Nov4Silent5,73,2022_Nov_04_1425,ProdSingRedoBetween,2021.2.3,60.03006306
,,,,34,0,34,0,,,,,,,,,,,,,,,,,,,,,,654.2586458,None,,,,,,,,,,,,,,,,,fashion,172,35,silent,new,null,651.5649085,None,651.5649085,None,4,1.6034912,651.5649085,None,1.6034912,653.1923328,None,653.691569,None,653.691569,None,f,0.5487509,653.691569,None,0.5487509,,,Nov4Silent5,73,2022_Nov_04_1425,ProdSingRedoBetween,2021.2.3,60.03006306
,,,,35,0,35,0,,,,,,,,,,,,,,,,,,,,,,658.9632865,None,,,,,,,,,,,,,,,,,recall,2,36,silent,old,yellow,654.7605748,None,654.7605748,None,5,3.4158344,654.7605748,None,3.4158344,658.1982494,None,658.7132781,None,658.7132781,None,r,0.231169,658.7132781,None,0.231169,,,Nov4Silent5,73,2022_Nov_04_1425,ProdSingRedoBetween,2021.2.3,60.03006306
,,,,36,0,36,0,,,,,,,,,,,,,,,,,,,,,,661.8328866,None,,,,,,,,,,,,,,,,,division,92,37,silent,new,null,659.4669067,None,659.4669067,None,4,1.7494935,659.4669067,None,1.7494935,661.2399207,None,661.7495585,None,661.7495585,None,f,0.0589164,661.7495585,None,0.0589164,,,Nov4Silent5,73,2022_Nov_04_1425,ProdSingRedoBetween,2021.2.3,60.03006306
,,,,37,0,37,0,,,,,,,,,,,,,,,,,,,,,,664.518936,None,,,,,,,,,,,,,,,,,interior,41,38,silent,old,blue,662.3403692,None,662.3403692,None,6,1.4759034,662.3403692,None,1.4759034,663.8351269,None,664.338046,None,664.338046,None,r,0.1583046,664.338046,None,0.1583046,,,Nov4Silent5,73,2022_Nov_04_1425,ProdSingRedoBetween,2021.2.3,60.03006306
,,,,38,0,38,0,,,,,,,,,,,,,,,,,,,,,,667.571732,None,,,,,,,,,,,,,,,,,taste,136,39,silent,new,null,665.0342412,None,665.0342412,None,6,1.7261024,665.0342412,None,1.7261024,666.7887516,None,667.2882028,None,667.2882028,None,r,0.2640533,667.2882028,None,0.2640533,,,Nov4Silent5,73,2022_Nov_04_1425,ProdSingRedoBetween,2021.2.3,60.03006306
,,,,39,0,39,0,,,,,,,,,,,,,,,,,,,,,,669.8073996,None,,,,,,,,,,,,,,,,,science,14,40,silent,old,yellow,668.0830488,None,668.0830488,None,6,0.8773013,668.0830488,None,0.8773013,668.9909657,None,669.4946683,None,669.4946683,None,r,0.2897243,669.4946683,None,0.2897243,,,Nov4Silent5,73,2022_Nov_04_1425,ProdSingRedoBetween,2021.2.3,60.03006306
,,,,40,0,40,0,,,,,,,,,,,,,,,,,,,,,,673.5343077,None,,,,,,,,,,,,,,,,,weight,144,41,silent,new,null,670.314538,None,670.314538,None,5,2.6618061,670.314538,None,2.6618061,672.9951102,None,673.4981738,None,673.4981738,None,f,0.0064695,673.4981738,None,0.0064695,,,Nov4Silent5,73,2022_Nov_04_1425,ProdSingRedoBetween,2021.2.3,60.03006306
,,,,41,0,41,0,,,,,,,,,,,,,,,,,,,,,,677.8166778,None,,,,,,,,,,,,,,,,,block,49,42,silent,old,blue,674.0512658,None,674.0512658,None,5,1.7330879,674.0512658,None,1.7330879,675.8199123,None,676.3367542,None,676.3367542,None,f,1.4636812,676.3367542,None,1.4636812,,,Nov4Silent5,73,2022_Nov_04_1425,ProdSingRedoBetween,2021.2.3,60.03006306
,,,,42,0,42,0,,,,,,,,,,,,,,,,,,,,,,683.6713741,None,,,,,,,,,,,,,,,,,school,27,43,silent,old,yellow,678.3194397,None,678.3194397,None,6,3.7528775,678.3194397,None,3.7528775,682.1052056,None,682.6203453,None,682.6203453,None,r,1.0200292,682.6203453,None,1.0200292,,,Nov4Silent5,73,2022_Nov_04_1425,ProdSingRedoBetween,2021.2.3,60.03006306
,,,,43,0,43,0,,,,,,,,,,,,,,,,,,,,,,687.6445707,None,,,,,,,,,,,,,,,,,running,101,44,silent,new,null,684.1734979,None,684.1734979,None,1,1.9388163,684.1734979,None,1.9388163,686.1410025,None,686.6412675,None,686.6412675,None,n,0.9831838,686.6412675,None,0.9831838,,,Nov4Silent5,73,2022_Nov_04_1425,ProdSingRedoBetween,2021.2.3,60.03006306
,,,,44,0,44,0,,,,,,,,,,,,,,,,,,,,,,692.98295,None,,,,,,,,,,,,,,,,,shear,58,45,silent,old,blue,688.1679131,None,688.1679131,None,5,3.648426,688.1679131,None,3.648426,691.8461127,None,692.3534347,None,692.3534347,None,f,0.6069327,692.3534347,None,0.6069327,,,Nov4Silent5,73,2022_Nov_04_1425,ProdSingRedoBetween,2021.2.3,60.03006306
,,,,45,0,45,0,,,,,,,,,,,,,,,,,,,,,,698.702988,None,,,,,,,,,,,,,,,,,right,10,46,silent,old,yellow,693.5042933,None,693.5042933,None,4,3.7919258,693.5042933,None,3.7919258,697.3217335,None,697.835524,None,697.835524,None,f,0.844779,697.835524,None,0.844779,,,Nov4Silent5,73,2022_Nov_04_1425,ProdSingRedoBetween,2021.2.3,60.03006306
,,,,46,0,46,0,,,,,,,,,,,,,,,,,,,,,,702.6426975,None,,,,,,,,,,,,,,,,,platform,138,47,silent,new,null,699.2137022,None,699.2137022,None,6,1.7946122,699.2137022,None,1.7946122,701.0434742,None,701.5574964,None,701.5574964,None,r,1.0667115,701.5574964,None,1.0667115,,,Nov4Silent5,73,2022_Nov_04_1425,ProdSingRedoBetween,2021.2.3,60.03006306
,,,,47,0,47,0,,,,,,,,,,,,,,,,,,,,,,707.0113165,None,,,,,,,,,,,,,,,,,conference,128,48,silent,new,null,703.1575943,None,703.1575943,None,5,2.7947166,703.1575943,None,2.7947166,705.9800513,None,706.4995749,None,706.4995749,None,f,0.4846972,706.4995749,None,0.4846972,,,Nov4Silent5,73,2022_Nov_04_1425,ProdSingRedoBetween,2021.2.3,60.03006306
,,,,48,0,48,0,,,,,,,,,,,,,,,,,,,,,,711.4490314,None,,,,,,,,,,,,,,,,,service,34,49,silent,old,blue,707.5200445,None,707.5200445,None,6,2.7281544,707.5200445,None,2.7281544,710.2678045,None,710.7844477,None,710.7844477,None,r,0.6478991,710.7844477,None,0.6478991,,,Nov4Silent5,73,2022_Nov_04_1425,ProdSingRedoBetween,2021.2.3,60.03006306
,,,,49,0,49,0,,,,,,,,,,,,,,,,,,,,,,716.2038067,None,,,,,,,,,,,,,,,,,atmosphere,18,50,silent,old,yellow,711.9591119,None,711.9591119,None,5,3.3931361,711.9591119,None,3.3931361,715.374391,None,715.888785,None,715.888785,None,f,0.2955336,715.888785,None,0.2955336,,,Nov4Silent5,73,2022_Nov_04_1425,ProdSingRedoBetween,2021.2.3,60.03006306
,,,,50,0,50,0,,,,,,,,,,,,,,,,,,,,,,719.9742201,None,,,,,,,,,,,,,,,,,group,63,51,silent,old,red,716.713434,None,716.713434,None,6,2.446974,716.713434,None,2.446974,719.1907372,None,719.6931334,None,719.6931334,None,r,0.2511676,719.6931334,None,0.2511676,,,Nov4Silent5,73,2022_Nov_04_1425,ProdSingRedoBetween,2021.2.3,60.03006306
,,,,51,0,51,0,,,,,,,,,,,,,,,,,,,,,,723.5444459,None,,,,,,,,,,,,,,,,,guide,152,52,silent,new,null,720.474826,None,720.474826,None,3,1.9174232,720.474826,None,1.9174232,722.4117756,None,722.9300324,None,722.9300324,None,n,0.5981006,722.9300324,None,0.5981006,,,Nov4Silent5,73,2022_Nov_04_1425,ProdSingRedoBetween,2021.2.3,60.03006306
,,,,52,0,52,0,,,,,,,,,,,,,,,,,,,,,,726.8495388,None,,,,,,,,,,,,,,,,,build,93,53,silent,new,null,724.0576043,None,724.0576043,None,6,1.9267348,724.0576043,None,1.9267348,726.0163363,None,726.5348235,None,726.5348235,None,r,0.2974789,726.5348235,None,0.2974789,,,Nov4Silent5,73,2022_Nov_04_1425,ProdSingRedoBetween,2021.2.3,60.03006306
,,,,53,0,53,0,,,,,,,,,,,,,,,,,,,,,,737.1246128,None,,,,,,,,,,,,,,,,,attack,148,54,silent,new,null,727.3647941,None,727.3647941,None,3,5.8514706,727.3647941,None,5.8514706,733.2403303,None,733.754764,None,733.754764,None,n,3.3414606,733.754764,None,3.3414606,,,Nov4Silent5,73,2022_Nov_04_1425,ProdSingRedoBetween,2021.2.3,60.03006306
,,,,54,0,54,0,,,,,,,,,,,,,,,,,,,,,,739.8607409,None,,,,,,,,,,,,,,,,,appearance,11,55,silent,old,yellow,737.6304156,None,737.6304156,None,6,1.4178551,737.6304156,None,1.4178551,739.077421,None,739.5807048,None,739.5807048,None,r,0.2596204,739.5807048,None,0.2596204,,,Nov4Silent5,73,2022_Nov_04_1425,ProdSingRedoBetween,2021.2.3,60.03006306
,,,,55,0,55,0,,,,,,,,,,,,,,,,,,,,,,748.4023642,None,,,,,,,,,,,,,,,,,number,177,56,silent,new,null,740.3620306,None,740.3620306,None,6,6.7022094,740.3620306,None,6.7022094,747.0854666,None,747.5851814,None,747.5851814,None,r,0.7909946,747.5851814,None,0.7909946,,,Nov4Silent5,73,2022_Nov_04_1425,ProdSingRedoBetween,2021.2.3,60.03006306
,,,,56,0,56,0,,,,,,,,,,,,,,,,,,,,,,752.5748141,None,,,,,,,,,,,,,,,,,department,137,57,silent,new,null,748.9030302,None,748.9030302,None,3,2.7052584,748.9030302,None,2.7052584,751.6445334,None,752.1574394,None,752.1574394,None,n,0.3948504,752.1574394,None,0.3948504,,,Nov4Silent5,73,2022_Nov_04_1425,ProdSingRedoBetween,2021.2.3,60.03006306
,,,,57,0,57,0,,,,,,,,,,,,,,,,,,,,,,756.994478,None,,,,,,,,,,,,,,,,,message,96,58,silent,new,null,753.0791431,None,753.0791431,None,3,2.7052434,753.0791431,None,2.7052434,755.8176472,None,756.3342375,None,756.3342375,None,n,0.6338785,756.3342375,None,0.6338785,,,Nov4Silent5,73,2022_Nov_04_1425,ProdSingRedoBetween,2021.2.3,60.03006306
,,,,58,0,58,0,,,,,,,,,,,,,,,,,,,,,,762.1162287,None,,,,,,,,,,,,,,,,,shock,62,59,silent,old,red,757.4994531,None,757.4994531,None,4,3.780701,757.4994531,None,3.780701,761.3002048,None,761.8039359,None,761.8039359,None,f,0.2922623,761.8039359,None,0.2922623,,,Nov4Silent5,73,2022_Nov_04_1425,ProdSingRedoBetween,2021.2.3,60.03006306
,,,,59,0,59,0,,,,,,,,,,,,,,,,,,,,,,766.8042893,None,,,,,,,,,,,,,,,,,length,135,60,silent,new,null,762.6231206,None,762.6231206,None,6,3.5610915,762.6231206,None,3.5610915,766.206324,None,766.7209587,None,766.7209587,None,r,0.0632722,766.7209587,None,0.0632722,,,Nov4Silent5,73,2022_Nov_04_1425,ProdSingRedoBetween,2021.2.3,60.03006306
,,,,60,0,60,0,,,,,,,,,,,,,,,,,,,,,,769.5903571,None,,,,,,,,,,,,,,,,,raise,127,61,silent,new,null,767.3164259,None,767.3164259,None,4,1.5878035,767.3164259,None,1.5878035,768.9260891,None,769.4420381,None,769.4420381,None,f,0.1181995,769.4420381,None,0.1181995,,,Nov4Silent5,73,2022_Nov_04_1425,ProdSingRedoBetween,2021.2.3,60.03006306
,,,,61,0,61,0,,,,,,,,,,,,,,,,,,,,,,774.0946828,None,,,,,,,,,,,,,,,,,health,77,62,silent,old,red,770.0955332,None,770.0955332,None,4,2.1286841,770.0955332,None,2.1286841,772.2447819,None,772.7620322,None,772.7620322,None,f,1.3181386,772.7620322,None,1.3181386,,,Nov4Silent5,73,2022_Nov_04_1425,ProdSingRedoBetween,2021.2.3,60.03006306
,,,,62,0,62,0,,,,,,,,,,,,,,,,,,,,,,777.8156378,None,,,,,,,,,,,,,,,,,detective,170,63,silent,new,null,774.607935,None,774.607935,None,6,2.1522218,774.607935,None,2.1522218,776.7828483,None,777.2981528,None,777.2981528,None,r,0.5020379,777.2981528,None,0.5020379,,,Nov4Silent5,73,2022_Nov_04_1425,ProdSingRedoBetween,2021.2.3,60.03006306
,,,,63,0,63,0,,,,,,,,,,,,,,,,,,,,,,782.6200436,None,,,,,,,,,,,,,,,,,title,40,64,silent,old,blue,778.3218085,None,778.3218085,None,6,3.5185183,778.3218085,None,3.5185183,781.8776953,None,782.3865704,None,782.3865704,None,r,0.205524,782.3865704,None,0.205524,,,Nov4Silent5,73,2022_Nov_04_1425,ProdSingRedoBetween,2021.2.3,60.03006306
,,,,64,0,64,0,,,,,,,,,,,,,,,,,,,,,,786.2569704,None,,,,,,,,,,,,,,,,,smooth,36,65,silent,old,blue,783.1240678,None,783.1240678,None,4,2.2680838,783.1240678,None,2.2680838,785.4237882,None,785.923428,None,785.923428,None,f,0.3087291,785.923428,None,0.3087291,,,Nov4Silent5,73,2022_Nov_04_1425,ProdSingRedoBetween,2021.2.3,60.03006306
,,,,65,0,65,0,,,,,,,,,,,,,,,,,,,,,,789.3433222,None,,,,,,,,,,,,,,,,,pressure,52,66,silent,old,blue,786.7653319,None,786.7653319,None,4,1.7788121,786.7653319,None,1.7788121,788.5604944,None,789.0666011,None,789.0666011,None,f,0.2535759,789.0666011,None,0.2535759,,,Nov4Silent5,73,2022_Nov_04_1425,ProdSingRedoBetween,2021.2.3,60.03006306
,,,,66,0,66,0,,,,,,,,,,,,,,,,,,,,,,793.9309784,None,,,,,,,,,,,,,,,,,object,85,67,silent,old,red,789.8446976,None,789.8446976,None,6,3.2274158,789.8446976,None,3.2274158,793.1045267,None,793.6142908,None,793.6142908,None,r,0.2898531,793.6142908,None,0.2898531,,,Nov4Silent5,73,2022_Nov_04_1425,ProdSingRedoBetween,2021.2.3,60.03006306
,,,,67,0,67,0,,,,,,,,,,,,,,,,,,,,,,799.3710826,None,,,,,,,,,,,,,,,,,narrow,4,68,silent,old,yellow,794.4347801,None,794.4347801,None,5,4.1413826,794.4347801,None,4.1413826,798.6091651,None,799.1197314,None,799.1197314,None,f,0.2245647,799.1197314,None,0.2245647,,,Nov4Silent5,73,2022_Nov_04_1425,ProdSingRedoBetween,2021.2.3,60.03006306
,,,,68,0,68,0,,,,,,,,,,,,,,,,,,,,,,803.6073669,None,,,,,,,,,,,,,,,,,general,105,69,silent,new,null,799.8761451,None,799.8761451,None,4,3.0520111,799.8761451,None,3.0520111,802.9576193,None,803.4575662,None,803.4575662,None,f,0.1186284,803.4575662,None,0.1186284,,,Nov4Silent5,73,2022_Nov_04_1425,ProdSingRedoBetween,2021.2.3,60.03006306
,,,,69,0,69,0,,,,,,,,,,,,,,,,,,,,,,807.6116459,None,,,,,,,,,,,,,,,,,permit,87,70,silent,old,red,804.1120544,None,804.1120544,None,6,2.856209,804.1120544,None,2.856209,806.9956614,None,807.4957525,None,807.4957525,None,r,0.0883429,807.4957525,None,0.0883429,,,Nov4Silent5,73,2022_Nov_04_1425,ProdSingRedoBetween,2021.2.3,60.03006306
,,,,70,0,70,0,,,,,,,,,,,,,,,,,,,,,,810.7483799,None,,,,,,,,,,,,,,,,,music,89,71,silent,old,red,808.1188792,None,808.1188792,None,4,1.7852167,808.1188792,None,1.7852167,809.9318666,None,810.4398031,None,810.4398031,None,f,0.2882054,810.4398031,None,0.2882054,,,Nov4Silent5,73,2022_Nov_04_1425,ProdSingRedoBetween,2021.2.3,60.03006306
,,,,71,0,71,0,,,,,,,,,,,,,,,,,,,,,,813.9846387,None,,,,,,,,,,,,,,,,,distance,68,72,silent,old,red,811.2492907,None,811.2492907,None,4,1.8628819,811.2492907,None,1.8628819,813.1385385,None,813.6530142,None,813.6530142,None,f,0.3071087,813.6530142,None,0.3071087,,,Nov4Silent5,73,2022_Nov_04_1425,ProdSingRedoBetween,2021.2.3,60.03006306
,,,,72,0,72,0,,,,,,,,,,,,,,,,,,,,,,817.9551712,None,,,,,,,,,,,,,,,,,present,103,73,silent,new,null,814.4939844,None,814.4939844,None,6,2.2661029,814.4939844,None,2.2661029,816.794973,None,817.3044388,None,817.3044388,None,r,0.6236138,817.3044388,None,0.6236138,,,Nov4Silent5,73,2022_Nov_04_1425,ProdSingRedoBetween,2021.2.3,60.03006306
,,,,73,0,73,0,,,,,,,,,,,,,,,,,,,,,,822.4430872,None,,,,,,,,,,,,,,,,,touch,70,74,silent,old,red,818.4664699,None,818.4664699,None,2,2.7975911,818.4664699,None,2.7975911,821.2934535,None,821.7948166,None,821.7948166,None,n,0.6212268,821.7948166,None,0.6212268,,,Nov4Silent5,73,2022_Nov_04_1425,ProdSingRedoBetween,2021.2.3,60.03006306
,,,,74,0,74,0,,,,,,,,,,,,,,,,,,,,,,825.7297825,None,,,,,,,,,,,,,,,,,sight,61,75,silent,old,red,822.9543327,None,822.9543327,None,2,1.973881,822.9543327,None,1.973881,824.9595246,None,825.4625764,None,825.4625764,None,n,0.2414354,825.4625764,None,0.2414354,,,Nov4Silent5,73,2022_Nov_04_1425,ProdSingRedoBetween,2021.2.3,60.03006306
,,,,75,0,75,0,,,,,,,,,,,,,,,,,,,,,,830.5675745,None,,,,,,,,,,,,,,,,,alert,7,76,silent,old,yellow,826.2313138,None,826.2313138,None,4,3.7127792,826.2313138,None,3.7127792,829.969935,None,830.4845952,None,830.4845952,None,f,0.0595516,830.4845952,None,0.0595516,,,Nov4Silent5,73,2022_Nov_04_1425,ProdSingRedoBetween,2021.2.3,60.03006306
,,,,76,0,76,0,,,,,,,,,,,,,,,,,,,,,,833.9378565,None,,,,,,,,,,,,,,,,,century,99,77,silent,new,null,831.0738206,None,831.0738206,None,4,2.2622319,831.0738206,None,2.2622319,833.3552684,None,833.8549328,None,833.8549328,None,f,0.0651503,833.8549328,None,0.0651503,,,Nov4Silent5,73,2022_Nov_04_1425,ProdSingRedoBetween,2021.2.3,60.03006306
,,,,77,0,77,0,,,,,,,,,,,,,,,,,,,,,,838.5591478,None,,,,,,,,,,,,,,,,,dream,176,78,silent,new,null,834.443985,None,834.443985,None,4,3.4123028,834.443985,None,3.4123028,837.876657,None,838.3924545,None,838.3924545,None,f,0.1436184,838.3924545,None,0.1436184,,,Nov4Silent5,73,2022_Nov_04_1425,ProdSingRedoBetween,2021.2.3,60.03006306
,,,,78,0,78,0,,,,,,,,,,,,,,,,,,,,,,841.3283325,None,,,,,,,,,,,,,,,,,season,13,79,silent,old,yellow,839.0702989,None,839.0702989,None,5,1.5297341,839.0702989,None,1.5297341,840.6297192,None,841.1486928,None,841.1486928,None,f,0.1555359,841.1486928,None,0.1555359,,,Nov4Silent5,73,2022_Nov_04_1425,ProdSingRedoBetween,2021.2.3,60.03006306
,,,,79,0,79,0,,,,,,,,,,,,,,,,,,,,,,843.8311447,None,,,,,,,,,,,,,,,,,finish,110,80,silent,new,null,841.8320756,None,841.8320756,None,4,1.3120324,841.8320756,None,1.3120324,843.1673374,None,843.684123,None,843.684123,None,f,0.1160348,843.684123,None,0.1160348,,,Nov4Silent5,73,2022_Nov_04_1425,ProdSingRedoBetween,2021.2.3,60.03006306
,,,,80,0,80,0,,,,,,,,,,,,,,,,,,,,,,847.7197219,None,,,,,,,,,,,,,,,,,broad,113,81,silent,new,null,844.3332121,None,844.3332121,None,6,2.5628471,844.3332121,None,2.5628471,846.9172288,None,847.4178654,None,847.4178654,None,r,0.2781026,847.4178654,None,0.2781026,,,Nov4Silent5,73,2022_Nov_04_1425,ProdSingRedoBetween,2021.2.3,60.03006306
,,,,81,0,81,0,,,,,,,,,,,,,,,,,,,,,,851.4552778,None,,,,,,,,,,,,,,,,,treatment,112,82,silent,new,null,848.2281909,None,848.2281909,None,4,1.4518403,848.2281909,None,1.4518403,849.7044716,None,850.2096235,None,850.2096235,None,f,1.2144364,850.2096235,None,1.2144364,,,Nov4Silent5,73,2022_Nov_04_1425,ProdSingRedoBetween,2021.2.3,60.03006306
,,,,82,0,82,0,,,,,,,,,,,,,,,,,,,,,,854.1078205,None,,,,,,,,,,,,,,,,,month,69,83,silent,old,red,851.963606,None,851.963606,None,4,1.5164191,851.963606,None,1.5164191,853.5105392,None,854.0275245,None,854.0275245,None,f,0.0524837,854.0275245,None,0.0524837,,,Nov4Silent5,73,2022_Nov_04_1425,ProdSingRedoBetween,2021.2.3,60.03006306
,,,,83,0,83,0,,,,,,,,,,,,,,,,,,,,,,856.6938039,None,,,,,,,,,,,,,,,,,phrase,98,84,silent,new,null,854.6104294,None,854.6104294,None,4,1.2696401,854.6104294,None,1.2696401,855.9124887,None,856.4325504,None,856.4325504,None,f,0.239603,856.4325504,None,0.239603,,,Nov4Silent5,73,2022_Nov_04_1425,ProdSingRedoBetween,2021.2.3,60.03006306
,,,,84,0,84,0,,,,,,,,,,,,,,,,,,,,,,859.7002706,None,,,,,,,,,,,,,,,,,frank,141,85,silent,new,null,857.2134879,None,857.2134879,None,1,1.7545538,857.2134879,None,1.7545538,858.9973203,None,859.5014303,None,859.5014303,None,n,0.1706805,859.5014303,None,0.1706805,,,Nov4Silent5,73,2022_Nov_04_1425,ProdSingRedoBetween,2021.2.3,60.03006306
,,,,85,0,85,0,,,,,,,,,,,,,,,,,,,,,,864.168144,None,,,,,,,,,,,,,,,,,range,157,86,silent,new,null,860.2201851,None,860.2201851,None,5,2.7798596,860.2201851,None,2.7798596,863.0210638,None,863.5380273,None,863.5380273,None,r,0.6059841,863.5380273,None,0.6059841,,,Nov4Silent5,73,2022_Nov_04_1425,ProdSingRedoBetween,2021.2.3,60.03006306
,,,,86,0,86,0,,,,,,,,,,,,,,,,,,,,,,867.6047228,None,,,,,,,,,,,,,,,,,meeting,45,87,silent,old,blue,864.683417,None,864.683417,None,5,2.1965328,864.683417,None,2.1965328,866.9041917,None,867.4149329,None,867.4149329,None,r,0.1610103,867.4149329,None,0.1610103,,,Nov4Silent5,73,2022_Nov_04_1425,ProdSingRedoBetween,2021.2.3,60.03006306
,,,,87,0,87,0,,,,,,,,,,,,,,,,,,,,,,871.0245215,None,,,,,,,,,,,,,,,,,count,130,88,silent,new,null,868.1055462,None,868.1055462,None,2,2.1425979,868.1055462,None,2.1425979,870.2780943,None,870.7940178,None,870.7940178,None,n,0.2139972,870.7940178,None,0.2139972,,,Nov4Silent5,73,2022_Nov_04_1425,ProdSingRedoBetween,2021.2.3,60.03006306
,,,,88,0,88,0,,,,,,,,,,,,,,,,,,,,,,873.5606342,None,,,,,,,,,,,,,,,,,height,106,89,silent,new,null,871.5365179,None,871.5365179,None,2,1.4474431,871.5365179,None,1.4474431,873.0111067,None,873.5132499,None,873.5132499,None,n,0.0227541,873.5132499,None,0.0227541,,,Nov4Silent5,73,2022_Nov_04_1425,ProdSingRedoBetween,2021.2.3,60.03006306
,,,,89,0,89,0,,,,,,,,,,,,,,,,,,,,,,876.9807082,None,,,,,,,,,,,,,,,,,benefit,6,90,silent,old,yellow,874.0700885,None,874.0700885,None,3,2.2418505,874.0700885,None,2.2418505,876.3313332,None,876.8375366,None,876.8375366,None,n,0.1145486,876.8375366,None,0.1145486,,,Nov4Silent5,73,2022_Nov_04_1425,ProdSingRedoBetween,2021.2.3,60.03006306
,,,,90,0,90,0,,,,,,,,,,,,,,,,,,,,,,880.9514669,None,,,,,,,,,,,,,,,,,space,91,91,silent,new,null,877.4839496,None,877.4839496,None,4,2.7241554,877.4839496,None,2.7241554,880.2420683,None,880.7584282,None,880.7584282,None,f,0.1695919,880.7584282,None,0.1695919,,,Nov4Silent5,73,2022_Nov_04_1425,ProdSingRedoBetween,2021.2.3,60.03006306
,,,,91,0,91,0,,,,,,,,,,,,,,,,,,,,,,885.3726126,None,,,,,,,,,,,,,,,,,angle,29,92,silent,old,blue,881.4598265,None,881.4598265,None,4,3.2362935,881.4598265,None,3.2362935,884.7215993,None,885.2249956,None,885.2249956,None,f,0.1190601,885.2249956,None,0.1190601,,,Nov4Silent5,73,2022_Nov_04_1425,ProdSingRedoBetween,2021.2.3,60.03006306
,,,,92,0,92,0,,,,,,,,,,,,,,,,,,,,,,892.7633009,None,,,,,,,,,,,,,,,,,republic,131,93,silent,new,null,885.8764062,None,885.8764062,None,1,6.2915428,885.8764062,None,6.2915428,892.1982804,None,892.7167329,None,892.7167329,None,n,0.0273836,892.7167329,None,0.0273836,,,Nov4Silent5,73,2022_Nov_04_1425,ProdSingRedoBetween,2021.2.3,60.03006306
,,,,93,0,93,0,,,,,,,,,,,,,,,,,,,,,,897.5513052,None,,,,,,,,,,,,,,,,,answer,55,94,silent,old,blue,893.2734693,None,893.2734693,None,6,2.5504771,893.2734693,None,2.5504771,895.8510412,None,896.3519079,None,896.3519079,None,r,1.1840808,896.3519079,None,1.1840808,,,Nov4Silent5,73,2022_Nov_04_1425,ProdSingRedoBetween,2021.2.3,60.03006306
,,,,94,0,94,0,,,,,,,,,,,,,,,,,,,,,,900.7876924,None,,,,,,,,,,,,,,,,,emergency,32,95,silent,old,blue,898.0647357,None,898.0647357,None,6,1.6792321,898.0647357,None,1.6792321,899.7735409,None,900.2906206,None,900.2906206,None,r,0.4692902,900.2906206,None,0.4692902,,,Nov4Silent5,73,2022_Nov_04_1425,ProdSingRedoBetween,2021.2.3,60.03006306
,,,,95,0,95,0,,,,,,,,,,,,,,,,,,,,,,905.7260409,None,,,,,,,,,,,,,,,,,problem,90,96,silent,new,null,901.2961141,None,901.2961141,None,3,2.5759698,901.2961141,None,2.5759698,903.8979808,None,904.4081177,None,904.4081177,None,n,1.2958276,904.4081177,None,1.2958276,,,Nov4Silent5,73,2022_Nov_04_1425,ProdSingRedoBetween,2021.2.3,60.03006306
,,,,96,0,96,0,,,,,,,,,,,,,,,,,,,,,,910.4141095,None,,,,,,,,,,,,,,,,,people,12,97,silent,old,yellow,906.2354715,None,906.2354715,None,4,3.2125915,906.2354715,None,3.2125915,909.4662578,None,909.9841668,None,909.9841668,None,f,0.3998049,909.9841668,None,0.3998049,,,Nov4Silent5,73,2022_Nov_04_1425,ProdSingRedoBetween,2021.2.3,60.03006306
,,,,97,0,97,0,,,,,,,,,,,,,,,,,,,,,,913.1668065,None,,,,,,,,,,,,,,,,,suspect,118,98,silent,new,null,910.9250904,None,910.9250904,None,1,1.5548532,910.9250904,None,1.5548532,912.5007623,None,913.0001509,None,913.0001509,None,n,0.1358044,913.0001509,None,0.1358044,,,Nov4Silent5,73,2022_Nov_04_1425,ProdSingRedoBetween,2021.2.3,60.03006306
,,,,98,0,98,0,,,,,,,,,,,,,,,,,,,,,,915.7527391,None,,,,,,,,,,,,,,,,,signal,54,99,silent,old,blue,913.67508,None,913.67508,None,6,1.4368692,913.67508,None,1.4368692,915.1370898,None,915.6527672,None,915.6527672,None,r,0.0831787,915.6527672,None,0.0831787,,,Nov4Silent5,73,2022_Nov_04_1425,ProdSingRedoBetween,2021.2.3,60.03006306
,,,,99,0,99,0,,,,,,,,,,,,,,,,,,,,,,922.7431386,None,,,,,,,,,,,,,,,,,enemy,134,100,silent,new,null,916.2632947,None,916.2632947,None,3,5.6406396,916.2632947,None,5.6406396,921.9286628,None,922.4429719,None,922.4429719,None,n,0.2690347,922.4429719,None,0.2690347,,,Nov4Silent5,73,2022_Nov_04_1425,ProdSingRedoBetween,2021.2.3,60.03006306
,,,,100,0,100,0,,,,,,,,,,,,,,,,,,,,,,926.0964202,None,,,,,,,,,,,,,,,,,prime,65,101,silent,old,red,923.2484162,None,923.2484162,None,5,1.8874612,923.2484162,None,1.8874612,925.1622299,None,925.6627101,None,925.6627101,None,f,0.4171863,925.6627101,None,0.4171863,,,Nov4Silent5,73,2022_Nov_04_1425,ProdSingRedoBetween,2021.2.3,60.03006306
,,,,101,0,101,0,,,,,,,,,,,,,,,,,,,,,,928.9991621,None,,,,,,,,,,,,,,,,,front,166,102,silent,new,null,926.6045701,None,926.6045701,None,5,1.5873794,926.6045701,None,1.5873794,928.2178078,None,928.7323178,None,928.7323178,None,f,0.2358368,928.7323178,None,0.2358368,,,Nov4Silent5,73,2022_Nov_04_1425,ProdSingRedoBetween,2021.2.3,60.03006306
,,,,102,0,102,0,,,,,,,,,,,,,,,,,,,,,,932.9031534,None,,,,,,,,,,,,,,,,,captain,164,103,silent,new,null,929.5035607,None,929.5035607,None,1,2.6643297,929.5035607,None,2.6643297,932.1888017,None,932.7028624,None,932.7028624,None,n,0.1849466,932.7028624,None,0.1849466,,,Nov4Silent5,73,2022_Nov_04_1425,ProdSingRedoBetween,2021.2.3,60.03006306
,,,,103,0,103,0,,,,,,,,,,,,,,,,,,,,,,938.2917577,None,,,,,,,,,,,,,,,,,drink,119,104,silent,new,null,933.413707,None,933.413707,None,3,1.5942013,933.413707,None,1.5942013,935.0397207,None,935.5432342,None,935.5432342,None,n,2.7289311,935.5432342,None,2.7289311,,,Nov4Silent5,73,2022_Nov_04_1425,ProdSingRedoBetween,2021.2.3,60.03006306
,,,,104,0,104,0,,,,,,,,,,,,,,,,,,,,,,950.1204382,None,,,,,,,,,,,,,,,,,watch,143,105,silent,new,null,938.795277,None,938.795277,None,5,9.6047375,938.795277,None,9.6047375,948.424943,None,948.9359954,None,948.9359954,None,f,1.1679114,948.9359954,None,1.1679114,,,Nov4Silent5,73,2022_Nov_04_1425,ProdSingRedoBetween,2021.2.3,60.03006306
,,,,105,0,105,0,,,,,,,,,,,,,,,,,,,,,,952.9896854,None,,,,,,,,,,,,,,,,,religion,161,106,silent,new,null,950.6284762,None,950.6284762,None,1,1.4834087,950.6284762,None,1.4834087,952.1393364,None,952.6442175,None,952.6442175,None,n,0.3157494,952.6442175,None,0.3157494,,,Nov4Silent5,73,2022_Nov_04_1425,ProdSingRedoBetween,2021.2.3,60.03006306
,,,,106,0,106,0,,,,,,,,,,,,,,,,,,,,,,958.7289988,None,,,,,,,,,,,,,,,,,track,46,107,silent,old,blue,953.4955998,None,953.4955998,None,4,2.7681541,953.4955998,None,2.7681541,956.2978766,None,956.8104944,None,956.8104944,None,f,1.9013487,956.8104944,None,1.9013487,,,Nov4Silent5,73,2022_Nov_04_1425,ProdSingRedoBetween,2021.2.3,60.03006306
,,,,107,0,107,0,,,,,,,,,,,,,,,,,,,,,,962.5661885,None,,,,,,,,,,,,,,,,,produce,155,108,silent,new,null,959.2434461,None,959.2434461,None,6,2.4524263,959.2434461,None,2.4524263,961.7180804,None,962.2370042,None,962.2370042,None,r,0.298863,962.2370042,None,0.298863,,,Nov4Silent5,73,2022_Nov_04_1425,ProdSingRedoBetween,2021.2.3,60.03006306
,,,,108,0,108,0,,,,,,,,,,,,,,,,,,,,,,965.6069415,None,,,,,,,,,,,,,,,,,executive,115,109,silent,new,null,963.080671,None,963.080671,None,6,1.6871539,963.080671,None,1.6871539,964.7899112,None,965.3062681,None,965.3062681,None,r,0.2777377,965.3062681,None,0.2777377,,,Nov4Silent5,73,2022_Nov_04_1425,ProdSingRedoBetween,2021.2.3,60.03006306
,,,,109,0,109,0,,,,,,,,,,,,,,,,,,,,,,969.3229005,None,,,,,,,,,,,,,,,,,suggestion,17,110,silent,old,yellow,966.1239451,None,966.1239451,None,4,2.1718531,966.1239451,None,2.1718531,968.324477,None,968.8392108,None,968.8392108,None,f,0.4565526,968.8392108,None,0.4565526,,,Nov4Silent5,73,2022_Nov_04_1425,ProdSingRedoBetween,2021.2.3,60.03006306
,,,,110,0,110,0,,,,,,,,,,,,,,,,,,,,,,974.7950004,None,,,,,,,,,,,,,,,,,drove,51,111,silent,old,blue,969.8294628,None,969.8294628,None,4,4.0583713,969.8294628,None,4.0583713,973.9119916,None,974.411341,None,974.411341,None,f,0.3564784,974.411341,None,0.3564784,,,Nov4Silent5,73,2022_Nov_04_1425,ProdSingRedoBetween,2021.2.3,60.03006306
,,,,111,0,111,0,,,,,,,,,,,,,,,,,,,,,,980.7676404,None,,,,,,,,,,,,,,,,,defeat,42,112,silent,old,blue,975.3094844,None,975.3094844,None,6,4.7784253,975.3094844,None,4.7784253,980.119894,None,980.6342955,None,980.6342955,None,r,0.1175577,980.6342955,None,0.1175577,,,Nov4Silent5,73,2022_Nov_04_1425,ProdSingRedoBetween,2021.2.3,60.03006306
,,,,112,0,112,0,,,,,,,,,,,,,,,,,,,,,,984.1710153,None,,,,,,,,,,,,,,,,,beginning,111,113,silent,new,null,981.2707425,None,981.2707425,None,6,2.0092803,981.2707425,None,2.0092803,983.3119573,None,983.8208057,None,983.8208057,None,r,0.3230374,983.8208057,None,0.3230374,,,Nov4Silent5,73,2022_Nov_04_1425,ProdSingRedoBetween,2021.2.3,60.03006306
,,,,113,0,113,0,,,,,,,,,,,,,,,,,,,,,,989.9768468,None,,,,,,,,,,,,,,,,,career,104,114,silent,new,null,984.6715949,None,984.6715949,None,4,3.8002154,984.6715949,None,3.8002154,988.4927912,None,988.9984603,None,988.9984603,None,n,0.9613472,988.9984603,None,0.9613472,,,Nov4Silent5,73,2022_Nov_04_1425,ProdSingRedoBetween,2021.2.3,60.03006306
,,,,114,0,114,0,,,,,,,,,,,,,,,,,,,,,,993.1633261,None,,,,,,,,,,,,,,,,,ground,100,115,silent,new,null,990.4857108,None,990.4857108,None,4,1.6260315,990.4857108,None,1.6260315,992.1309332,None,992.6507107,None,992.6507107,None,f,0.4850561,992.6507107,None,0.4850561,,,Nov4Silent5,73,2022_Nov_04_1425,ProdSingRedoBetween,2021.2.3,60.03006306
,,,,115,0,115,0,,,,,,,,,,,,,,,,,,,,,,995.9847203,None,,,,,,,,,,,,,,,,,agency,47,116,silent,old,blue,993.6673474,None,993.6673474,None,6,1.516472,993.6673474,None,1.516472,995.1999732,None,995.6990514,None,995.6990514,None,r,0.2528768,995.6990514,None,0.2528768,,,Nov4Silent5,73,2022_Nov_04_1425,ProdSingRedoBetween,2021.2.3,60.03006306
,,,,116,0,116,0,,,,,,,,,,,,,,,,,,,,,,1000.487283,None,,,,,,,,,,,,,,,,,short,80,117,silent,old,red,996.503583,None,996.503583,None,4,2.9682816,996.503583,None,2.9682816,999.5038059,None,1000.003621,None,1000.003621,None,n,0.4681893,1000.003621,None,0.4681893,,,Nov4Silent5,73,2022_Nov_04_1425,ProdSingRedoBetween,2021.2.3,60.03006306
,,,,117,0,117,0,,,,,,,,,,,,,,,,,,,,,,1005.659096,None,,,,,,,,,,,,,,,,,agreement,9,118,silent,old,yellow,1001.004623,None,1001.004623,None,3,3.7471614,1001.004623,None,3.7471614,1004.774875,None,1005.283108,None,1005.283108,None,n,0.3566772,1005.283108,None,0.3566772,,,Nov4Silent5,73,2022_Nov_04_1425,ProdSingRedoBetween,2021.2.3,60.03006306
,,,,118,0,118,0,,,,,,,,,,,,,,,,,,,,,,1008.898646,None,,,,,,,,,,,,,,,,,government,0,119,silent,old,yellow,1006.167862,None,1006.167862,None,6,2.0799159,1006.167862,None,2.0799159,1008.279301,None,1008.800434,None,1008.800434,None,r,0.0793941,1008.800434,None,0.0793941,,,Nov4Silent5,73,2022_Nov_04_1425,ProdSingRedoBetween,2021.2.3,60.03006306
,,,,119,0,119,0,,,,,,,,,,,,,,,,,,,,,,1011.498191,None,,,,,,,,,,,,,,,,,personnel,79,120,silent,old,red,1009.414538,None,1009.414538,None,6,1.1614243,1009.414538,None,1.1614243,1010.603194,None,1011.114716,None,1011.114716,None,r,0.3650039,1011.114716,None,0.3650039,,,Nov4Silent5,73,2022_Nov_04_1425,ProdSingRedoBetween,2021.2.3,60.03006306
,,,,120,0,120,0,,,,,,,,,,,,,,,,,,,,,,1013.483508,None,,,,,,,,,,,,,,,,,leader,168,121,silent,new,null,1012.003135,None,1012.003135,None,6,0.6206317,1012.003135,None,0.6206317,1012.6529,None,1013.166649,None,1013.166649,None,r,0.2890684,1013.166649,None,0.2890684,,,Nov4Silent5,73,2022_Nov_04_1425,ProdSingRedoBetween,2021.2.3,60.03006306
,,,,121,0,121,0,,,,,,,,,,,,,,,,,,,,,,1015.986132,None,,,,,,,,,,,,,,,,,trial,165,122,silent,new,null,1013.991175,None,1013.991175,None,6,1.1765642,1013.991175,None,1.1765642,1015.188027,None,1015.704586,None,1015.704586,None,r,0.2631247,1015.704586,None,0.2631247,,,Nov4Silent5,73,2022_Nov_04_1425,ProdSingRedoBetween,2021.2.3,60.03006306
,,,,122,0,122,0,,,,,,,,,,,,,,,,,,,,,,1018.622047,None,,,,,,,,,,,,,,,,,dance,24,123,silent,old,yellow,1016.495255,None,1016.495255,None,6,1.264477,1016.495255,None,1.264477,1017.789564,None,1018.308119,None,1018.308119,None,r,0.2836273,1018.308119,None,0.2836273,,,Nov4Silent5,73,2022_Nov_04_1425,ProdSingRedoBetween,2021.2.3,60.03006306
,,,,123,0,123,0,,,,,,,,,,,,,,,,,,,,,,1024.229489,None,,,,,,,,,,,,,,,,,little,88,124,silent,old,red,1019.128901,None,1019.128901,None,4,4.4868074,1019.128901,None,4.4868074,1023.64432,None,1024.153203,None,1024.153203,None,n,0.0466387,1024.153203,None,0.0466387,,,Nov4Silent5,73,2022_Nov_04_1425,ProdSingRedoBetween,2021.2.3,60.03006306
,,,,124,0,124,0,,,,,,,,,,,,,,,,,,,,,,1027.581242,None,,,,,,,,,,,,,,,,,shape,132,125,silent,new,null,1024.744937,None,1024.744937,None,6,1.7988194,1024.744937,None,1.7988194,1026.567659,None,1027.080274,None,1027.080274,None,r,0.4793634,1027.080274,None,0.4793634,,,Nov4Silent5,73,2022_Nov_04_1425,ProdSingRedoBetween,2021.2.3,60.03006306
,,,,125,0,125,0,,,,,,,,,,,,,,,,,,,,,,1032.67406,None,,,,,,,,,,,,,,,,,quantity,44,126,silent,old,blue,1028.081581,None,1028.081581,None,6,3.7901397,1028.081581,None,3.7901397,1031.904048,None,1032.420279,None,1032.420279,None,r,0.2275689,1032.420279,None,0.2275689,,,Nov4Silent5,73,2022_Nov_04_1425,ProdSingRedoBetween,2021.2.3,60.03006306
,,,,126,0,126,0,,,,,,,,,,,,,,,,,,,,,,1037.174058,None,,,,,,,,,,,,,,,,,degree,95,127,silent,new,null,1033.200906,None,1033.200906,None,5,1.8867973,1033.200906,None,1.8867973,1035.107858,None,1035.623911,None,1035.623911,None,f,1.5278433,1035.623911,None,1.5278433,,,Nov4Silent5,73,2022_Nov_04_1425,ProdSingRedoBetween,2021.2.3,60.03006306
,,,,127,0,127,0,,,,,,,,,,,,,,,,,,,,,,1040.093358,None,,,,,,,,,,,,,,,,,provision,81,128,silent,old,red,1037.674521,None,1037.674521,None,6,1.7333,1037.674521,None,1.7333,1039.434681,None,1039.949609,None,1039.949609,None,r,0.1221265,1039.949609,None,0.1221265,,,Nov4Silent5,73,2022_Nov_04_1425,ProdSingRedoBetween,2021.2.3,60.03006306
,,,,128,0,128,0,,,,,,,,,,,,,,,,,,,,,,1043.397677,None,,,,,,,,,,,,,,,,,testimony,53,129,silent,old,blue,1040.603593,None,1040.603593,None,6,1.9562713,1040.603593,None,1.9562713,1042.581143,None,1043.100021,None,1043.100021,None,r,0.2759453,1043.100021,None,0.2759453,,,Nov4Silent5,73,2022_Nov_04_1425,ProdSingRedoBetween,2021.2.3,60.03006306
,,,,129,0,129,0,,,,,,,,,,,,,,,,,,,,,,1046.016042,None,,,,,,,,,,,,,,,,,thick,31,130,silent,old,blue,1043.908311,None,1043.908311,None,1,1.4913736,1043.908311,None,1.4913736,1045.418436,None,1045.93273,None,1045.93273,None,n,0.0590211,1045.93273,None,0.0590211,,,Nov4Silent5,73,2022_Nov_04_1425,ProdSingRedoBetween,2021.2.3,60.03006306
,,,,130,0,130,0,,,,,,,,,,,,,,,,,,,,,,1053.991619,None,,,,,,,,,,,,,,,,,quick,122,131,silent,new,null,1046.522639,None,1046.522639,None,2,6.7170295,1046.522639,None,6.7170295,1053.257808,None,1053.761924,None,1053.761924,None,n,0.2058108,1053.761924,None,0.2058108,,,Nov4Silent5,73,2022_Nov_04_1425,ProdSingRedoBetween,2021.2.3,60.03006306
,,,,131,0,131,0,,,,,,,,,,,,,,,,,,,,,,1057.427123,None,,,,,,,,,,,,,,,,,addition,67,132,silent,old,red,1054.4926,None,1054.4926,None,3,2.1950899,1054.4926,None,2.1950899,1056.712731,None,1057.227069,None,1057.227069,None,n,0.1725423,1057.227069,None,0.1725423,,,Nov4Silent5,73,2022_Nov_04_1425,ProdSingRedoBetween,2021.2.3,60.03006306
,,,,132,0,132,0,,,,,,,,,,,,,,,,,,,,,,1061.431378,None,,,,,,,,,,,,,,,,,danger,21,133,silent,old,yellow,1057.92786,None,1057.92786,None,4,2.535831,1057.92786,None,2.535831,1060.480495,None,1060.980997,None,1060.980997,None,f,0.4267168,1060.980997,None,0.4267168,,,Nov4Silent5,73,2022_Nov_04_1425,ProdSingRedoBetween,2021.2.3,60.03006306
,,,,133,0,133,0,,,,,,,,,,,,,,,,,,,,,,1063.917153,None,,,,,,,,,,,,,,,,,scene,20,134,silent,old,yellow,1061.936115,None,1061.936115,None,4,1.3517035,1061.936115,None,1.3517035,1063.321202,None,1063.834034,None,1063.834034,None,f,0.0537046,1063.834034,None,0.0537046,,,Nov4Silent5,73,2022_Nov_04_1425,ProdSingRedoBetween,2021.2.3,60.03006306
,,,,134,0,134,0,,,,,,,,,,,,,,,,,,,,,,1067.787753,None,,,,,,,,,,,,,,,,,council,146,135,silent,new,null,1064.421414,None,1064.421414,None,6,1.938229,1064.421414,None,1.938229,1066.388659,None,1066.903642,None,1066.903642,None,r,0.8640719,1066.903642,None,0.8640719,,,Nov4Silent5,73,2022_Nov_04_1425,ProdSingRedoBetween,2021.2.3,60.03006306
,,,,135,0,135,0,,,,,,,,,,,,,,,,,,,,,,1070.361001,None,,,,,,,,,,,,,,,,,report,163,136,silent,new,null,1068.295443,None,1068.295443,None,4,1.4643215,1068.295443,None,1.4643215,1069.794644,None,1070.308321,None,1070.308321,None,f,0.0273922,1070.308321,None,0.0273922,,,Nov4Silent5,73,2022_Nov_04_1425,ProdSingRedoBetween,2021.2.3,60.03006306
,,,,136,0,136,0,,,,,,,,,,,,,,,,,,,,,,1074.527468,None,,,,,,,,,,,,,,,,,state,169,137,silent,new,null,1070.88022,None,1070.88022,None,1,1.7754748,1070.88022,None,1.7754748,1072.677266,None,1073.177523,None,1073.177523,None,n,1.3260698,1073.177523,None,1.3260698,,,Nov4Silent5,73,2022_Nov_04_1425,ProdSingRedoBetween,2021.2.3,60.03006306
,,,,137,0,137,0,,,,,,,,,,,,,,,,,,,,,,1083.104004,None,,,,,,,,,,,,,,,,,empty,38,138,silent,old,blue,1075.030016,None,1075.030016,None,3,5.9296529,1075.030016,None,5.9296529,1080.987017,None,1081.506373,None,1081.506373,None,n,1.5733068,1081.506373,None,1.5733068,,,Nov4Silent5,73,2022_Nov_04_1425,ProdSingRedoBetween,2021.2.3,60.03006306
,,,,138,0,138,0,,,,,,,,,,,,,,,,,,,,,,1088.575184,None,,,,,,,,,,,,,,,,,turkey,140,139,silent,new,null,1083.61461,None,1083.61461,None,6,4.0969515,1083.61461,None,4.0969515,1087.743152,None,1088.260186,None,1088.260186,None,r,0.2996185,1088.260186,None,0.2996185,,,Nov4Silent5,73,2022_Nov_04_1425,ProdSingRedoBetween,2021.2.3,60.03006306
,,,,139,0,139,0,,,,,,,,,,,,,,,,,,,,,,1093.113051,None,,,,,,,,,,,,,,,,,stand,66,140,silent,old,red,1089.078862,None,1089.078862,None,4,2.840776,1089.078862,None,2.840776,1091.947904,None,1092.467475,None,1092.467475,None,f,0.62008,1092.467475,None,0.62008,,,Nov4Silent5,73,2022_Nov_04_1425,ProdSingRedoBetween,2021.2.3,60.03006306
,,,,140,0,140,0,,,,,,,,,,,,,,,,,,,,,,1101.711577,None,,,,,,,,,,,,,,,,,budget,179,141,silent,new,null,1093.624426,None,1093.624426,None,4,7.1031853,1093.624426,None,7.1031853,1100.75576,None,1101.271266,None,1101.271266,None,f,0.4084885,1101.271266,None,0.4084885,,,Nov4Silent5,73,2022_Nov_04_1425,ProdSingRedoBetween,2021.2.3,60.03006306
,,,,141,0,141,0,,,,,,,,,,,,,,,,,,,,,,1104.541086,None,,,,,,,,,,,,,,,,,payment,48,142,silent,old,blue,1102.225801,None,1102.225801,None,6,1.4217488,1102.225801,None,1.4217488,1103.676487,None,1104.193889,None,1104.193889,None,r,0.3257101,1104.193889,None,0.3257101,,,Nov4Silent5,73,2022_Nov_04_1425,ProdSingRedoBetween,2021.2.3,60.03006306
,,,,142,0,142,0,,,,,,,,,,,,,,,,,,,,,,1106.726582,None,,,,,,,,,,,,,,,,,partner,72,143,silent,old,red,1105.045698,None,1105.045698,None,6,0.9298639,1105.045698,None,0.9298639,1105.993763,None,1106.499113,None,1106.499113,None,r,0.2125661,1106.499113,None,0.2125661,,,Nov4Silent5,73,2022_Nov_04_1425,ProdSingRedoBetween,2021.2.3,60.03006306
,,,,143,0,143,0,,,,,,,,,,,,,,,,,,,,,,1110.146515,None,,,,,,,,,,,,,,,,,fight,167,144,silent,new,null,1107.234279,None,1107.234279,None,3,1.6133231,1107.234279,None,1.6133231,1108.87993,None,1109.385879,None,1109.385879,None,n,0.7418138,1109.385879,None,0.7418138,,,Nov4Silent5,73,2022_Nov_04_1425,ProdSingRedoBetween,2021.2.3,60.03006306
,,,,144,0,144,0,,,,,,,,,,,,,,,,,,,,,,1113.900194,None,,,,,,,,,,,,,,,,,mayor,123,145,silent,new,null,1110.655926,None,1110.655926,None,6,2.4156516,1110.655926,None,2.4156516,1113.10236,None,1113.623386,None,1113.623386,None,r,0.2482944,1113.623386,None,0.2482944,,,Nov4Silent5,73,2022_Nov_04_1425,ProdSingRedoBetween,2021.2.3,60.03006306
,,,,145,0,145,0,,,,,,,,,,,,,,,,,,,,,,1116.502973,None,,,,,,,,,,,,,,,,,rapid,151,146,silent,new,null,1114.413501,None,1114.413501,None,4,1.1940266,1114.413501,None,1.1940266,1115.635325,None,1116.143814,None,1116.143814,None,f,0.335814,1116.143814,None,0.335814,,,Nov4Silent5,73,2022_Nov_04_1425,ProdSingRedoBetween,2021.2.3,60.03006306
,,,,146,0,146,0,,,,,,,,,,,,,,,,,,,,,,1123.643454,None,,,,,,,,,,,,,,,,,equipment,57,147,silent,old,blue,1117.011635,None,1117.011635,None,3,5.5639141,1117.011635,None,5.5639141,1122.595632,None,1123.10958,None,1123.10958,None,n,0.5059367,1123.10958,None,0.5059367,,,Nov4Silent5,73,2022_Nov_04_1425,ProdSingRedoBetween,2021.2.3,60.03006306
,,,,147,0,147,0,,,,,,,,,,,,,,,,,,,,,,1127.847669,None,,,,,,,,,,,,,,,,,split,139,148,silent,new,null,1124.150827,None,1124.150827,None,3,3.0167718,1124.150827,None,3.0167718,1127.198668,None,1127.714274,None,1127.714274,None,f,0.117275,1127.714274,None,0.117275,,,Nov4Silent5,73,2022_Nov_04_1425,ProdSingRedoBetween,2021.2.3,60.03006306
,,,,148,0,148,0,,,,,,,,,,,,,,,,,,,,,,1136.041641,None,,,,,,,,,,,,,,,,,balance,150,149,silent,new,null,1128.348945,None,1128.348945,None,4,5.3866448,1128.348945,None,5.3866448,1133.756266,None,1134.277128,None,1134.277128,None,f,1.7464116,1134.277128,None,1.7464116,,,Nov4Silent5,73,2022_Nov_04_1425,ProdSingRedoBetween,2021.2.3,60.03006306
,,,,149,0,149,0,,,,,,,,,,,,,,,,,,,,,,1139.926311,None,,,,,,,,,,,,,,,,,principal,147,150,silent,new,null,1136.560623,None,1136.560623,None,5,1.8389404,1136.560623,None,1.8389404,1138.426138,None,1138.931123,None,1138.931123,None,f,0.9804186,1138.931123,None,0.9804186,,,Nov4Silent5,73,2022_Nov_04_1425,ProdSingRedoBetween,2021.2.3,60.03006306
,,,,150,0,150,0,,,,,,,,,,,,,,,,,,,,,,1145.499432,None,,,,,,,,,,,,,,,,,carry,149,151,silent,new,null,1140.436742,None,1140.436742,None,4,4.3067981,1140.436742,None,4.3067981,1144.764625,None,1145.277741,None,1145.277741,None,f,0.2016983,1145.277741,None,0.2016983,,,Nov4Silent5,73,2022_Nov_04_1425,ProdSingRedoBetween,2021.2.3,60.03006306
,,,,151,0,151,0,,,,,,,,,,,,,,,,,,,,,,1148.618372,None,,,,,,,,,,,,,,,,,finance,160,152,silent,new,null,1146.003949,None,1146.003949,None,2,1.7395096,1146.003949,None,1.7395096,1147.767331,None,1148.268133,None,1148.268133,None,n,0.3235227,1148.268133,None,0.3235227,,,Nov4Silent5,73,2022_Nov_04_1425,ProdSingRedoBetween,2021.2.3,60.03006306
,,,,152,0,152,0,,,,,,,,,,,,,,,,,,,,,,1151.6714,None,,,,,,,,,,,,,,,,,burden,156,153,silent,new,null,1149.123316,None,1149.123316,None,1,1.8841345,1149.123316,None,1.8841345,1151.03888,None,1151.540471,None,1151.540471,None,n,0.107061,1151.540471,None,0.107061,,,Nov4Silent5,73,2022_Nov_04_1425,ProdSingRedoBetween,2021.2.3,60.03006306
,,,,153,0,153,0,,,,,,,,,,,,,,,,,,,,,,1154.195043,None,,,,,,,,,,,,,,,,,debate,94,154,silent,new,null,1152.177891,None,1152.177891,None,6,1.3736334,1152.177891,None,1.3736334,1153.575093,None,1154.090582,None,1154.090582,None,r,0.06897,1154.090582,None,0.06897,,,Nov4Silent5,73,2022_Nov_04_1425,ProdSingRedoBetween,2021.2.3,60.03006306
,,,,154,0,154,0,,,,,,,,,,,,,,,,,,,,,,1156.814707,None,,,,,,,,,,,,,,,,,plane,16,155,silent,old,yellow,1154.708938,None,1154.708938,None,6,1.3550577,1154.708938,None,1.3550577,1156.105354,None,1156.614614,None,1156.614614,None,r,0.1768859,1156.614614,None,0.1768859,,,Nov4Silent5,73,2022_Nov_04_1425,ProdSingRedoBetween,2021.2.3,60.03006306
,,,,155,0,155,0,,,,,,,,,,,,,,,,,,,,,,1161.803991,None,,,,,,,,,,,,,,,,,breath,142,156,silent,new,null,1157.328682,None,1157.328682,None,4,3.7028167,1157.328682,None,3.7028167,1161.048256,None,1161.5519,None,1161.5519,None,f,0.2238496,1161.5519,None,0.2238496,,,Nov4Silent5,73,2022_Nov_04_1425,ProdSingRedoBetween,2021.2.3,60.03006306
,,,,156,0,156,0,,,,,,,,,,,,,,,,,,,,,,1164.734446,None,,,,,,,,,,,,,,,,,voice,129,157,silent,new,null,1162.317861,None,1162.317861,None,2,1.5696696,1162.317861,None,1.5696696,1163.917856,None,1164.417493,None,1164.417493,None,n,0.2860151,1164.417493,None,0.2860151,,,Nov4Silent5,73,2022_Nov_04_1425,ProdSingRedoBetween,2021.2.3,60.03006306
,,,,157,0,157,0,,,,,,,,,,,,,,,,,,,,,,1168.155248,None,,,,,,,,,,,,,,,,,account,8,158,silent,old,yellow,1165.247371,None,1165.247371,None,6,2.1760927,1165.247371,None,2.1760927,1167.458009,None,1167.970855,None,1167.970855,None,r,0.1565494,1167.970855,None,0.1565494,,,Nov4Silent5,73,2022_Nov_04_1425,ProdSingRedoBetween,2021.2.3,60.03006306
,,,,158,0,158,0,,,,,,,,,,,,,,,,,,,,,,1173.476465,None,,,,,,,,,,,,,,,,,opening,171,159,silent,new,null,1168.658541,None,1168.658541,None,2,4.1490802,1168.658541,None,4.1490802,1172.828279,None,1173.342924,None,1173.342924,None,n,0.1125367,1173.342924,None,0.1125367,,,Nov4Silent5,73,2022_Nov_04_1425,ProdSingRedoBetween,2021.2.3,60.03006306
,,,,159,0,159,0,,,,,,,,,,,,,,,,,,,,,,1178.16445,None,,,,,,,,,,,,,,,,,brilliant,154,160,silent,new,null,1173.982759,None,1173.982759,None,4,3.4406289,1173.982759,None,3.4406289,1177.452321,None,1177.964437,None,1177.964437,None,f,0.1790851,1177.964437,None,0.1790851,,,Nov4Silent5,73,2022_Nov_04_1425,ProdSingRedoBetween,2021.2.3,60.03006306
,,,,160,0,160,0,,,,,,,,,,,,,,,,,,,,,,1183.969971,None,,,,,,,,,,,,,,,,,property,125,161,silent,new,null,1178.673289,None,1178.673289,None,1,4.17419,1178.673289,None,4.17419,1182.87226,None,1183.386358,None,1183.386358,None,n,0.5570912,1183.386358,None,0.5570912,,,Nov4Silent5,73,2022_Nov_04_1425,ProdSingRedoBetween,2021.2.3,60.03006306
,,,,161,0,161,0,,,,,,,,,,,,,,,,,,,,,,1186.956613,None,,,,,,,,,,,,,,,,,resistance,50,162,silent,old,blue,1184.473561,None,1184.473561,None,6,1.6779052,1184.473561,None,1.6779052,1186.173804,None,1186.678741,None,1186.678741,None,r,0.2567609,1186.678741,None,0.2567609,,,Nov4Silent5,73,2022_Nov_04_1425,ProdSingRedoBetween,2021.2.3,60.03006306
,,,,162,0,162,0,,,,,,,,,,,,,,,,,,,,,,1193.012618,None,,,,,,,,,,,,,,,,,victory,82,163,silent,old,red,1187.472055,None,1187.472055,None,4,3.9753895,1187.472055,None,3.9753895,1191.478827,None,1191.980304,None,1191.980304,None,f,1.0110399,1191.980304,None,1.0110399,,,Nov4Silent5,73,2022_Nov_04_1425,ProdSingRedoBetween,2021.2.3,60.03006306
,,,,163,0,163,0,,,,,,,,,,,,,,,,,,,,,,1196.583316,None,,,,,,,,,,,,,,,,,entrance,159,164,silent,new,null,1193.521748,None,1193.521748,None,4,2.1337716,1193.521748,None,2.1337716,1195.683007,None,1196.184591,None,1196.184591,None,f,0.3749821,1196.184591,None,0.3749821,,,Nov4Silent5,73,2022_Nov_04_1425,ProdSingRedoBetween,2021.2.3,60.03006306
,,,,164,0,164,0,,,,,,,,,,,,,,,,,,,,,,1199.669173,None,,,,,,,,,,,,,,,,,marriage,173,165,silent,new,null,1197.083245,None,1197.083245,None,6,1.7481116,1197.083245,None,1.7481116,1198.862628,None,1199.368863,None,1199.368863,None,r,0.2706173,1199.368863,None,0.2706173,,,Nov4Silent5,73,2022_Nov_04_1425,ProdSingRedoBetween,2021.2.3,60.03006306
,,,,165,0,165,0,,,,,,,,,,,,,,,,,,,,,,1203.442781,None,,,,,,,,,,,,,,,,,story,39,166,silent,old,blue,1200.177452,None,1200.177452,None,4,2.4220034,1200.177452,None,2.4220034,1202.623225,None,1203.135322,None,1203.135322,None,r,0.2884542,1203.135322,None,0.2884542,,,Nov4Silent5,73,2022_Nov_04_1425,ProdSingRedoBetween,2021.2.3,60.03006306
,,,,166,0,166,0,,,,,,,,,,,,,,,,,,,,,,1207.326645,None,,,,,,,,,,,,,,,,,population,97,167,silent,new,null,1203.963574,None,1203.963574,None,6,1.8918648,1203.963574,None,1.8918648,1205.878306,None,1206.397224,None,1206.397224,None,r,0.9060934,1206.397224,None,0.9060934,,,Nov4Silent5,73,2022_Nov_04_1425,ProdSingRedoBetween,2021.2.3,60.03006306
,,,,167,0,167,0,,,,,,,,,,,,,,,,,,,,,,1211.247379,None,,,,,,,,,,,,,,,,,employment,15,168,silent,old,yellow,1207.827374,None,1207.827374,None,6,2.0521396,1207.827374,None,2.0521396,1209.902077,None,1210.413686,None,1210.413686,None,r,0.8097303,1210.413686,None,0.8097303,,,Nov4Silent5,73,2022_Nov_04_1425,ProdSingRedoBetween,2021.2.3,60.03006306
,,,,168,0,168,0,,,,,,,,,,,,,,,,,,,,,,1214.052326,None,,,,,,,,,,,,,,,,,store,108,169,silent,new,null,1211.747926,None,1211.747926,None,2,1.6833886,1211.747926,None,1.6833886,1213.450927,None,1213.957884,None,1213.957884,None,n,0.0735985,1213.957884,None,0.0735985,,,Nov4Silent5,73,2022_Nov_04_1425,ProdSingRedoBetween,2021.2.3,60.03006306
,,,,169,0,169,0,,,,,,,,,,,,,,,,,,,,,,1220.756932,None,,,,,,,,,,,,,,,,,universal,83,170,silent,old,red,1214.581386,None,1214.581386,None,4,4.4420431,1214.581386,None,4.4420431,1219.041872,None,1219.556992,None,1219.556992,None,f,1.17043,1219.556992,None,1.17043,,,Nov4Silent5,73,2022_Nov_04_1425,ProdSingRedoBetween,2021.2.3,60.03006306
,,,,170,0,170,0,,,,,,,,,,,,,,,,,,,,,,1224.197889,None,,,,,,,,,,,,,,,,,public,23,171,silent,old,yellow,1221.268093,None,1221.268093,None,4,2.1312868,1221.268093,None,2.1312868,1223.427356,None,1223.932134,None,1223.932134,None,f,0.2354168,1223.932134,None,0.2354168,,,Nov4Silent5,73,2022_Nov_04_1425,ProdSingRedoBetween,2021.2.3,60.03006306
,,,,171,0,171,0,,,,,,,,,,,,,,,,,,,,,,1226.562787,None,,,,,,,,,,,,,,,,,notice,78,172,silent,old,red,1224.719811,None,1224.719811,None,6,1.2157452,1224.719811,None,1.2157452,1225.963046,None,1226.462695,None,1226.462695,None,r,0.0726471,1226.462695,None,0.0726471,,,Nov4Silent5,73,2022_Nov_04_1425,ProdSingRedoBetween,2021.2.3,60.03006306
,,,,172,0,172,0,,,,,,,,,,,,,,,,,,,,,,1229.382024,None,,,,,,,,,,,,,,,,,sound,120,173,silent,new,null,1227.074317,None,1227.074317,None,4,1.541038,1227.074317,None,1.541038,1228.632433,None,1229.132125,None,1229.132125,None,f,0.2272031,1229.132125,None,0.2272031,,,Nov4Silent5,73,2022_Nov_04_1425,ProdSingRedoBetween,2021.2.3,60.03006306
,,,,173,0,173,0,,,,,,,,,,,,,,,,,,,,,,1240.710201,None,,,,,,,,,,,,,,,,,collection,117,174,silent,new,null,1229.890981,None,1229.890981,None,3,8.2523997,1229.890981,None,8.2523997,1238.175467,None,1238.677973,None,1238.677973,None,n,2.0173956,1238.677973,None,2.0173956,,,Nov4Silent5,73,2022_Nov_04_1425,ProdSingRedoBetween,2021.2.3,60.03006306
,,,,174,0,174,0,,,,,,,,,,,,,,,,,,,,,,1250.87297,None,,,,,,,,,,,,,,,,,skill,71,175,silent,old,red,1241.230207,None,1241.230207,None,3,8.753801,1241.230207,None,8.753801,1250.014299,None,1250.520092,None,1250.520092,None,n,0.3194362,1250.520092,None,0.3194362,,,Nov4Silent5,73,2022_Nov_04_1425,ProdSingRedoBetween,2021.2.3,60.03006306
,,,,175,0,175,0,,,,,,,,,,,,,,,,,,,,,,1263.199264,None,,,,,,,,,,,,,,,,,display,22,176,silent,old,yellow,1251.387628,None,1251.387628,None,4,11.0436946,1251.387628,None,11.0436946,1262.449762,None,1262.949216,None,1262.949216,None,f,0.2342051,1262.949216,None,0.2342051,,,Nov4Silent5,73,2022_Nov_04_1425,ProdSingRedoBetween,2021.2.3,60.03006306
,,,,176,0,176,0,,,,,,,,,,,,,,,,,,,,,,1266.102155,None,,,,,,,,,,,,,,,,,master,19,177,silent,old,yellow,1263.708726,None,1263.708726,None,3,1.7546024,1263.708726,None,1.7546024,1265.486909,None,1266.006646,None,1266.006646,None,n,0.0646265,1266.006646,None,0.0646265,,,Nov4Silent5,73,2022_Nov_04_1425,ProdSingRedoBetween,2021.2.3,60.03006306
,,,,177,0,177,0,,,,,,,,,,,,,,,,,,,,,,1270.756838,None,,,,,,,,,,,,,,,,,research,121,178,silent,new,null,1266.603629,None,1266.603629,None,4,3.4198034,1266.603629,None,3.4198034,1270.044077,None,1270.558139,None,1270.558139,None,f,0.1692713,1270.558139,None,0.1692713,,,Nov4Silent5,73,2022_Nov_04_1425,ProdSingRedoBetween,2021.2.3,60.03006306
,,,,178,0,178,0,,,,,,,,,,,,,,,,,,,,,,1273.442809,None,,,,,,,,,,,,,,,,,center,28,179,silent,old,yellow,1271.270758,None,1271.270758,None,3,1.4485281,1271.270758,None,1.4485281,1272.744794,None,1273.265536,None,1273.265536,None,n,0.1578442,1273.265536,None,0.1578442,,,Nov4Silent5,73,2022_Nov_04_1425,ProdSingRedoBetween,2021.2.3,60.03006306
,,,,179,0,179,0,,,,,,,,,,,,,,,,,,,,,,1276.145481,None,,,,,,,,,,,,,,,,,novel,174,180,silent,new,null,1273.954172,None,1273.954172,None,1,1.2131454,1273.954172,None,1.2131454,1275.197746,None,1275.714151,None,1275.714151,None,n,0.4051912,1275.714151,None,0.4051912,,,Nov4Silent5,73,2022_Nov_04_1425,ProdSingRedoBetween,2021.2.3,60.03006306
,,,,,,,,,,,,,,,,,,,,,,,,,,,,,,,,,,,,,,,,,,,,,,,,,,,,,,,,,,,,,,,,,,,,,,,,,1276.646655,None,,,,,,
