StudyLoop.thisRepN,StudyLoop.thisTrialN,StudyLoop.thisN,StudyLoop.thisIndex,TestLoop.thisRepN,TestLoop.thisTrialN,TestLoop.thisN,TestLoop.thisIndex,textCondition.started,textCondition.stopped,keyCondition.keys,keyCondition.rt,keyCondition.started,keyCondition.stopped,Condition,textWelcome.started,textWelcome.stopped,keyWelcome.keys,keyWelcome.rt,keyWelcome.started,keyWelcome.stopped,textAloud.started,textAloud.stopped,textSilent.started,textSilent.stopped,textSing.started,textSing.stopped,conditional_text.started,conditional_text.stopped,textBlank500.started,textBlank500.stopped,study_word,study_num,study_order,study_type,word_color,textStudy.started,textStudy.stopped,keyStudy.keys,keyStudy.started,keyStudy.stopped,textTestInstructions.started,textTestInstructions.stopped,key_resp_3.keys,key_resp_3.rt,key_resp_3.started,key_resp_3.stopped,test_word,test_num,test_order,test_condition,old_new_test,test_word_original_color,textConf.started,textConf.stopped,textConfScale.started,textConfScale.stopped,keyConf.keys,keyConf.rt,keyConf.started,keyConf.stopped,confidence response time,textTestBlank.started,textTestBlank.stopped,textRKN.started,textRKN.stopped,textRKNScale.started,textRKNScale.stopped,keyRKN.keys,keyRKN.rt,keyRKN.started,keyRKN.stopped,rkn response time,textEnd.started,textEnd.stopped,participant,session,date,expName,psychopyVersion,frameRate,
,,,,,,,,36.016403099521995,None,b,3.136291899718344,36.016403099521995,None,,,,,,,,,,,,,,,,,,,,,,,,,,,,,,,,,,,,,,,,,,,,,,,,,,,,,,,,,,,,,,74 Aloud,001,2022_Nov_10_1508,ProdSingRedoBetween,2021.2.3,59.37695763656419,
,,,,,,,,,,,,,,AloudTest,39.23224329948425,None,space,353.8156374003738,39.23224329948425,None,,,,,,,,,,,,,,,,,,,,,,,,,,,,,,,,,,,,,,,,,,,,,,,,,,,,,,,74 Aloud,001,2022_Nov_10_1508,ProdSingRedoBetween,2021.2.3,59.37695763656419,
0,0,0,0,,,,,,,,,,,,,,,,,,39.23224329948425,None,39.23224329948425,None,39.23224329948425,None,39.23224329948425,None,395.60413219965994,None,gesture,41,1,aloud,blue,393.5884384000674,None,None,393.5884384000674,None,,,,,,,,,,,,,,,,,,,,,,,,,,,,,,,,,,,74 Aloud,001,2022_Nov_10_1508,ProdSingRedoBetween,2021.2.3,59.37695763656419,
1,0,1,0,,,,,,,,,,,,,,,,,,,,,,,,,,398.121436400339,None,business,16,2,aloud,yellow,396.10731049999595,None,None,396.10731049999595,None,,,,,,,,,,,,,,,,,,,,,,,,,,,,,,,,,,,74 Aloud,001,2022_Nov_10_1508,ProdSingRedoBetween,2021.2.3,59.37695763656419,
2,0,2,0,,,,,,,,,,,,,,,,,,,,,,,,,,400.624019799754,None,medicine,64,3,aloud,red,398.6225918997079,None,None,398.6225918997079,None,,,,,,,,,,,,,,,,,,,,,,,,,,,,,,,,,,,74 Aloud,001,2022_Nov_10_1508,ProdSingRedoBetween,2021.2.3,59.37695763656419,
3,0,3,0,,,,,,,,,,,,,,,,,,,,,,,,,,403.12606159970164,None,primary,51,4,aloud,blue,401.1273980997503,None,None,401.1273980997503,None,,,,,,,,,,,,,,,,,,,,,,,,,,,,,,,,,,,74 Aloud,001,2022_Nov_10_1508,ProdSingRedoBetween,2021.2.3,59.37695763656419,
4,0,4,0,,,,,,,,,,,,,,,,,,,,,,,,,,405.62879959959537,None,weight,69,5,aloud,red,403.62907239980996,None,None,403.62907239980996,None,,,,,,,,,,,,,,,,,,,,,,,,,,,,,,,,,,,74 Aloud,001,2022_Nov_10_1508,ProdSingRedoBetween,2021.2.3,59.37695763656419,
5,0,5,0,,,,,,,,,,,,,,,,,,,,,,,,,,408.13148470036685,None,engineer,55,6,aloud,blue,406.1313669998199,None,None,406.1313669998199,None,,,,,,,,,,,,,,,,,,,,,,,,,,,,,,,,,,,74 Aloud,001,2022_Nov_10_1508,ProdSingRedoBetween,2021.2.3,59.37695763656419,
6,0,6,0,,,,,,,,,,,,,,,,,,,,,,,,,,410.6507308995351,None,bright,61,7,aloud,red,408.6361801000312,None,None,408.6361801000312,None,,,,,,,,,,,,,,,,,,,,,,,,,,,,,,,,,,,74 Aloud,001,2022_Nov_10_1508,ProdSingRedoBetween,2021.2.3,59.37695763656419,
7,0,7,0,,,,,,,,,,,,,,,,,,,,,,,,,,413.169745599851,None,budget,9,8,aloud,yellow,411.1588805997744,None,None,411.1588805997744,None,,,,,,,,,,,,,,,,,,,,,,,,,,,,,,,,,,,74 Aloud,001,2022_Nov_10_1508,ProdSingRedoBetween,2021.2.3,59.37695763656419,
8,0,8,0,,,,,,,,,,,,,,,,,,,,,,,,,,415.6723646996543,None,command,32,9,aloud,blue,413.6720203002915,None,None,413.6720203002915,None,,,,,,,,,,,,,,,,,,,,,,,,,,,,,,,,,,,74 Aloud,001,2022_Nov_10_1508,ProdSingRedoBetween,2021.2.3,59.37695763656419,
9,0,9,0,,,,,,,,,,,,,,,,,,,,,,,,,,418.1745803002268,None,bicycle,8,10,aloud,yellow,416.1757591003552,None,None,416.1757591003552,None,,,,,,,,,,,,,,,,,,,,,,,,,,,,,,,,,,,74 Aloud,001,2022_Nov_10_1508,ProdSingRedoBetween,2021.2.3,59.37695763656419,
10,0,10,0,,,,,,,,,,,,,,,,,,,,,,,,,,420.6782521996647,None,employment,21,11,aloud,yellow,418.67730959970504,None,None,418.67730959970504,None,,,,,,,,,,,,,,,,,,,,,,,,,,,,,,,,,,,74 Aloud,001,2022_Nov_10_1508,ProdSingRedoBetween,2021.2.3,59.37695763656419,
11,0,11,0,,,,,,,,,,,,,,,,,,,,,,,,,,423.19629229977727,None,quick,18,12,aloud,yellow,421.1871381998062,None,None,421.1871381998062,None,,,,,,,,,,,,,,,,,,,,,,,,,,,,,,,,,,,74 Aloud,001,2022_Nov_10_1508,ProdSingRedoBetween,2021.2.3,59.37695763656419,
12,0,12,0,,,,,,,,,,,,,,,,,,,,,,,,,,425.69965319987386,None,article,38,13,aloud,blue,423.6971595995128,None,None,423.6971595995128,None,,,,,,,,,,,,,,,,,,,,,,,,,,,,,,,,,,,74 Aloud,001,2022_Nov_10_1508,ProdSingRedoBetween,2021.2.3,59.37695763656419,
13,0,13,0,,,,,,,,,,,,,,,,,,,,,,,,,,428.2015827000141,None,welcome,77,14,aloud,red,426.20137559995055,None,None,426.20137559995055,None,,,,,,,,,,,,,,,,,,,,,,,,,,,,,,,,,,,74 Aloud,001,2022_Nov_10_1508,ProdSingRedoBetween,2021.2.3,59.37695763656419,
14,0,14,0,,,,,,,,,,,,,,,,,,,,,,,,,,430.70449209958315,None,danger,2,15,aloud,yellow,428.70509049948305,None,None,428.70509049948305,None,,,,,,,,,,,,,,,,,,,,,,,,,,,,,,,,,,,74 Aloud,001,2022_Nov_10_1508,ProdSingRedoBetween,2021.2.3,59.37695763656419,
15,0,15,0,,,,,,,,,,,,,,,,,,,,,,,,,,433.2065543998033,None,personnel,27,16,aloud,yellow,431.2070647003129,None,None,431.2070647003129,None,,,,,,,,,,,,,,,,,,,,,,,,,,,,,,,,,,,74 Aloud,001,2022_Nov_10_1508,ProdSingRedoBetween,2021.2.3,59.37695763656419,
16,0,16,0,,,,,,,,,,,,,,,,,,,,,,,,,,435.72532830014825,None,century,6,17,aloud,yellow,433.7109834002331,None,None,433.7109834002331,None,,,,,,,,,,,,,,,,,,,,,,,,,,,,,,,,,,,74 Aloud,001,2022_Nov_10_1508,ProdSingRedoBetween,2021.2.3,59.37695763656419,
17,0,17,0,,,,,,,,,,,,,,,,,,,,,,,,,,438.22809009999037,None,meeting,23,18,aloud,yellow,436.22739589959383,None,None,436.22739589959383,None,,,,,,,,,,,,,,,,,,,,,,,,,,,,,,,,,,,74 Aloud,001,2022_Nov_10_1508,ProdSingRedoBetween,2021.2.3,59.37695763656419,
18,0,18,0,,,,,,,,,,,,,,,,,,,,,,,,,,440.7474392997101,None,watch,81,19,aloud,red,438.7431803997606,None,None,438.7431803997606,None,,,,,,,,,,,,,,,,,,,,,,,,,,,,,,,,,,,74 Aloud,001,2022_Nov_10_1508,ProdSingRedoBetween,2021.2.3,59.37695763656419,
19,0,19,0,,,,,,,,,,,,,,,,,,,,,,,,,,443.2494654003531,None,guard,28,20,aloud,yellow,441.2501950999722,None,None,441.2501950999722,None,,,,,,,,,,,,,,,,,,,,,,,,,,,,,,,,,,,74 Aloud,001,2022_Nov_10_1508,ProdSingRedoBetween,2021.2.3,59.37695763656419,
20,0,20,0,,,,,,,,,,,,,,,,,,,,,,,,,,445.75238840002567,None,partner,66,21,aloud,red,443.7528558000922,None,None,443.7528558000922,None,,,,,,,,,,,,,,,,,,,,,,,,,,,,,,,,,,,74 Aloud,001,2022_Nov_10_1508,ProdSingRedoBetween,2021.2.3,59.37695763656419,
21,0,21,0,,,,,,,,,,,,,,,,,,,,,,,,,,448.2713326998055,None,store,67,22,aloud,red,446.2565058004111,None,None,446.2565058004111,None,,,,,,,,,,,,,,,,,,,,,,,,,,,,,,,,,,,74 Aloud,001,2022_Nov_10_1508,ProdSingRedoBetween,2021.2.3,59.37695763656419,
22,0,22,0,,,,,,,,,,,,,,,,,,,,,,,,,,450.7741101998836,None,oxygen,12,23,aloud,yellow,448.7727998001501,None,None,448.7727998001501,None,,,,,,,,,,,,,,,,,,,,,,,,,,,,,,,,,,,74 Aloud,001,2022_Nov_10_1508,ProdSingRedoBetween,2021.2.3,59.37695763656419,
23,0,23,0,,,,,,,,,,,,,,,,,,,,,,,,,,453.2767182001844,None,column,22,24,aloud,yellow,451.2754875002429,None,None,451.2754875002429,None,,,,,,,,,,,,,,,,,,,,,,,,,,,,,,,,,,,74 Aloud,001,2022_Nov_10_1508,ProdSingRedoBetween,2021.2.3,59.37695763656419,
24,0,24,0,,,,,,,,,,,,,,,,,,,,,,,,,,455.79567299969494,None,citizen,20,25,aloud,yellow,453.7845374997705,None,None,453.7845374997705,None,,,,,,,,,,,,,,,,,,,,,,,,,,,,,,,,,,,74 Aloud,001,2022_Nov_10_1508,ProdSingRedoBetween,2021.2.3,59.37695763656419,
25,0,25,0,,,,,,,,,,,,,,,,,,,,,,,,,,458.29826920013875,None,member,1,26,aloud,yellow,456.2970366002992,None,None,456.2970366002992,None,,,,,,,,,,,,,,,,,,,,,,,,,,,,,,,,,,,74 Aloud,001,2022_Nov_10_1508,ProdSingRedoBetween,2021.2.3,59.37695763656419,
26,0,26,0,,,,,,,,,,,,,,,,,,,,,,,,,,460.81724390015006,None,drove,88,27,aloud,red,458.80741939973086,None,None,458.80741939973086,None,,,,,,,,,,,,,,,,,,,,,,,,,,,,,,,,,,,74 Aloud,001,2022_Nov_10_1508,ProdSingRedoBetween,2021.2.3,59.37695763656419,
27,0,27,0,,,,,,,,,,,,,,,,,,,,,,,,,,463.3367151003331,None,surprise,29,28,aloud,blue,461.32211089972407,None,None,461.32211089972407,None,,,,,,,,,,,,,,,,,,,,,,,,,,,,,,,,,,,74 Aloud,001,2022_Nov_10_1508,ProdSingRedoBetween,2021.2.3,59.37695763656419,
28,0,28,0,,,,,,,,,,,,,,,,,,,,,,,,,,465.8393150996417,None,mankind,5,29,aloud,yellow,463.8384931003675,None,None,463.8384931003675,None,,,,,,,,,,,,,,,,,,,,,,,,,,,,,,,,,,,74 Aloud,001,2022_Nov_10_1508,ProdSingRedoBetween,2021.2.3,59.37695763656419,
29,0,29,0,,,,,,,,,,,,,,,,,,,,,,,,,,468.34153840038925,None,union,73,30,aloud,red,466.3426978997886,None,None,466.3426978997886,None,,,,,,,,,,,,,,,,,,,,,,,,,,,,,,,,,,,74 Aloud,001,2022_Nov_10_1508,ProdSingRedoBetween,2021.2.3,59.37695763656419,
30,0,30,0,,,,,,,,,,,,,,,,,,,,,,,,,,470.84425999969244,None,cover,42,31,aloud,blue,468.8439472001046,None,None,468.8439472001046,None,,,,,,,,,,,,,,,,,,,,,,,,,,,,,,,,,,,74 Aloud,001,2022_Nov_10_1508,ProdSingRedoBetween,2021.2.3,59.37695763656419,
31,0,31,0,,,,,,,,,,,,,,,,,,,,,,,,,,473.346372500062,None,alert,0,32,aloud,yellow,471.3477090001106,None,None,471.3477090001106,None,,,,,,,,,,,,,,,,,,,,,,,,,,,,,,,,,,,74 Aloud,001,2022_Nov_10_1508,ProdSingRedoBetween,2021.2.3,59.37695763656419,
32,0,32,0,,,,,,,,,,,,,,,,,,,,,,,,,,475.8490615002811,None,contract,87,33,aloud,red,473.8475852003321,None,None,473.8475852003321,None,,,,,,,,,,,,,,,,,,,,,,,,,,,,,,,,,,,74 Aloud,001,2022_Nov_10_1508,ProdSingRedoBetween,2021.2.3,59.37695763656419,
33,0,33,0,,,,,,,,,,,,,,,,,,,,,,,,,,478.3511939998716,None,frank,44,34,aloud,blue,476.3515975000337,None,None,476.3515975000337,None,,,,,,,,,,,,,,,,,,,,,,,,,,,,,,,,,,,74 Aloud,001,2022_Nov_10_1508,ProdSingRedoBetween,2021.2.3,59.37695763656419,
34,0,34,0,,,,,,,,,,,,,,,,,,,,,,,,,,480.87056459952146,None,orchestra,71,35,aloud,red,478.860191100277,None,None,478.860191100277,None,,,,,,,,,,,,,,,,,,,,,,,,,,,,,,,,,,,74 Aloud,001,2022_Nov_10_1508,ProdSingRedoBetween,2021.2.3,59.37695763656419,
35,0,35,0,,,,,,,,,,,,,,,,,,,,,,,,,,483.37324019987136,None,whole,48,36,aloud,blue,481.371990500018,None,None,481.371990500018,None,,,,,,,,,,,,,,,,,,,,,,,,,,,,,,,,,,,74 Aloud,001,2022_Nov_10_1508,ProdSingRedoBetween,2021.2.3,59.37695763656419,
36,0,36,0,,,,,,,,,,,,,,,,,,,,,,,,,,485.8926053000614,None,center,31,37,aloud,blue,483.87931129988283,None,None,483.87931129988283,None,,,,,,,,,,,,,,,,,,,,,,,,,,,,,,,,,,,74 Aloud,001,2022_Nov_10_1508,ProdSingRedoBetween,2021.2.3,59.37695763656419,
37,0,37,0,,,,,,,,,,,,,,,,,,,,,,,,,,488.3952893000096,None,goose,26,38,aloud,yellow,486.3932696003467,None,None,486.3932696003467,None,,,,,,,,,,,,,,,,,,,,,,,,,,,,,,,,,,,74 Aloud,001,2022_Nov_10_1508,ProdSingRedoBetween,2021.2.3,59.37695763656419,
38,0,38,0,,,,,,,,,,,,,,,,,,,,,,,,,,490.897230300121,None,close,36,39,aloud,blue,488.89777459949255,None,None,488.89777459949255,None,,,,,,,,,,,,,,,,,,,,,,,,,,,,,,,,,,,74 Aloud,001,2022_Nov_10_1508,ProdSingRedoBetween,2021.2.3,59.37695763656419,
39,0,39,0,,,,,,,,,,,,,,,,,,,,,,,,,,493.3996794000268,None,junior,10,40,aloud,yellow,491.39950499963015,None,None,491.39950499963015,None,,,,,,,,,,,,,,,,,,,,,,,,,,,,,,,,,,,74 Aloud,001,2022_Nov_10_1508,ProdSingRedoBetween,2021.2.3,59.37695763656419,
40,0,40,0,,,,,,,,,,,,,,,,,,,,,,,,,,495.91887160018086,None,majority,35,41,aloud,blue,493.9178830003366,None,None,493.9178830003366,None,,,,,,,,,,,,,,,,,,,,,,,,,,,,,,,,,,,74 Aloud,001,2022_Nov_10_1508,ProdSingRedoBetween,2021.2.3,59.37695763656419,
41,0,41,0,,,,,,,,,,,,,,,,,,,,,,,,,,498.42156890034676,None,safety,43,42,aloud,blue,496.41944560036063,None,None,496.41944560036063,None,,,,,,,,,,,,,,,,,,,,,,,,,,,,,,,,,,,74 Aloud,001,2022_Nov_10_1508,ProdSingRedoBetween,2021.2.3,59.37695763656419,
42,0,42,0,,,,,,,,,,,,,,,,,,,,,,,,,,500.94076339993626,None,treatment,54,43,aloud,blue,498.92589549999684,None,None,498.92589549999684,None,,,,,,,,,,,,,,,,,,,,,,,,,,,,,,,,,,,74 Aloud,001,2022_Nov_10_1508,ProdSingRedoBetween,2021.2.3,59.37695763656419,
43,0,43,0,,,,,,,,,,,,,,,,,,,,,,,,,,503.4433089001104,None,enemy,13,44,aloud,yellow,501.4437533998862,None,None,501.4437533998862,None,,,,,,,,,,,,,,,,,,,,,,,,,,,,,,,,,,,74 Aloud,001,2022_Nov_10_1508,ProdSingRedoBetween,2021.2.3,59.37695763656419,
44,0,44,0,,,,,,,,,,,,,,,,,,,,,,,,,,505.9459881996736,None,under,17,45,aloud,yellow,503.9440230000764,None,None,503.9440230000764,None,,,,,,,,,,,,,,,,,,,,,,,,,,,,,,,,,,,74 Aloud,001,2022_Nov_10_1508,ProdSingRedoBetween,2021.2.3,59.37695763656419,
45,0,45,0,,,,,,,,,,,,,,,,,,,,,,,,,,508.4476960999891,None,court,62,46,aloud,red,506.4471779000014,None,None,506.4471779000014,None,,,,,,,,,,,,,,,,,,,,,,,,,,,,,,,,,,,74 Aloud,001,2022_Nov_10_1508,ProdSingRedoBetween,2021.2.3,59.37695763656419,
46,0,46,0,,,,,,,,,,,,,,,,,,,,,,,,,,510.950687199831,None,universal,74,47,aloud,red,508.951077000238,None,None,508.951077000238,None,,,,,,,,,,,,,,,,,,,,,,,,,,,,,,,,,,,74 Aloud,001,2022_Nov_10_1508,ProdSingRedoBetween,2021.2.3,59.37695763656419,
47,0,47,0,,,,,,,,,,,,,,,,,,,,,,,,,,513.4534326000139,None,colonel,59,48,aloud,yellow,511.452889399603,None,None,511.452889399603,None,,,,,,,,,,,,,,,,,,,,,,,,,,,,,,,,,,,74 Aloud,001,2022_Nov_10_1508,ProdSingRedoBetween,2021.2.3,59.37695763656419,
48,0,48,0,,,,,,,,,,,,,,,,,,,,,,,,,,515.972194599919,None,trail,82,49,aloud,red,513.962358799763,None,None,513.962358799763,None,,,,,,,,,,,,,,,,,,,,,,,,,,,,,,,,,,,74 Aloud,001,2022_Nov_10_1508,ProdSingRedoBetween,2021.2.3,59.37695763656419,
49,0,49,0,,,,,,,,,,,,,,,,,,,,,,,,,,518.4748178999871,None,republic,58,50,aloud,blue,516.4752409998327,None,None,516.4752409998327,None,,,,,,,,,,,,,,,,,,,,,,,,,,,,,,,,,,,74 Aloud,001,2022_Nov_10_1508,ProdSingRedoBetween,2021.2.3,59.37695763656419,
50,0,50,0,,,,,,,,,,,,,,,,,,,,,,,,,,520.9772821003571,None,ground,46,51,aloud,blue,518.9772177999839,None,None,518.9772177999839,None,,,,,,,,,,,,,,,,,,,,,,,,,,,,,,,,,,,74 Aloud,001,2022_Nov_10_1508,ProdSingRedoBetween,2021.2.3,59.37695763656419,
51,0,51,0,,,,,,,,,,,,,,,,,,,,,,,,,,523.4797000996768,None,review,33,52,aloud,blue,521.4800079995766,None,None,521.4800079995766,None,,,,,,,,,,,,,,,,,,,,,,,,,,,,,,,,,,,74 Aloud,001,2022_Nov_10_1508,ProdSingRedoBetween,2021.2.3,59.37695763656419,
52,0,52,0,,,,,,,,,,,,,,,,,,,,,,,,,,525.9991872003302,None,generation,40,53,aloud,blue,523.9892622996122,None,None,523.9892622996122,None,,,,,,,,,,,,,,,,,,,,,,,,,,,,,,,,,,,74 Aloud,001,2022_Nov_10_1508,ProdSingRedoBetween,2021.2.3,59.37695763656419,
53,0,53,0,,,,,,,,,,,,,,,,,,,,,,,,,,528.5016769999638,None,fashion,86,54,aloud,red,526.5000539999455,None,None,526.5000539999455,None,,,,,,,,,,,,,,,,,,,,,,,,,,,,,,,,,,,74 Aloud,001,2022_Nov_10_1508,ProdSingRedoBetween,2021.2.3,59.37695763656419,
54,0,54,0,,,,,,,,,,,,,,,,,,,,,,,,,,531.0041811000556,None,dozen,83,55,aloud,red,529.0045793997124,None,None,529.0045793997124,None,,,,,,,,,,,,,,,,,,,,,,,,,,,,,,,,,,,74 Aloud,001,2022_Nov_10_1508,ProdSingRedoBetween,2021.2.3,59.37695763656419,
55,0,55,0,,,,,,,,,,,,,,,,,,,,,,,,,,533.506763599813,None,equipment,15,56,aloud,yellow,531.5063920998946,None,None,531.5063920998946,None,,,,,,,,,,,,,,,,,,,,,,,,,,,,,,,,,,,74 Aloud,001,2022_Nov_10_1508,ProdSingRedoBetween,2021.2.3,59.37695763656419,
56,0,56,0,,,,,,,,,,,,,,,,,,,,,,,,,,536.0103575997055,None,school,3,57,aloud,yellow,534.0102647002786,None,None,534.0102647002786,None,,,,,,,,,,,,,,,,,,,,,,,,,,,,,,,,,,,74 Aloud,001,2022_Nov_10_1508,ProdSingRedoBetween,2021.2.3,59.37695763656419,
57,0,57,0,,,,,,,,,,,,,,,,,,,,,,,,,,538.5113658001646,None,comfort,84,58,aloud,red,536.512736200355,None,None,536.512736200355,None,,,,,,,,,,,,,,,,,,,,,,,,,,,,,,,,,,,74 Aloud,001,2022_Nov_10_1508,ProdSingRedoBetween,2021.2.3,59.37695763656419,
58,0,58,0,,,,,,,,,,,,,,,,,,,,,,,,,,541.0142710004002,None,finance,49,59,aloud,blue,539.0137464003637,None,None,539.0137464003637,None,,,,,,,,,,,,,,,,,,,,,,,,,,,,,,,,,,,74 Aloud,001,2022_Nov_10_1508,ProdSingRedoBetween,2021.2.3,59.37695763656419,
59,0,59,0,,,,,,,,,,,,,,,,,,,,,,,,,,543.5166172003374,None,marriage,79,60,aloud,red,541.5172742996365,None,None,541.5172742996365,None,,,,,,,,,,,,,,,,,,,,,,,,,,,,,,,,,,,74 Aloud,001,2022_Nov_10_1508,ProdSingRedoBetween,2021.2.3,59.37695763656419,
60,0,60,0,,,,,,,,,,,,,,,,,,,,,,,,,,546.0191152999178,None,beginning,30,61,aloud,blue,544.0183427995071,None,None,544.0183427995071,None,,,,,,,,,,,,,,,,,,,,,,,,,,,,,,,,,,,74 Aloud,001,2022_Nov_10_1508,ProdSingRedoBetween,2021.2.3,59.37695763656419,
61,0,61,0,,,,,,,,,,,,,,,,,,,,,,,,,,548.5214325003326,None,display,53,62,aloud,blue,546.5217043003067,None,None,546.5217043003067,None,,,,,,,,,,,,,,,,,,,,,,,,,,,,,,,,,,,74 Aloud,001,2022_Nov_10_1508,ProdSingRedoBetween,2021.2.3,59.37695763656419,
62,0,62,0,,,,,,,,,,,,,,,,,,,,,,,,,,551.0241166995838,None,message,57,63,aloud,blue,549.0244381995872,None,None,549.0244381995872,None,,,,,,,,,,,,,,,,,,,,,,,,,,,,,,,,,,,74 Aloud,001,2022_Nov_10_1508,ProdSingRedoBetween,2021.2.3,59.37695763656419,
63,0,63,0,,,,,,,,,,,,,,,,,,,,,,,,,,553.5431880997494,None,public,19,64,aloud,yellow,551.5283439997584,None,None,551.5283439997584,None,,,,,,,,,,,,,,,,,,,,,,,,,,,,,,,,,,,74 Aloud,001,2022_Nov_10_1508,ProdSingRedoBetween,2021.2.3,59.37695763656419,
64,0,64,0,,,,,,,,,,,,,,,,,,,,,,,,,,556.06253630016,None,quiet,7,65,aloud,yellow,554.0474832002074,None,None,554.0474832002074,None,,,,,,,,,,,,,,,,,,,,,,,,,,,,,,,,,,,74 Aloud,001,2022_Nov_10_1508,ProdSingRedoBetween,2021.2.3,59.37695763656419,
65,0,65,0,,,,,,,,,,,,,,,,,,,,,,,,,,558.5650613997132,None,payment,56,66,aloud,blue,556.5650790994987,None,None,556.5650790994987,None,,,,,,,,,,,,,,,,,,,,,,,,,,,,,,,,,,,74 Aloud,001,2022_Nov_10_1508,ProdSingRedoBetween,2021.2.3,59.37695763656419,
66,0,66,0,,,,,,,,,,,,,,,,,,,,,,,,,,561.0669873999432,None,minute,39,67,aloud,blue,559.0683610998094,None,None,559.0683610998094,None,,,,,,,,,,,,,,,,,,,,,,,,,,,,,,,,,,,74 Aloud,001,2022_Nov_10_1508,ProdSingRedoBetween,2021.2.3,59.37695763656419,
67,0,67,0,,,,,,,,,,,,,,,,,,,,,,,,,,563.5865957001224,None,balance,50,68,aloud,blue,561.5710293995216,None,None,561.5710293995216,None,,,,,,,,,,,,,,,,,,,,,,,,,,,,,,,,,,,74 Aloud,001,2022_Nov_10_1508,ProdSingRedoBetween,2021.2.3,59.37695763656419,
68,0,68,0,,,,,,,,,,,,,,,,,,,,,,,,,,566.0887863002717,None,motion,78,69,aloud,red,564.0885691000149,None,None,564.0885691000149,None,,,,,,,,,,,,,,,,,,,,,,,,,,,,,,,,,,,74 Aloud,001,2022_Nov_10_1508,ProdSingRedoBetween,2021.2.3,59.37695763656419,
69,0,69,0,,,,,,,,,,,,,,,,,,,,,,,,,,568.5921304002404,None,author,45,70,aloud,blue,566.5912480996922,None,None,566.5912480996922,None,,,,,,,,,,,,,,,,,,,,,,,,,,,,,,,,,,,74 Aloud,001,2022_Nov_10_1508,ProdSingRedoBetween,2021.2.3,59.37695763656419,
70,0,70,0,,,,,,,,,,,,,,,,,,,,,,,,,,571.094431899488,None,account,47,71,aloud,blue,569.0937313996255,None,None,569.0937313996255,None,,,,,,,,,,,,,,,,,,,,,,,,,,,,,,,,,,,74 Aloud,001,2022_Nov_10_1508,ProdSingRedoBetween,2021.2.3,59.37695763656419,
71,0,71,0,,,,,,,,,,,,,,,,,,,,,,,,,,573.5965088000521,None,relation,75,72,aloud,red,571.5961331995204,None,None,571.5961331995204,None,,,,,,,,,,,,,,,,,,,,,,,,,,,,,,,,,,,74 Aloud,001,2022_Nov_10_1508,ProdSingRedoBetween,2021.2.3,59.37695763656419,
72,0,72,0,,,,,,,,,,,,,,,,,,,,,,,,,,576.1158451996744,None,nation,63,73,aloud,red,574.1019794000313,None,None,574.1019794000313,None,,,,,,,,,,,,,,,,,,,,,,,,,,,,,,,,,,,74 Aloud,001,2022_Nov_10_1508,ProdSingRedoBetween,2021.2.3,59.37695763656419,
73,0,73,0,,,,,,,,,,,,,,,,,,,,,,,,,,578.6179593000561,None,theme,34,74,aloud,blue,576.6166356001049,None,None,576.6166356001049,None,,,,,,,,,,,,,,,,,,,,,,,,,,,,,,,,,,,74 Aloud,001,2022_Nov_10_1508,ProdSingRedoBetween,2021.2.3,59.37695763656419,
74,0,74,0,,,,,,,,,,,,,,,,,,,,,,,,,,581.1207010997459,None,level,70,75,aloud,red,579.1209309995174,None,None,579.1209309995174,None,,,,,,,,,,,,,,,,,,,,,,,,,,,,,,,,,,,74 Aloud,001,2022_Nov_10_1508,ProdSingRedoBetween,2021.2.3,59.37695763656419,
75,0,75,0,,,,,,,,,,,,,,,,,,,,,,,,,,583.622888199985,None,crowd,24,76,aloud,yellow,581.6236808001995,None,None,581.6236808001995,None,,,,,,,,,,,,,,,,,,,,,,,,,,,,,,,,,,,74 Aloud,001,2022_Nov_10_1508,ProdSingRedoBetween,2021.2.3,59.37695763656419,
76,0,76,0,,,,,,,,,,,,,,,,,,,,,,,,,,586.1423316998407,None,youth,4,77,aloud,yellow,584.1282893996686,None,None,584.1282893996686,None,,,,,,,,,,,,,,,,,,,,,,,,,,,,,,,,,,,74 Aloud,001,2022_Nov_10_1508,ProdSingRedoBetween,2021.2.3,59.37695763656419,
77,0,77,0,,,,,,,,,,,,,,,,,,,,,,,,,,588.6447406001389,None,bureau,11,78,aloud,yellow,586.6432311004028,None,None,586.6432311004028,None,,,,,,,,,,,,,,,,,,,,,,,,,,,,,,,,,,,74 Aloud,001,2022_Nov_10_1508,ProdSingRedoBetween,2021.2.3,59.37695763656419,
78,0,78,0,,,,,,,,,,,,,,,,,,,,,,,,,,591.1638310002163,None,vision,76,79,aloud,red,589.159446099773,None,None,589.159446099773,None,,,,,,,,,,,,,,,,,,,,,,,,,,,,,,,,,,,74 Aloud,001,2022_Nov_10_1508,ProdSingRedoBetween,2021.2.3,59.37695763656419,
79,0,79,0,,,,,,,,,,,,,,,,,,,,,,,,,,593.6663252003491,None,stand,52,80,aloud,blue,591.6652512997389,None,None,591.6652512997389,None,,,,,,,,,,,,,,,,,,,,,,,,,,,,,,,,,,,74 Aloud,001,2022_Nov_10_1508,ProdSingRedoBetween,2021.2.3,59.37695763656419,
80,0,80,0,,,,,,,,,,,,,,,,,,,,,,,,,,596.1857008999214,None,turkey,25,81,aloud,yellow,594.1812308002263,None,None,594.1812308002263,None,,,,,,,,,,,,,,,,,,,,,,,,,,,,,,,,,,,74 Aloud,001,2022_Nov_10_1508,ProdSingRedoBetween,2021.2.3,59.37695763656419,
81,0,81,0,,,,,,,,,,,,,,,,,,,,,,,,,,598.6890951003879,None,express,89,82,aloud,red,596.6879323003814,None,None,596.6879323003814,None,,,,,,,,,,,,,,,,,,,,,,,,,,,,,,,,,,,74 Aloud,001,2022_Nov_10_1508,ProdSingRedoBetween,2021.2.3,59.37695763656419,
82,0,82,0,,,,,,,,,,,,,,,,,,,,,,,,,,601.1914429003373,None,collection,68,83,aloud,red,599.1910114996135,None,None,599.1910114996135,None,,,,,,,,,,,,,,,,,,,,,,,,,,,,,,,,,,,74 Aloud,001,2022_Nov_10_1508,ProdSingRedoBetween,2021.2.3,59.37695763656419,
83,0,83,0,,,,,,,,,,,,,,,,,,,,,,,,,,603.7096482003108,None,sunset,65,84,aloud,red,601.6967454999685,None,None,601.6967454999685,None,,,,,,,,,,,,,,,,,,,,,,,,,,,,,,,,,,,74 Aloud,001,2022_Nov_10_1508,ProdSingRedoBetween,2021.2.3,59.37695763656419,
84,0,84,0,,,,,,,,,,,,,,,,,,,,,,,,,,606.2124378001317,None,rough,14,85,aloud,yellow,604.2103850003332,None,None,604.2103850003332,None,,,,,,,,,,,,,,,,,,,,,,,,,,,,,,,,,,,74 Aloud,001,2022_Nov_10_1508,ProdSingRedoBetween,2021.2.3,59.37695763656419,
85,0,85,0,,,,,,,,,,,,,,,,,,,,,,,,,,608.7146507995203,None,blind,80,86,aloud,red,606.7153048003092,None,None,606.7153048003092,None,,,,,,,,,,,,,,,,,,,,,,,,,,,,,,,,,,,74 Aloud,001,2022_Nov_10_1508,ProdSingRedoBetween,2021.2.3,59.37695763656419,
86,0,86,0,,,,,,,,,,,,,,,,,,,,,,,,,,611.2174632996321,None,curve,37,87,aloud,blue,609.2177750999108,None,None,609.2177750999108,None,,,,,,,,,,,,,,,,,,,,,,,,,,,,,,,,,,,74 Aloud,001,2022_Nov_10_1508,ProdSingRedoBetween,2021.2.3,59.37695763656419,
87,0,87,0,,,,,,,,,,,,,,,,,,,,,,,,,,613.719821699895,None,burden,72,88,aloud,red,611.7201787997037,None,None,611.7201787997037,None,,,,,,,,,,,,,,,,,,,,,,,,,,,,,,,,,,,74 Aloud,001,2022_Nov_10_1508,ProdSingRedoBetween,2021.2.3,59.37695763656419,
88,0,88,0,,,,,,,,,,,,,,,,,,,,,,,,,,616.2221676995978,None,capital,60,89,aloud,red,614.2222547000274,None,None,614.2222547000274,None,,,,,,,,,,,,,,,,,,,,,,,,,,,,,,,,,,,74 Aloud,001,2022_Nov_10_1508,ProdSingRedoBetween,2021.2.3,59.37695763656419,
89,0,89,0,,,,,,,,,,,,,,,,,,,,,,,,,,618.7247764999047,None,owner,85,90,aloud,red,616.7249245997518,None,None,616.7249245997518,None,,,,,,,,,,,,,,,,,,,,,,,,,,,,,,,,,,,74 Aloud,001,2022_Nov_10_1508,ProdSingRedoBetween,2021.2.3,59.37695763656419,
,,,,,,,,,,,,,,,,,,,,,,,,,,,,,,,,,,,,,,,,,619.22597900033,None,k,189.24495729990304,619.22597900033,None,,,,,,,,,,,,,,,,,,,,,,,,,,,,,74 Aloud,001,2022_Nov_10_1508,ProdSingRedoBetween,2021.2.3,59.37695763656419,
,,,,0,0,0,0,,,,,,,,,,,,,,,,,,,,,,817.6414516996592,None,,,,,,,,,,,,,,,,,welcome,77,1,aloud,old,red,809.0067143002525,None,809.0067143002525,None,6,4.808111200109124,809.0067143002525,None,4.808111200109124,813.8399737998843,None,814.354986499995,None,814.354986499995,None,r,3.25986609980464,814.354986499995,None,3.25986609980464,,,74 Aloud,001,2022_Nov_10_1508,ProdSingRedoBetween,2021.2.3,59.37695763656419,
,,,,1,0,1,0,,,,,,,,,,,,,,,,,,,,,,824.1136680003256,None,,,,,,,,,,,,,,,,,treatment,54,2,aloud,old,blue,818.1436628997326,None,818.1436628997326,None,6,2.8392209000885487,818.1436628997326,None,2.8392209000885487,821.0174476001412,None,821.5296619003639,None,821.5296619003639,None,r,2.5651639997959137,821.5296619003639,None,2.5651639997959137,,,74 Aloud,001,2022_Nov_10_1508,ProdSingRedoBetween,2021.2.3,59.37695763656419,
,,,,2,0,2,0,,,,,,,,,,,,,,,,,,,,,,831.141226099804,None,,,,,,,,,,,,,,,,,tragedy,150,3,aloud,new,null,824.6199323004112,None,824.6199323004112,None,1,3.043240400031209,824.6199323004112,None,3.043240400031209,827.6907909996808,None,828.2041523000225,None,828.2041523000225,None,f,2.9065445996820927,828.2041523000225,None,2.9065445996820927,,,74 Aloud,001,2022_Nov_10_1508,ProdSingRedoBetween,2021.2.3,59.37695763656419,
,,,,3,0,3,0,,,,,,,,,,,,,,,,,,,,,,836.5799618000165,None,,,,,,,,,,,,,,,,,block,155,4,aloud,new,null,831.658830200322,None,831.658830200322,None,1,2.051882700063288,831.658830200322,None,2.051882700063288,833.74149809964,None,834.2595250001177,None,834.2595250001177,None,f,2.291332800872624,834.2595250001177,None,2.291332800872624,,,74 Aloud,001,2022_Nov_10_1508,ProdSingRedoBetween,2021.2.3,59.37695763656419,
,,,,4,0,4,0,,,,,,,,,,,,,,,,,,,,,,841.4475916996598,None,,,,,,,,,,,,,,,,,contract,87,5,aloud,old,red,837.0950461002067,None,837.0950461002067,None,6,2.264008699916303,837.0950461002067,None,2.264008699916303,839.3844237001613,None,839.8985604997724,None,839.8985604997724,None,r,1.5321348002180457,839.8985604997724,None,1.5321348002180457,,,74 Aloud,001,2022_Nov_10_1508,ProdSingRedoBetween,2021.2.3,59.37695763656419,
,,,,5,0,5,0,,,,,,,,,,,,,,,,,,,,,,846.2026929995045,None,,,,,,,,,,,,,,,,,majority,35,6,aloud,old,blue,841.9566583996639,None,841.9566583996639,None,6,2.674491100013256,841.9566583996639,None,2.674491100013256,844.6589439995587,None,845.1686517996714,None,845.1686517996714,None,r,1.0061203995719552,845.1686517996714,None,1.0061203995719552,,,74 Aloud,001,2022_Nov_10_1508,ProdSingRedoBetween,2021.2.3,59.37695763656419,
,,,,6,0,6,0,,,,,,,,,,,,,,,,,,,,,,851.0913332002237,None,,,,,,,,,,,,,,,,,signal,177,7,aloud,new,null,846.7059202995151,None,846.7059202995151,None,1,2.316742899827659,846.7059202995151,None,2.316742899827659,849.0572956996039,None,849.5729438997805,None,849.5729438997805,None,f,1.4897276991978288,849.5729438997805,None,1.4897276991978288,,,74 Aloud,001,2022_Nov_10_1508,ProdSingRedoBetween,2021.2.3,59.37695763656419,
,,,,7,0,7,0,,,,,,,,,,,,,,,,,,,,,,856.1797706000507,None,,,,,,,,,,,,,,,,,equipment,15,8,aloud,old,yellow,851.6101267999038,None,851.6101267999038,None,6,2.4285750007256866,851.6101267999038,None,2.4285750007256866,854.0627622995526,None,854.5784989995882,None,854.5784989995882,None,r,1.5804957002401352,854.5784989995882,None,1.5804957002401352,,,74 Aloud,001,2022_Nov_10_1508,ProdSingRedoBetween,2021.2.3,59.37695763656419,
,,,,8,0,8,0,,,,,,,,,,,,,,,,,,,,,,860.934654599987,None,,,,,,,,,,,,,,,,,stranger,133,9,aloud,new,null,856.6867882004008,None,856.6867882004008,None,1,2.0480277007445693,856.6867882004008,None,2.0480277007445693,858.766192600131,None,859.2824406996369,None,859.2824406996369,None,f,1.6202595001086593,859.2824406996369,None,1.6202595001086593,,,74 Aloud,001,2022_Nov_10_1508,ProdSingRedoBetween,2021.2.3,59.37695763656419,
,,,,9,0,9,0,,,,,,,,,,,,,,,,,,,,,,865.8392521999776,None,,,,,,,,,,,,,,,,,finance,49,10,aloud,old,blue,861.4371009999886,None,861.4371009999886,None,6,2.361969199962914,861.4371009999886,None,2.361969199962914,863.8212460996583,None,864.3367422996089,None,864.3367422996089,None,r,1.4700342006981373,864.3367422996089,None,1.4700342006981373,,,74 Aloud,001,2022_Nov_10_1508,ProdSingRedoBetween,2021.2.3,59.37695763656419,
,,,,10,0,10,0,,,,,,,,,,,,,,,,,,,,,,869.7937527000904,None,,,,,,,,,,,,,,,,,bicycle,8,11,aloud,old,yellow,866.3407725999132,None,866.3407725999132,None,6,2.2898792000487447,866.3407725999132,None,2.2898792000487447,868.6606291998178,None,869.1783871995285,None,869.1783871995285,None,r,0.5963015994057059,869.1783871995285,None,0.5963015994057059,,,74 Aloud,001,2022_Nov_10_1508,ProdSingRedoBetween,2021.2.3,59.37695763656419,
,,,,11,0,11,0,,,,,,,,,,,,,,,,,,,,,,874.0304472995922,None,,,,,,,,,,,,,,,,,season,134,12,aloud,new,null,870.3239088999107,None,870.3239088999107,None,1,2.1788641000166535,870.3239088999107,None,2.1788641000166535,872.5306951999664,None,873.045849699527,None,873.045849699527,None,f,0.9530036998912692,873.045849699527,None,0.9530036998912692,,,74 Aloud,001,2022_Nov_10_1508,ProdSingRedoBetween,2021.2.3,59.37695763656419,
,,,,12,0,12,0,,,,,,,,,,,,,,,,,,,,,,878.7513747001067,None,,,,,,,,,,,,,,,,,production,105,13,aloud,new,null,874.534564900212,None,874.534564900212,None,1,2.8561638994142413,874.534564900212,None,2.8561638994142413,877.4182861996815,None,877.9338622000068,None,877.9338622000068,None,f,0.8007875001057982,877.9338622000068,None,0.8007875001057982,,,74 Aloud,001,2022_Nov_10_1508,ProdSingRedoBetween,2021.2.3,59.37695763656419,
,,,,13,0,13,0,,,,,,,,,,,,,,,,,,,,,,882.9894827995449,None,,,,,,,,,,,,,,,,,career,115,14,aloud,new,null,879.2540405998006,None,879.2540405998006,None,1,2.1367084002122283,879.2540405998006,None,2.1367084002122283,881.4277531001717,None,881.938685500063,None,881.938685500063,None,f,1.020082799717784,881.938685500063,None,1.020082799717784,,,74 Aloud,001,2022_Nov_10_1508,ProdSingRedoBetween,2021.2.3,59.37695763656419,
,,,,14,0,14,0,,,,,,,,,,,,,,,,,,,,,,887.2615267001092,None,,,,,,,,,,,,,,,,,chief,157,15,aloud,new,null,883.4917786996812,None,883.4917786996812,None,1,2.5548814004287124,883.4917786996812,None,2.5548814004287124,886.0808386001736,None,886.5931358002126,None,886.5931358002126,None,f,0.6376331998035312,886.5931358002126,None,0.6376331998035312,,,74 Aloud,001,2022_Nov_10_1508,ProdSingRedoBetween,2021.2.3,59.37695763656419,
,,,,15,0,15,0,,,,,,,,,,,,,,,,,,,,,,893.9967614002526,None,,,,,,,,,,,,,,,,,music,162,16,aloud,new,null,887.7808168996125,None,887.7808168996125,None,6,3.5617587994784117,887.7808168996125,None,3.5617587994784117,891.3757611997426,None,891.880861800164,None,891.880861800164,None,r,2.0857394002377987,891.880861800164,None,2.0857394002377987,,,74 Aloud,001,2022_Nov_10_1508,ProdSingRedoBetween,2021.2.3,59.37695763656419,
,,,,16,0,16,0,,,,,,,,,,,,,,,,,,,,,,899.3564130002633,None,,,,,,,,,,,,,,,,,century,6,17,aloud,old,yellow,894.5018531996757,None,894.5018531996757,None,6,2.112788500264287,894.5018531996757,None,2.112788500264287,896.6403316995129,None,897.1529035996646,None,897.1529035996646,None,r,2.182094399817288,897.1529035996646,None,2.182094399817288,,,74 Aloud,001,2022_Nov_10_1508,ProdSingRedoBetween,2021.2.3,59.37695763656419,
,,,,17,0,17,0,,,,,,,,,,,,,,,,,,,,,,903.3445589002222,None,,,,,,,,,,,,,,,,,rapid,128,18,aloud,new,null,899.876932900399,None,899.876932900399,None,1,2.0656997999176383,899.876932900399,None,2.0656997999176383,901.9766052002087,None,902.4965009996668,None,902.4965009996668,None,f,0.8302231999114156,902.4965009996668,None,0.8302231999114156,,,74 Aloud,001,2022_Nov_10_1508,ProdSingRedoBetween,2021.2.3,59.37695763656419,
,,,,18,0,18,0,,,,,,,,,,,,,,,,,,,,,,908.2140728998929,None,,,,,,,,,,,,,,,,,article,38,19,aloud,old,blue,903.8646619003266,None,903.8646619003266,None,1,2.478300099261105,903.8646619003266,None,2.478300099261105,906.3637894997373,None,906.8785352995619,None,906.8785352995619,None,f,1.3121726997196674,906.8785352995619,None,1.3121726997196674,,,74 Aloud,001,2022_Nov_10_1508,ProdSingRedoBetween,2021.2.3,59.37695763656419,
,,,,19,0,19,0,,,,,,,,,,,,,,,,,,,,,,911.4183649998158,None,,,,,,,,,,,,,,,,,youth,4,20,aloud,old,yellow,908.7173097003251,None,908.7173097003251,None,1,1.8333432003855705,908.7173097003251,None,1.8333432003855705,910.5683738002554,None,911.098335900344,None,911.098335900344,None,f,0.3003907008096576,911.098335900344,None,0.3003907008096576,,,74 Aloud,001,2022_Nov_10_1508,ProdSingRedoBetween,2021.2.3,59.37695763656419,
,,,,20,0,20,0,,,,,,,,,,,,,,,,,,,,,,915.2885459000245,None,,,,,,,,,,,,,,,,,column,22,21,aloud,old,yellow,911.9206457994878,None,911.9206457994878,None,6,1.5499503007158637,911.9206457994878,None,1.5499503007158637,913.504031999968,None,914.0194049002603,None,914.0194049002603,None,r,1.2511805994436145,914.0194049002603,None,1.2511805994436145,,,74 Aloud,001,2022_Nov_10_1508,ProdSingRedoBetween,2021.2.3,59.37695763656419,
,,,,21,0,21,0,,,,,,,,,,,,,,,,,,,,,,919.7605681000277,None,,,,,,,,,,,,,,,,,meeting,23,22,aloud,old,yellow,915.8065895000473,None,915.8065895000473,None,6,3.080026499927044,915.8065895000473,None,3.080026499927044,918.9092972995713,None,919.4249964999035,None,919.4249964999035,None,r,0.3096542004495859,919.4249964999035,None,0.3096542004495859,,,74 Aloud,001,2022_Nov_10_1508,ProdSingRedoBetween,2021.2.3,59.37695763656419,
,,,,22,0,22,0,,,,,,,,,,,,,,,,,,,,,,923.2304071001709,None,,,,,,,,,,,,,,,,,drama,163,23,aloud,new,null,920.2792589999735,None,920.2792589999735,None,1,1.8796516004949808,920.2792589999735,None,1.8796516004949808,922.1798286996782,None,922.6947662997991,None,922.6947662997991,None,f,0.5118847005069256,922.6947662997991,None,0.5118847005069256,,,74 Aloud,001,2022_Nov_10_1508,ProdSingRedoBetween,2021.2.3,59.37695763656419,
,,,,23,0,23,0,,,,,,,,,,,,,,,,,,,,,,927.368650299497,None,,,,,,,,,,,,,,,,,enemy,13,24,aloud,old,yellow,923.7532244995236,None,923.7532244995236,None,1,2.5973444003611803,923.7532244995236,None,2.5973444003611803,926.3838106002659,None,926.8995415000245,None,926.8995415000245,None,f,0.4509984003379941,926.8995415000245,None,0.4509984003379941,,,74 Aloud,001,2022_Nov_10_1508,ProdSingRedoBetween,2021.2.3,59.37695763656419,
,,,,24,0,24,0,,,,,,,,,,,,,,,,,,,,,,931.2037960002199,None,,,,,,,,,,,,,,,,,route,125,25,aloud,new,null,927.8866010997444,None,927.8866010997444,None,1,2.471982599236071,927.8866010997444,None,2.471982599236071,930.3874763995409,None,930.9029366998002,None,930.9029366998002,None,f,0.2718564001843333,930.9029366998002,None,0.2718564001843333,,,74 Aloud,001,2022_Nov_10_1508,ProdSingRedoBetween,2021.2.3,59.37695763656419,
,,,,25,0,25,0,,,,,,,,,,,,,,,,,,,,,,933.9836117997766,None,,,,,,,,,,,,,,,,,title,154,26,aloud,new,null,931.7092565996572,None,931.7092565996572,None,1,1.3693154994398355,931.7092565996572,None,1.3693154994398355,933.1084383996204,None,933.6218884000555,None,933.6218884000555,None,f,0.3286694996058941,933.6218884000555,None,0.3286694996058941,,,74 Aloud,001,2022_Nov_10_1508,ProdSingRedoBetween,2021.2.3,59.37695763656419,
,,,,26,0,26,0,,,,,,,,,,,,,,,,,,,,,,936.5425415998325,None,,,,,,,,,,,,,,,,,theme,34,27,aloud,old,blue,934.4917719997466,None,934.4917719997466,None,6,1.1792334001511335,934.4917719997466,None,1.1792334001511335,935.6931293997914,None,936.2079654997215,None,936.2079654997215,None,r,0.31064779963344336,936.2079654997215,None,0.31064779963344336,,,74 Aloud,001,2022_Nov_10_1508,ProdSingRedoBetween,2021.2.3,59.37695763656419,
,,,,27,0,27,0,,,,,,,,,,,,,,,,,,,,,,939.8803712995723,None,,,,,,,,,,,,,,,,,thing,121,28,aloud,new,null,937.0493906997144,None,937.0493906997144,None,1,1.8691636994481087,937.0493906997144,None,1.8691636994481087,938.9532698998228,None,939.465214099735,None,939.465214099735,None,f,0.39757669996470213,939.465214099735,None,0.39757669996470213,,,74 Aloud,001,2022_Nov_10_1508,ProdSingRedoBetween,2021.2.3,59.37695763656419,
,,,,28,0,28,0,,,,,,,,,,,,,,,,,,,,,,944.7342544002458,None,,,,,,,,,,,,,,,,,relation,75,29,aloud,old,red,940.3995076995343,None,940.3995076995343,None,1,0.8551146006211638,940.3995076995343,None,0.8551146006211638,941.2857844997197,None,941.7970669995993,None,941.7970669995993,None,r,2.9135730005800724,941.7970669995993,None,2.9135730005800724,,,74 Aloud,001,2022_Nov_10_1508,ProdSingRedoBetween,2021.2.3,59.37695763656419,
,,,,29,0,29,0,,,,,,,,,,,,,,,,,,,,,,948.4885000996292,None,,,,,,,,,,,,,,,,,turkey,25,30,aloud,old,yellow,945.2370629003271,None,945.2370629003271,None,6,2.137447400018573,945.2370629003271,None,2.137447400018573,947.4058644995093,None,947.9230826999992,None,947.9230826999992,None,r,0.5474544996395707,947.9230826999992,None,0.5474544996395707,,,74 Aloud,001,2022_Nov_10_1508,ProdSingRedoBetween,2021.2.3,59.37695763656419,
,,,,30,0,30,0,,,,,,,,,,,,,,,,,,,,,,951.1913532000035,None,,,,,,,,,,,,,,,,,range,98,31,aloud,new,null,948.9955463996157,None,948.9955463996157,None,1,1.2831193003803492,948.9955463996157,None,1.2831193003803492,950.3079377999529,None,950.8315561003983,None,950.8315561003983,None,f,0.33517179917544127,950.8315561003983,None,0.33517179917544127,,,74 Aloud,001,2022_Nov_10_1508,ProdSingRedoBetween,2021.2.3,59.37695763656419,
,,,,31,0,31,0,,,,,,,,,,,,,,,,,,,,,,954.0602708999068,None,,,,,,,,,,,,,,,,,command,32,32,aloud,old,blue,951.7111446000636,None,951.7111446000636,None,6,1.2234574994072318,951.7111446000636,None,1.2234574994072318,952.9599259002134,None,953.4750466002151,None,953.4750466002151,None,r,0.5555711993947625,953.4750466002151,None,0.5555711993947625,,,74 Aloud,001,2022_Nov_10_1508,ProdSingRedoBetween,2021.2.3,59.37695763656419,
,,,,32,0,32,0,,,,,,,,,,,,,,,,,,,,,,956.6323041999713,None,,,,,,,,,,,,,,,,,plane,179,33,aloud,new,null,954.564665700309,None,954.564665700309,None,1,0.9539718003943563,954.564665700309,None,0.9539718003943563,955.5472807995975,None,956.0645306995139,None,956.0645306995139,None,f,0.5423325002193451,956.0645306995139,None,0.5423325002193451,,,74 Aloud,001,2022_Nov_10_1508,ProdSingRedoBetween,2021.2.3,59.37695763656419,
,,,,33,0,33,0,,,,,,,,,,,,,,,,,,,,,,959.4121449999511,None,,,,,,,,,,,,,,,,,pretty,158,34,aloud,new,null,957.147160500288,None,957.147160500288,None,1,1.3636322002857924,957.147160500288,None,1.3636322002857924,958.5328684002161,None,959.0479082996026,None,959.0479082996026,None,f,0.33467570040374994,959.0479082996026,None,0.33467570040374994,,,74 Aloud,001,2022_Nov_10_1508,ProdSingRedoBetween,2021.2.3,59.37695763656419,
,,,,34,0,34,0,,,,,,,,,,,,,,,,,,,,,,964.119780600071,None,,,,,,,,,,,,,,,,,display,53,35,aloud,old,blue,959.9276203997433,None,959.9276203997433,None,6,2.190896300598979,959.9276203997433,None,2.190896300598979,962.1395229995251,None,962.6515026995912,None,962.6515026995912,None,r,1.4430484995245934,962.6515026995912,None,1.4430484995245934,,,74 Aloud,001,2022_Nov_10_1508,ProdSingRedoBetween,2021.2.3,59.37695763656419,
,,,,35,0,35,0,,,,,,,,,,,,,,,,,,,,,,966.8397615998983,None,,,,,,,,,,,,,,,,,crowd,24,36,aloud,old,yellow,964.6305342996493,None,964.6305342996493,None,6,1.2079980000853539,964.6305342996493,None,1.2079980000853539,965.8561415998265,None,966.3719627996907,None,966.3719627996907,None,r,0.45064560044556856,966.3719627996907,None,0.45064560044556856,,,74 Aloud,001,2022_Nov_10_1508,ProdSingRedoBetween,2021.2.3,59.37695763656419,
,,,,36,0,36,0,,,,,,,,,,,,,,,,,,,,,,969.4592752996832,None,,,,,,,,,,,,,,,,,shock,161,37,aloud,new,null,967.3427395001054,None,967.3427395001054,None,1,1.1997564006596804,967.3427395001054,None,1.1997564006596804,968.5766545999795,None,969.09077790007,None,969.09077790007,None,f,0.33970990031957626,969.09077790007,None,0.33970990031957626,,,74 Aloud,001,2022_Nov_10_1508,ProdSingRedoBetween,2021.2.3,59.37695763656419,
,,,,37,0,37,0,,,,,,,,,,,,,,,,,,,,,,974.2312450995669,None,,,,,,,,,,,,,,,,,order,116,38,aloud,new,null,969.9775654003024,None,969.9775654003024,None,6,3.1092159999534488,969.9775654003024,None,3.1092159999534488,973.139210799709,None,973.6507321996614,None,973.6507321996614,None,r,0.5557848000898957,973.6507321996614,None,0.5557848000898957,,,74 Aloud,001,2022_Nov_10_1508,ProdSingRedoBetween,2021.2.3,59.37695763656419,
,,,,38,0,38,0,,,,,,,,,,,,,,,,,,,,,,976.8000125996768,None,,,,,,,,,,,,,,,,,private,159,39,aloud,new,null,974.7488617002964,None,974.7488617002964,None,1,1.1620605001226068,974.7488617002964,None,1.1620605001226068,975.9332239003852,None,976.4555668001994,None,976.4555668001994,None,f,0.3189767999574542,976.4555668001994,None,0.3189767999574542,,,74 Aloud,001,2022_Nov_10_1508,ProdSingRedoBetween,2021.2.3,59.37695763656419,
,,,,39,0,39,0,,,,,,,,,,,,,,,,,,,,,,979.1860675998032,None,,,,,,,,,,,,,,,,,safety,43,40,aloud,old,blue,977.3181376000866,None,977.3181376000866,None,1,0.9685793006792665,977.3181376000866,None,0.9685793006792665,978.3195794997737,None,978.8345721997321,None,978.8345721997321,None,f,0.3239299999549985,978.8345721997321,None,0.3239299999549985,,,74 Aloud,001,2022_Nov_10_1508,ProdSingRedoBetween,2021.2.3,59.37695763656419,
,,,,40,0,40,0,,,,,,,,,,,,,,,,,,,,,,981.5883890995756,None,,,,,,,,,,,,,,,,,balance,50,41,aloud,old,blue,979.7044551996514,None,979.7044551996514,None,1,1.1020173002034426,979.7044551996514,None,1.1020173002034426,980.8396340999752,None,981.3532197000459,None,981.3532197000459,None,f,0.20527449995279312,981.3532197000459,None,0.20527449995279312,,,74 Aloud,001,2022_Nov_10_1508,ProdSingRedoBetween,2021.2.3,59.37695763656419,
,,,,41,0,41,0,,,,,,,,,,,,,,,,,,,,,,984.0743544995785,None,,,,,,,,,,,,,,,,,portion,139,42,aloud,new,null,982.1061754003167,None,982.1061754003167,None,1,1.1563079999759793,982.1061754003167,None,1.1563079999759793,983.2925931001082,None,983.8056159000844,None,983.8056159000844,None,f,0.24087859969586134,983.8056159000844,None,0.24087859969586134,,,74 Aloud,001,2022_Nov_10_1508,ProdSingRedoBetween,2021.2.3,59.37695763656419,
,,,,42,0,42,0,,,,,,,,,,,,,,,,,,,,,,986.760257200338,None,,,,,,,,,,,,,,,,,cousin,96,43,aloud,new,null,984.5936927003786,None,984.5936927003786,None,1,1.3568192003294826,984.5936927003786,None,1.3568192003294826,985.978744099848,None,986.4916754001752,None,986.4916754001752,None,f,0.25087699946016073,986.4916754001752,None,0.25087699946016073,,,74 Aloud,001,2022_Nov_10_1508,ProdSingRedoBetween,2021.2.3,59.37695763656419,
,,,,43,0,43,0,,,,,,,,,,,,,,,,,,,,,,989.2291377997026,None,,,,,,,,,,,,,,,,,bright,61,44,aloud,old,red,987.2818863000721,None,987.2818863000721,None,6,1.0685437992215157,987.2818863000721,None,1.0685437992215157,988.3808214999735,None,988.8956150999293,None,988.8956150999293,None,r,0.30293160025030375,988.8956150999293,None,0.30293160025030375,,,74 Aloud,001,2022_Nov_10_1508,ProdSingRedoBetween,2021.2.3,59.37695763656419,
,,,,44,0,44,0,,,,,,,,,,,,,,,,,,,,,,991.7311218995601,None,,,,,,,,,,,,,,,,,religion,171,45,aloud,new,null,989.7336146002635,None,989.7336146002635,None,1,1.2569027002900839,989.7336146002635,None,1.2569027002900839,991.0191169995815,None,991.5305321002379,None,991.5305321002379,None,f,0.18024619948118925,991.5305321002379,None,0.18024619948118925,,,74 Aloud,001,2022_Nov_10_1508,ProdSingRedoBetween,2021.2.3,59.37695763656419,
,,,,45,0,45,0,,,,,,,,,,,,,,,,,,,,,,993.8511204002425,None,,,,,,,,,,,,,,,,,threat,166,46,aloud,new,null,992.2448380002752,None,992.2448380002752,None,1,0.8415834996849298,992.2448380002752,None,0.8415834996849298,993.1186143001541,None,993.631805899553,None,993.631805899553,None,f,0.19078729953616858,993.631805899553,None,0.19078729953616858,,,74 Aloud,001,2022_Nov_10_1508,ProdSingRedoBetween,2021.2.3,59.37695763656419,
,,,,46,0,46,0,,,,,,,,,,,,,,,,,,,,,,997.170728799887,None,,,,,,,,,,,,,,,,,collection,68,47,aloud,old,red,994.3718587001786,None,994.3718587001786,None,6,1.290714900009334,994.3718587001786,None,1.290714900009334,995.6921602999792,None,996.2035726001486,None,996.2035726001486,None,r,0.9473789995536208,996.2035726001486,None,0.9473789995536208,,,74 Aloud,001,2022_Nov_10_1508,ProdSingRedoBetween,2021.2.3,59.37695763656419,
,,,,47,0,47,0,,,,,,,,,,,,,,,,,,,,,,1000.2074004998431,None,,,,,,,,,,,,,,,,,provision,145,48,aloud,new,null,997.6907780002803,None,997.6907780002803,None,1,1.4037512997165322,997.6907780002803,None,1.4037512997165322,999.128690299578,None,999.6407819995657,None,999.6407819995657,None,f,0.5337437000125647,999.6407819995657,None,0.5337437000125647,,,74 Aloud,001,2022_Nov_10_1508,ProdSingRedoBetween,2021.2.3,59.37695763656419,
,,,,48,0,48,0,,,,,,,,,,,,,,,,,,,,,,1003.2280067000538,None,,,,,,,,,,,,,,,,,personnel,27,49,aloud,old,yellow,1000.7289180001244,None,1000.7289180001244,None,6,1.2375058997422457,1000.7289180001244,None,1.2375058997422457,1001.9953418001533,None,1002.5167659996077,None,1002.5167659996077,None,r,0.6902658008038998,1002.5167659996077,None,0.6902658008038998,,,74 Aloud,001,2022_Nov_10_1508,ProdSingRedoBetween,2021.2.3,59.37695763656419,
,,,,49,0,49,0,,,,,,,,,,,,,,,,,,,,,,1005.4291428001598,None,,,,,,,,,,,,,,,,,citizen,20,50,aloud,old,yellow,1003.7440103003755,None,1003.7440103003755,None,6,0.7664569998160005,1003.7440103003755,None,0.7664569998160005,1004.5282359002158,None,1005.0437776995823,None,1005.0437776995823,None,r,0.3546683993190527,1005.0437776995823,None,0.3546683993190527,,,74 Aloud,001,2022_Nov_10_1508,ProdSingRedoBetween,2021.2.3,59.37695763656419,
,,,,50,0,50,0,,,,,,,,,,,,,,,,,,,,,,1016.7897960999981,None,,,,,,,,,,,,,,,,,vision,76,51,aloud,old,red,1006.0334083000198,None,1006.0334083000198,None,1,9.676977000199258,1006.0334083000198,None,9.676977000199258,1015.7402421999723,None,1016.2556800004095,None,1016.2556800004095,None,f,0.5107219992205501,1016.2556800004095,None,0.5107219992205501,,,74 Aloud,001,2022_Nov_10_1508,ProdSingRedoBetween,2021.2.3,59.37695763656419,
,,,,51,0,51,0,,,,,,,,,,,,,,,,,,,,,,1019.5261190999299,None,,,,,,,,,,,,,,,,,engineer,55,52,aloud,old,blue,1017.2957709999755,None,1017.2957709999755,None,6,1.1751383002847433,1017.2957709999755,None,1.1751383002847433,1018.4925459995866,None,1019.0079549998045,None,1019.0079549998045,None,r,0.49469610024243593,1019.0079549998045,None,0.49469610024243593,,,74 Aloud,001,2022_Nov_10_1508,ProdSingRedoBetween,2021.2.3,59.37695763656419,
,,,,52,0,52,0,,,,,,,,,,,,,,,,,,,,,,1022.0125048002228,None,,,,,,,,,,,,,,,,,institute,132,53,aloud,new,null,1020.0303090000525,None,1020.0303090000525,None,1,1.1924131996929646,1020.0303090000525,None,1.1924131996929646,1021.2461320003495,None,1021.7604678999633,None,1021.7604678999633,None,f,0.22203840035945177,1021.7604678999633,None,0.22203840035945177,,,74 Aloud,001,2022_Nov_10_1508,ProdSingRedoBetween,2021.2.3,59.37695763656419,
,,,,53,0,53,0,,,,,,,,,,,,,,,,,,,,,,1026.917287199758,None,,,,,,,,,,,,,,,,,appeal,168,54,aloud,new,null,1022.5296710999683,None,1022.5296710999683,None,1,3.6928241001442075,1022.5296710999683,None,3.6928241001442075,1026.2504227003083,None,1026.765398000367,None,1026.765398000367,None,f,0.12909999955445528,1026.765398000367,None,0.12909999955445528,,,74 Aloud,001,2022_Nov_10_1508,ProdSingRedoBetween,2021.2.3,59.37695763656419,
,,,,54,0,54,0,,,,,,,,,,,,,,,,,,,,,,1029.7178028002381,None,,,,,,,,,,,,,,,,,working,142,55,aloud,new,null,1027.437531599775,None,1027.437531599775,None,1,0.9048816999420524,1027.437531599775,None,0.9048816999420524,1028.3704747995362,None,1028.885347600095,None,1028.885347600095,None,f,0.8091144999489188,1028.885347600095,None,0.8091144999489188,,,74 Aloud,001,2022_Nov_10_1508,ProdSingRedoBetween,2021.2.3,59.37695763656419,
,,,,55,0,55,0,,,,,,,,,,,,,,,,,,,,,,1032.1220618998632,None,,,,,,,,,,,,,,,,,motion,78,56,aloud,old,red,1030.2206482002512,None,1030.2206482002512,None,6,1.0897915996611118,1030.2206482002512,None,1.0897915996611118,1031.3393240002915,None,1031.8562108995393,None,1031.8562108995393,None,r,0.24626970011740923,1031.8562108995393,None,0.24626970011740923,,,74 Aloud,001,2022_Nov_10_1508,ProdSingRedoBetween,2021.2.3,59.37695763656419,
,,,,56,0,56,0,,,,,,,,,,,,,,,,,,,,,,1034.4066773001105,None,,,,,,,,,,,,,,,,,opening,103,57,aloud,new,null,1032.6414924003184,None,1032.6414924003184,None,6,1.0777532998472452,1032.6414924003184,None,1.0777532998472452,1033.7419098000973,None,1034.256701500155,None,1034.256701500155,None,r,0.12575630005449057,1034.256701500155,None,0.12575630005449057,,,74 Aloud,001,2022_Nov_10_1508,ProdSingRedoBetween,2021.2.3,59.37695763656419,
,,,,57,0,57,0,,,,,,,,,,,,,,,,,,,,,,1036.7934691002592,None,,,,,,,,,,,,,,,,,level,70,58,aloud,old,red,1034.909680600278,None,1034.909680600278,None,1,0.7688249992206693,1034.909680600278,None,0.7688249992206693,1035.7129573998973,None,1036.2245621997863,None,1036.2245621997863,None,f,0.5501071000471711,1036.2245621997863,None,0.5501071000471711,,,74 Aloud,001,2022_Nov_10_1508,ProdSingRedoBetween,2021.2.3,59.37695763656419,
,,,,58,0,58,0,,,,,,,,,,,,,,,,,,,,,,1039.7352595003322,None,,,,,,,,,,,,,,,,,drove,88,59,aloud,old,red,1037.3111477997154,None,1037.3111477997154,None,6,1.3352907001972198,1037.3111477997154,None,1.3352907001972198,1038.6791711002588,None,1039.195438100025,None,1039.195438100025,None,r,0.515209499746561,1039.195438100025,None,0.515209499746561,,,74 Aloud,001,2022_Nov_10_1508,ProdSingRedoBetween,2021.2.3,59.37695763656419,
,,,,59,0,59,0,,,,,,,,,,,,,,,,,,,,,,1042.8664776999503,None,,,,,,,,,,,,,,,,,captain,174,60,aloud,new,null,1040.2518728002906,None,1040.2518728002906,None,1,1.7305813003331423,1040.2518728002906,None,1.7305813003331423,1042.016366600059,None,1042.5369323994964,None,1042.5369323994964,None,r,0.3014807002618909,1042.5369323994964,None,0.3014807002618909,,,74 Aloud,001,2022_Nov_10_1508,ProdSingRedoBetween,2021.2.3,59.37695763656419,
,,,,60,0,60,0,,,,,,,,,,,,,,,,,,,,,,1046.0685783000663,None,,,,,,,,,,,,,,,,,background,173,61,aloud,new,null,1043.3834608001634,None,1043.3834608001634,None,1,1.8388834996148944,1043.3834608001634,None,1.8388834996148944,1045.2529600001872,None,1045.7680281000212,None,1045.7680281000212,None,f,0.27838850021362305,1045.7680281000212,None,0.27838850021362305,,,74 Aloud,001,2022_Nov_10_1508,ProdSingRedoBetween,2021.2.3,59.37695763656419,
,,,,61,0,61,0,,,,,,,,,,,,,,,,,,,,,,1048.4723845999688,None,,,,,,,,,,,,,,,,,nation,63,62,aloud,old,red,1046.5792547995225,None,1046.5792547995225,None,6,1.099108699709177,1046.5792547995225,None,1.099108699709177,1047.7041260004044,None,1048.2195482999086,None,1048.2195482999086,None,r,0.21896359976381063,1048.2195482999086,None,0.21896359976381063,,,74 Aloud,001,2022_Nov_10_1508,ProdSingRedoBetween,2021.2.3,59.37695763656419,
,,,,62,0,62,0,,,,,,,,,,,,,,,,,,,,,,1052.1083905994892,None,,,,,,,,,,,,,,,,,dance,112,63,aloud,new,null,1048.9892485002056,None,1048.9892485002056,None,1,1.9211879996582866,1048.9892485002056,None,1.9211879996582866,1050.940765899606,None,1051.4598209001124,None,1051.4598209001124,None,f,0.626770100556314,1051.4598209001124,None,0.626770100556314,,,74 Aloud,001,2022_Nov_10_1508,ProdSingRedoBetween,2021.2.3,59.37695763656419,
,,,,63,0,63,0,,,,,,,,,,,,,,,,,,,,,,1054.4285998996347,None,,,,,,,,,,,,,,,,,series,176,64,aloud,new,null,1052.610683299601,None,1052.610683299601,None,1,0.9797929003834724,1052.610683299601,None,0.9797929003834724,1053.6151265995577,None,1054.135381899774,None,1054.135381899774,None,f,0.26304089929908514,1054.135381899774,None,0.26304089929908514,,,74 Aloud,001,2022_Nov_10_1508,ProdSingRedoBetween,2021.2.3,59.37695763656419,
,,,,64,0,64,0,,,,,,,,,,,,,,,,,,,,,,1057.2158404998481,None,,,,,,,,,,,,,,,,,empty,153,65,aloud,new,null,1054.9478115001693,None,1054.9478115001693,None,6,1.1148224994540215,1054.9478115001693,None,1.1148224994540215,1056.0862835999578,None,1056.595370899886,None,1056.595370899886,None,r,0.5872729001566768,1056.595370899886,None,0.5872729001566768,,,74 Aloud,001,2022_Nov_10_1508,ProdSingRedoBetween,2021.2.3,59.37695763656419,
,,,,65,0,65,0,,,,,,,,,,,,,,,,,,,,,,1061.0840461002663,None,,,,,,,,,,,,,,,,,school,3,66,aloud,old,yellow,1057.7360081998631,None,1057.7360081998631,None,6,2.3742835000157356,1057.7360081998631,None,2.3742835000157356,1060.1340803001076,None,1060.6522193998098,None,1060.6522193998098,None,r,0.41060240007936954,1060.6522193998098,None,0.41060240007936954,,,74 Aloud,001,2022_Nov_10_1508,ProdSingRedoBetween,2021.2.3,59.37695763656419,
,,,,66,0,66,0,,,,,,,,,,,,,,,,,,,,,,1063.6865520998836,None,,,,,,,,,,,,,,,,,whole,48,67,aloud,old,blue,1061.601295400411,None,1061.601295400411,None,6,1.2770179994404316,1061.601295400411,None,1.2770179994404316,1062.9037694996223,None,1063.4184895996004,None,1063.4184895996004,None,r,0.25192479975521564,1063.4184895996004,None,0.25192479975521564,,,74 Aloud,001,2022_Nov_10_1508,ProdSingRedoBetween,2021.2.3,59.37695763656419,
,,,,67,0,67,0,,,,,,,,,,,,,,,,,,,,,,1066.7215451998636,None,,,,,,,,,,,,,,,,,gesture,41,68,aloud,old,blue,1064.197740700096,None,1064.197740700096,None,6,1.6888843001797795,1064.197740700096,None,1.6888843001797795,1065.9083128003404,None,1066.421037999913,None,1066.421037999913,None,r,0.2733108000829816,1066.421037999913,None,0.2733108000829816,,,74 Aloud,001,2022_Nov_10_1508,ProdSingRedoBetween,2021.2.3,59.37695763656419,
,,,,68,0,68,0,,,,,,,,,,,,,,,,,,,,,,1069.381153699942,None,,,,,,,,,,,,,,,,,territory,144,69,aloud,new,null,1067.225122500211,None,1067.225122500211,None,1,1.3172273999080062,1067.225122500211,None,1.3172273999080062,1068.5769605003297,None,1069.0926072997972,None,1069.0926072997972,None,f,0.26571919955313206,1069.0926072997972,None,0.26571919955313206,,,74 Aloud,001,2022_Nov_10_1508,ProdSingRedoBetween,2021.2.3,59.37695763656419,
,,,,69,0,69,0,,,,,,,,,,,,,,,,,,,,,,1072.3265420002863,None,,,,,,,,,,,,,,,,,victory,172,70,aloud,new,null,1069.8972878996283,None,1069.8972878996283,None,6,1.5409995997324586,1069.8972878996283,None,1.5409995997324586,1071.4872909998521,None,1071.998722399585,None,1071.998722399585,None,r,0.26362819969654083,1071.998722399585,None,0.26362819969654083,,,74 Aloud,001,2022_Nov_10_1508,ProdSingRedoBetween,2021.2.3,59.37695763656419,
,,,,70,0,70,0,,,,,,,,,,,,,,,,,,,,,,1075.594584800303,None,,,,,,,,,,,,,,,,,primary,51,71,aloud,old,blue,1072.8532710997388,None,1072.8532710997388,None,1,1.913103500381112,1072.8532710997388,None,1.913103500381112,1074.798830700107,None,1075.3187074000016,None,1075.3187074000016,None,f,0.23169710021466017,1075.3187074000016,None,0.23169710021466017,,,74 Aloud,001,2022_Nov_10_1508,ProdSingRedoBetween,2021.2.3,59.37695763656419,
,,,,71,0,71,0,,,,,,,,,,,,,,,,,,,,,,1078.5351873002946,None,,,,,,,,,,,,,,,,,salary,107,72,aloud,new,null,1076.1153977001086,None,1076.1153977001086,None,1,1.6028864001855254,1076.1153977001086,None,1.6028864001855254,1077.7572366995737,None,1078.2681315997615,None,1078.2681315997615,None,f,0.2502429997548461,1078.2681315997615,None,0.2502429997548461,,,74 Aloud,001,2022_Nov_10_1508,ProdSingRedoBetween,2021.2.3,59.37695763656419,
,,,,72,0,72,0,,,,,,,,,,,,,,,,,,,,,,1081.3715431001037,None,,,,,,,,,,,,,,,,,trail,82,73,aloud,old,red,1079.0529563995078,None,1079.0529563995078,None,6,1.521370599977672,1079.0529563995078,None,1.521370599977672,1080.607105200179,None,1081.1203370001167,None,1081.1203370001167,None,r,0.2302392004057765,1081.1203370001167,None,0.2302392004057765,,,74 Aloud,001,2022_Nov_10_1508,ProdSingRedoBetween,2021.2.3,59.37695763656419,
,,,,73,0,73,0,,,,,,,,,,,,,,,,,,,,,,1084.159650100395,None,,,,,,,,,,,,,,,,,recall,156,74,aloud,new,null,1081.8884792998433,None,1081.8884792998433,None,1,1.4461591998115182,1081.8884792998433,None,1.4461591998115182,1083.3576378002763,None,1083.8741763001308,None,1083.8741763001308,None,f,0.26020590029656887,1083.8741763001308,None,0.26020590029656887,,,74 Aloud,001,2022_Nov_10_1508,ProdSingRedoBetween,2021.2.3,59.37695763656419,
,,,,74,0,74,0,,,,,,,,,,,,,,,,,,,,,,1087.1098103001714,None,,,,,,,,,,,,,,,,,revolution,141,75,aloud,new,null,1084.6859913999215,None,1084.6859913999215,None,1,1.624354200437665,1084.6859913999215,None,1.624354200437665,1086.3422298999503,None,1086.8463003002107,None,1086.8463003002107,None,f,0.2322379993274808,1086.8463003002107,None,0.2322379993274808,,,74 Aloud,001,2022_Nov_10_1508,ProdSingRedoBetween,2021.2.3,59.37695763656419,
,,,,75,0,75,0,,,,,,,,,,,,,,,,,,,,,,1089.4251004001126,None,,,,,,,,,,,,,,,,,accident,165,76,aloud,new,null,1087.6140801999718,None,1087.6140801999718,None,1,0.9842397999018431,1087.6140801999718,None,0.9842397999018431,1088.6310639996082,None,1089.1444284999743,None,1089.1444284999743,None,f,0.24628829956054688,1089.1444284999743,None,0.24628829956054688,,,74 Aloud,001,2022_Nov_10_1508,ProdSingRedoBetween,2021.2.3,59.37695763656419,
,,,,76,0,76,0,,,,,,,,,,,,,,,,,,,,,,1092.0609446000308,None,,,,,,,,,,,,,,,,,quick,18,77,aloud,old,yellow,1089.951863899827,None,1089.951863899827,None,6,1.2944298004731536,1089.951863899827,None,1.2944298004731536,1091.2653657002375,None,1091.7803124999627,None,1091.7803124999627,None,r,0.25011959951370955,1091.7803124999627,None,0.25011959951370955,,,74 Aloud,001,2022_Nov_10_1508,ProdSingRedoBetween,2021.2.3,59.37695763656419,
,,,,77,0,77,0,,,,,,,,,,,,,,,,,,,,,,1096.1512530995533,None,,,,,,,,,,,,,,,,,space,109,78,aloud,new,null,1092.5687942998484,None,1092.5687942998484,None,1,2.7094822004437447,1092.5687942998484,None,2.7094822004437447,1095.3019813001156,None,1095.8198090000078,None,1095.8198090000078,None,f,0.31448789965361357,1095.8198090000078,None,0.31448789965361357,,,74 Aloud,001,2022_Nov_10_1508,ProdSingRedoBetween,2021.2.3,59.37695763656419,
,,,,78,0,78,0,,,,,,,,,,,,,,,,,,,,,,1098.4866287000477,None,,,,,,,,,,,,,,,,,store,67,79,aloud,old,red,1096.6563016995788,None,1096.6563016995788,None,6,1.2139173997566104,1096.6563016995788,None,1.2139173997566104,1097.91782649979,None,1098.4389912998304,None,1098.4389912998304,None,r,0.015291900373995304,1098.4389912998304,None,0.015291900373995304,,,74 Aloud,001,2022_Nov_10_1508,ProdSingRedoBetween,2021.2.3,59.37695763656419,
,,,,79,0,79,0,,,,,,,,,,,,,,,,,,,,,,1100.6888042995706,None,,,,,,,,,,,,,,,,,scene,111,80,aloud,new,null,1098.9958239002153,None,1098.9958239002153,None,1,0.9544004006311297,1098.9958239002153,None,0.9544004006311297,1099.9812808996066,None,1100.490004199557,None,1100.490004199557,None,f,0.17224830016493797,1100.490004199557,None,0.17224830016493797,,,74 Aloud,001,2022_Nov_10_1508,ProdSingRedoBetween,2021.2.3,59.37695763656419,
,,,,80,0,80,0,,,,,,,,,,,,,,,,,,,,,,1102.9317736001685,None,,,,,,,,,,,,,,,,,council,146,81,aloud,new,null,1101.1923366002738,None,1101.1923366002738,None,1,0.9020467000082135,1101.1923366002738,None,0.9020467000082135,1102.1269995998591,None,1102.641342099756,None,1102.641342099756,None,f,0.2529010996222496,1102.641342099756,None,0.2529010996222496,,,74 Aloud,001,2022_Nov_10_1508,ProdSingRedoBetween,2021.2.3,59.37695763656419,
,,,,81,0,81,0,,,,,,,,,,,,,,,,,,,,,,1105.7452699998394,None,,,,,,,,,,,,,,,,,judge,169,82,aloud,new,null,1103.4745388003066,None,1103.4745388003066,None,6,1.4357219003140926,1103.4745388003066,None,1.4357219003140926,1104.9429270997643,None,1105.4458269998431,None,1105.4458269998431,None,r,0.2807426005601883,1105.4458269998431,None,0.2807426005601883,,,74 Aloud,001,2022_Nov_10_1508,ProdSingRedoBetween,2021.2.3,59.37695763656419,
,,,,82,0,82,0,,,,,,,,,,,,,,,,,,,,,,1107.9717482002452,None,,,,,,,,,,,,,,,,,finish,114,83,aloud,new,null,1106.2606488997117,None,1106.2606488997117,None,1,1.041530099697411,1106.2606488997117,None,1.041530099697411,1107.3669702997431,None,1107.8744818000123,None,1107.8744818000123,None,f,0.052151099778711796,1107.8744818000123,None,0.052151099778711796,,,74 Aloud,001,2022_Nov_10_1508,ProdSingRedoBetween,2021.2.3,59.37695763656419,
,,,,83,0,83,0,,,,,,,,,,,,,,,,,,,,,,1110.382400999777,None,,,,,,,,,,,,,,,,,business,16,84,aloud,old,yellow,1108.4841790003702,None,1108.4841790003702,None,6,1.1621329998597503,1108.4841790003702,None,1.1621329998597503,1109.666179499589,None,1110.182362199761,None,1110.182362199761,None,r,0.17597039975225925,1110.182362199761,None,0.17597039975225925,,,74 Aloud,001,2022_Nov_10_1508,ProdSingRedoBetween,2021.2.3,59.37695763656419,
,,,,84,0,84,0,,,,,,,,,,,,,,,,,,,,,,1112.700210900046,None,,,,,,,,,,,,,,,,,minor,137,85,aloud,new,null,1110.8864516001195,None,1110.8864516001195,None,1,0.9837655005976558,1110.8864516001195,None,0.9837655005976558,1111.901948899962,None,1112.4167077001184,None,1112.4167077001184,None,f,0.25351470056921244,1112.4167077001184,None,0.25351470056921244,,,74 Aloud,001,2022_Nov_10_1508,ProdSingRedoBetween,2021.2.3,59.37695763656419,
,,,,85,0,85,0,,,,,,,,,,,,,,,,,,,,,,1114.899991599843,None,,,,,,,,,,,,,,,,,cross,143,86,aloud,new,null,1113.2027259999886,None,1113.2027259999886,None,1,0.9156192000955343,1113.2027259999886,None,0.9156192000955343,1114.1379733998328,None,1114.65231639985,None,1114.65231639985,None,f,0.20997390057891607,1114.65231639985,None,0.20997390057891607,,,74 Aloud,001,2022_Nov_10_1508,ProdSingRedoBetween,2021.2.3,59.37695763656419,
,,,,86,0,86,0,,,,,,,,,,,,,,,,,,,,,,1117.2713366001844,None,,,,,,,,,,,,,,,,,curve,37,87,aloud,old,blue,1115.4040855001658,None,1115.4040855001658,None,6,1.2902281004935503,1115.4040855001658,None,1.2902281004935503,1116.7279231995344,None,1117.238054599613,None,1117.238054599613,None,r,0.01644109934568405,1117.238054599613,None,0.01644109934568405,,,74 Aloud,001,2022_Nov_10_1508,ProdSingRedoBetween,2021.2.3,59.37695763656419,
,,,,87,0,87,0,,,,,,,,,,,,,,,,,,,,,,1119.5243090000004,None,,,,,,,,,,,,,,,,,owner,85,88,aloud,old,red,1117.773947400041,None,1117.773947400041,None,6,0.9843470994383097,1117.773947400041,None,0.9843470994383097,1118.7928660996258,None,1119.306533999741,None,1119.306533999741,None,r,0.18770840018987656,1119.306533999741,None,0.18770840018987656,,,74 Aloud,001,2022_Nov_10_1508,ProdSingRedoBetween,2021.2.3,59.37695763656419,
,,,,88,0,88,0,,,,,,,,,,,,,,,,,,,,,,1123.4943412002176,None,,,,,,,,,,,,,,,,,colonel,59,89,aloud,old,yellow,1120.0260060001165,None,1120.0260060001165,None,1,2.3802378000691533,1120.0260060001165,None,2.3802378000691533,1122.4299866994843,None,1122.943609399721,None,1122.943609399721,None,f,0.5346617000177503,1122.943609399721,None,0.5346617000177503,,,74 Aloud,001,2022_Nov_10_1508,ProdSingRedoBetween,2021.2.3,59.37695763656419,
,,,,89,0,89,0,,,,,,,,,,,,,,,,,,,,,,1125.5486970003694,None,,,,,,,,,,,,,,,,,point,106,90,aloud,new,null,1123.996518000029,None,1123.996518000029,None,1,0.7376962993294001,1123.996518000029,None,0.7376962993294001,1124.773103799671,None,1125.281070300378,None,1125.281070300378,None,f,0.2452945001423359,1125.281070300378,None,0.2452945001423359,,,74 Aloud,001,2022_Nov_10_1508,ProdSingRedoBetween,2021.2.3,59.37695763656419,
,,,,90,0,90,0,,,,,,,,,,,,,,,,,,,,,,1127.3835655003786,None,,,,,,,,,,,,,,,,,rural,127,91,aloud,new,null,1126.0512563996017,None,1126.0512563996017,None,1,0.5389782004058361,1126.0512563996017,None,0.5389782004058361,1126.6192301996052,None,1127.1313482001424,None,1127.1313482001424,None,f,0.23487830068916082,1127.1313482001424,None,0.23487830068916082,,,74 Aloud,001,2022_Nov_10_1508,ProdSingRedoBetween,2021.2.3,59.37695763656419,
,,,,91,0,91,0,,,,,,,,,,,,,,,,,,,,,,1129.4149834997952,None,,,,,,,,,,,,,,,,,under,17,92,aloud,old,yellow,1127.8858353001997,None,1127.8858353001997,None,1,0.960546899586916,1127.8858353001997,None,0.960546899586916,1128.8686563996598,None,1129.3673339001834,None,1129.3673339001834,None,f,0.007028300315141678,1129.3673339001834,None,0.007028300315141678,,,74 Aloud,001,2022_Nov_10_1508,ProdSingRedoBetween,2021.2.3,59.37695763656419,
,,,,92,0,92,0,,,,,,,,,,,,,,,,,,,,,,1132.3206254998222,None,,,,,,,,,,,,,,,,,comedy,164,93,aloud,new,null,1129.937216299586,None,1129.937216299586,None,1,1.6132816998288035,1129.937216299586,None,1.6132816998288035,1131.572086200118,None,1132.0863191997632,None,1132.0863191997632,None,f,0.20799089968204498,1132.0863191997632,None,0.20799089968204498,,,74 Aloud,001,2022_Nov_10_1508,ProdSingRedoBetween,2021.2.3,59.37695763656419,
,,,,93,0,93,0,,,,,,,,,,,,,,,,,,,,,,1134.7059191996232,None,,,,,,,,,,,,,,,,,center,31,94,aloud,old,blue,1132.8225474003702,None,1132.8225474003702,None,6,1.079836799763143,1132.8225474003702,None,1.079836799763143,1133.923433699645,None,1134.4233422996476,None,1134.4233422996476,None,r,0.254874000325799,1134.4233422996476,None,0.254874000325799,,,74 Aloud,001,2022_Nov_10_1508,ProdSingRedoBetween,2021.2.3,59.37695763656419,
,,,,94,0,94,0,,,,,,,,,,,,,,,,,,,,,,1138.2291973000392,None,,,,,,,,,,,,,,,,,frank,44,95,aloud,old,blue,1135.2089673997834,None,1135.2089673997834,None,1,2.2852135999128222,1135.2089673997834,None,2.2852135999128222,1137.5535783004016,None,1138.0505219995975,None,1138.0505219995975,None,f,0.14021100010722876,1138.0505219995975,None,0.14021100010722876,,,74 Aloud,001,2022_Nov_10_1508,ProdSingRedoBetween,2021.2.3,59.37695763656419,
,,,,95,0,95,0,,,,,,,,,,,,,,,,,,,,,,1141.251751399599,None,,,,,,,,,,,,,,,,,cover,42,96,aloud,old,blue,1138.7766009997576,None,1138.7766009997576,None,1,1.3096610000357032,1138.7766009997576,None,1.3096610000357032,1140.128593299538,None,1140.6317520001903,None,1140.6317520001903,None,f,0.5904471995308995,1140.6317520001903,None,0.5904471995308995,,,74 Aloud,001,2022_Nov_10_1508,ProdSingRedoBetween,2021.2.3,59.37695763656419,
,,,,96,0,96,0,,,,,,,,,,,,,,,,,,,,,,1144.1838464001194,None,,,,,,,,,,,,,,,,,stand,52,97,aloud,old,blue,1141.79226739984,None,1141.79226739984,None,1,1.3579452997073531,1141.79226739984,None,1.3579452997073531,1143.1976116998121,None,1143.702092600055,None,1143.702092600055,None,f,0.4480878999456763,1143.702092600055,None,0.4480878999456763,,,74 Aloud,001,2022_Nov_10_1508,ProdSingRedoBetween,2021.2.3,59.37695763656419,
,,,,97,0,97,0,,,,,,,,,,,,,,,,,,,,,,1146.6026534996927,None,,,,,,,,,,,,,,,,,dozen,83,98,aloud,old,red,1144.7044035997242,None,1144.7044035997242,None,6,1.1338830003514886,1144.7044035997242,None,1.1338830003514886,1145.8700187997892,None,1146.3867662996054,None,1146.3867662996054,None,r,0.19589140079915524,1146.3867662996054,None,0.19589140079915524,,,74 Aloud,001,2022_Nov_10_1508,ProdSingRedoBetween,2021.2.3,59.37695763656419,
,,,,98,0,98,0,,,,,,,,,,,,,,,,,,,,,,1148.9736725995317,None,,,,,,,,,,,,,,,,,weight,69,99,aloud,old,red,1147.1043154001236,None,1147.1043154001236,None,1,0.9019716996699572,1147.1043154001236,None,0.9019716996699572,1148.0380242001265,None,1148.5536355003715,None,1148.5536355003715,None,f,0.38853919971734285,1148.5536355003715,None,0.38853919971734285,,,74 Aloud,001,2022_Nov_10_1508,ProdSingRedoBetween,2021.2.3,59.37695763656419,
,,,,99,0,99,0,,,,,,,,,,,,,,,,,,,,,,1151.4245931003243,None,,,,,,,,,,,,,,,,,search,160,100,aloud,new,null,1149.4901066999882,None,1149.4901066999882,None,1,1.1481892000883818,1149.4901066999882,None,1.1481892000883818,1150.658228999935,None,1151.1730645000935,None,1151.1730645000935,None,f,0.22519920021295547,1151.1730645000935,None,0.22519920021295547,,,74 Aloud,001,2022_Nov_10_1508,ProdSingRedoBetween,2021.2.3,59.37695763656419,
,,,,100,0,100,0,,,,,,,,,,,,,,,,,,,,,,1153.7090520001948,None,,,,,,,,,,,,,,,,,danger,2,101,aloud,old,yellow,1151.9427378997207,None,1151.9427378997207,None,6,1.1035040998831391,1151.9427378997207,None,1.1035040998831391,1153.0759456995875,None,1153.592124500312,None,1153.592124500312,None,r,0.08616749942302704,1153.592124500312,None,0.08616749942302704,,,74 Aloud,001,2022_Nov_10_1508,ProdSingRedoBetween,2021.2.3,59.37695763656419,
,,,,101,0,101,0,,,,,,,,,,,,,,,,,,,,,,1155.6630501998588,None,,,,,,,,,,,,,,,,,length,152,102,aloud,new,null,1154.213188700378,None,1154.213188700378,None,1,0.7370209991931915,1154.213188700378,None,0.7370209991931915,1154.9792652996257,None,1155.4935844996944,None,1155.4935844996944,None,f,0.14460620004683733,1155.4935844996944,None,0.14460620004683733,,,74 Aloud,001,2022_Nov_10_1508,ProdSingRedoBetween,2021.2.3,59.37695763656419,
,,,,102,0,102,0,,,,,,,,,,,,,,,,,,,,,,1157.5798650002107,None,,,,,,,,,,,,,,,,,benefit,120,103,aloud,new,null,1156.181729699485,None,1156.181729699485,None,1,0.8244971996173263,1156.181729699485,None,0.8244971996173263,1157.031030899845,None,1157.5452116997913,None,1157.5452116997913,None,f,0.005119600333273411,1157.5452116997913,None,0.005119600333273411,,,74 Aloud,001,2022_Nov_10_1508,ProdSingRedoBetween,2021.2.3,59.37695763656419,
,,,,103,0,103,0,,,,,,,,,,,,,,,,,,,,,,1161.8004956003278,None,,,,,,,,,,,,,,,,,member,1,104,aloud,old,yellow,1158.0934226000682,None,1158.0934226000682,None,1,2.864823299460113,1158.0934226000682,None,2.864823299460113,1160.9857906000689,None,1161.5000659003854,None,1161.5000659003854,None,f,0.2744405996054411,1161.5000659003854,None,0.2744405996054411,,,74 Aloud,001,2022_Nov_10_1508,ProdSingRedoBetween,2021.2.3,59.37695763656419,
,,,,104,0,104,0,,,,,,,,,,,,,,,,,,,,,,1164.1830350002274,None,,,,,,,,,,,,,,,,,carry,101,105,aloud,new,null,1162.3022737000138,None,1162.3022737000138,None,1,1.144102799706161,1162.3022737000138,None,1.144102799706161,1163.4726568004116,None,1163.9858107995242,None,1163.9858107995242,None,f,0.16467920038849115,1163.9858107995242,None,0.16467920038849115,,,74 Aloud,001,2022_Nov_10_1508,ProdSingRedoBetween,2021.2.3,59.37695763656419,
,,,,105,0,105,0,,,,,,,,,,,,,,,,,,,,,,1166.7392127001658,None,,,,,,,,,,,,,,,,,hearing,97,106,aloud,new,null,1164.6885711997747,None,1164.6885711997747,None,1,0.9898692993447185,1164.6885711997747,None,0.9898692993447185,1165.7263150000945,None,1166.2381640998647,None,1166.2381640998647,None,f,0.47202269919216633,1166.2381640998647,None,0.47202269919216633,,,74 Aloud,001,2022_Nov_10_1508,ProdSingRedoBetween,2021.2.3,59.37695763656419,
,,,,106,0,106,0,,,,,,,,,,,,,,,,,,,,,,1172.4950646003708,None,,,,,,,,,,,,,,,,,addition,119,107,aloud,new,null,1167.242857599631,None,1167.242857599631,None,6,1.4833434000611305,1167.242857599631,None,1.4833434000611305,1168.7582732997835,None,1169.273607599549,None,1169.273607599549,None,r,3.2045880993828177,1169.273607599549,None,3.2045880993828177,,,74 Aloud,001,2022_Nov_10_1508,ProdSingRedoBetween,2021.2.3,59.37695763656419,
,,,,107,0,107,0,,,,,,,,,,,,,,,,,,,,,,1176.665347499773,None,,,,,,,,,,,,,,,,,express,89,108,aloud,old,red,1173.0013520997018,None,1173.0013520997018,None,1,1.1808786997571588,1173.0013520997018,None,1.1808786997571588,1174.214518699795,None,1174.7294018995017,None,1174.7294018995017,None,r,1.9169239001348615,1174.7294018995017,None,1.9169239001348615,,,74 Aloud,001,2022_Nov_10_1508,ProdSingRedoBetween,2021.2.3,59.37695763656419,
,,,,108,0,108,0,,,,,,,,,,,,,,,,,,,,,,1183.006114100106,None,,,,,,,,,,,,,,,,,close,36,109,aloud,old,blue,1177.1681175995618,None,1177.1681175995618,None,4,4.174172700382769,1177.1681175995618,None,4.174172700382769,1181.3724210001528,None,1181.8902813000605,None,1181.8902813000605,None,r,1.0838080998510122,1181.8902813000605,None,1.0838080998510122,,,74 Aloud,001,2022_Nov_10_1508,ProdSingRedoBetween,2021.2.3,59.37695763656419,
,,,,109,0,109,0,,,,,,,,,,,,,,,,,,,,,,1186.3256209995598,None,,,,,,,,,,,,,,,,,voice,178,110,aloud,new,null,1183.5230764001608,None,1183.5230764001608,None,3,1.611280900426209,1183.5230764001608,None,1.611280900426209,1185.1598174003884,None,1185.6736364001408,None,1185.6736364001408,None,r,0.6286722999066114,1185.6736364001408,None,0.6286722999066114,,,74 Aloud,001,2022_Nov_10_1508,ProdSingRedoBetween,2021.2.3,59.37695763656419,
,,,,110,0,110,0,,,,,,,,,,,,,,,,,,,,,,1189.9293430000544,None,,,,,,,,,,,,,,,,,comfort,84,111,aloud,old,red,1186.8430592995137,None,1186.8430592995137,None,6,1.9474491998553276,1186.8430592995137,None,1.9474491998553276,1188.8253252999857,None,1189.329689499922,None,1189.329689499922,None,r,0.5726210996508598,1189.329689499922,None,0.5726210996508598,,,74 Aloud,001,2022_Nov_10_1508,ProdSingRedoBetween,2021.2.3,59.37695763656419,
,,,,111,0,111,0,,,,,,,,,,,,,,,,,,,,,,1192.3821147996932,None,,,,,,,,,,,,,,,,,quiet,7,112,aloud,old,yellow,1190.4477549996227,None,1190.4477549996227,None,6,1.0786796007305384,1190.4477549996227,None,1.0786796007305384,1191.549355099909,None,1192.0642742998898,None,1192.0642742998898,None,r,0.2858770005404949,1192.0642742998898,None,0.2858770005404949,,,74 Aloud,001,2022_Nov_10_1508,ProdSingRedoBetween,2021.2.3,59.37695763656419,
,,,,112,0,112,0,,,,,,,,,,,,,,,,,,,,,,1195.1303936997429,None,,,,,,,,,,,,,,,,,answer,99,113,aloud,new,null,1192.9023147001863,None,1192.9023147001863,None,3,1.4637571992352605,1192.9023147001863,None,1.4637571992352605,1194.3852950995788,None,1194.8991980999708,None,1194.8991980999708,None,r,0.19496290013194084,1194.8991980999708,None,0.19496290013194084,,,74 Aloud,001,2022_Nov_10_1508,ProdSingRedoBetween,2021.2.3,59.37695763656419,
,,,,113,0,113,0,,,,,,,,,,,,,,,,,,,,,,1198.2528266003355,None,,,,,,,,,,,,,,,,,public,19,114,aloud,old,yellow,1195.63558510039,None,1195.63558510039,None,3,1.554483599960804,1195.63558510039,None,1.554483599960804,1197.222038500011,None,1197.738885499537,None,1197.738885499537,None,f,0.48319000005722046,1197.738885499537,None,0.48319000005722046,,,74 Aloud,001,2022_Nov_10_1508,ProdSingRedoBetween,2021.2.3,59.37695763656419,
,,,,114,0,114,0,,,,,,,,,,,,,,,,,,,,,,1204.427080400288,None,,,,,,,,,,,,,,,,,suspect,94,115,aloud,new,null,1198.7565182996914,None,1198.7565182996914,None,2,4.6580456998199224,1198.7565182996914,None,4.6580456998199224,1203.4725093003362,None,1203.9786392999813,None,1203.9786392999813,None,f,0.4195288000628352,1203.9786392999813,None,0.4195288000628352,,,74 Aloud,001,2022_Nov_10_1508,ProdSingRedoBetween,2021.2.3,59.37695763656419,
,,,,115,0,115,0,,,,,,,,,,,,,,,,,,,,,,1207.8794838003814,None,,,,,,,,,,,,,,,,,state,140,116,aloud,new,null,1204.9436315000057,None,1204.9436315000057,None,6,2.0384194999933243,1204.9436315000057,None,2.0384194999933243,1207.0189233003184,None,1207.5292667001486,None,1207.5292667001486,None,r,0.3329708995297551,1207.5292667001486,None,0.3329708995297551,,,74 Aloud,001,2022_Nov_10_1508,ProdSingRedoBetween,2021.2.3,59.37695763656419,
,,,,116,0,116,0,,,,,,,,,,,,,,,,,,,,,,1211.2004549996927,None,,,,,,,,,,,,,,,,,birth,113,117,aloud,new,null,1208.3936657002196,None,1208.3936657002196,None,5,1.652760699391365,1208.3936657002196,None,1.652760699391365,1210.0670314999297,None,1210.5822184998542,None,1210.5822184998542,None,f,0.5921082003042102,1210.5822184998542,None,0.5921082003042102,,,74 Aloud,001,2022_Nov_10_1508,ProdSingRedoBetween,2021.2.3,59.37695763656419,
,,,,117,0,117,0,,,,,,,,,,,,,,,,,,,,,,1214.9373081997037,None,,,,,,,,,,,,,,,,,surprise,29,118,aloud,old,blue,1211.7022321000695,None,1211.7022321000695,None,6,1.96789709944278,1211.7022321000695,None,1.96789709944278,1213.703130800277,None,1214.203665100038,None,1214.203665100038,None,r,0.7066569002345204,1214.203665100038,None,0.7066569002345204,,,74 Aloud,001,2022_Nov_10_1508,ProdSingRedoBetween,2021.2.3,59.37695763656419,
,,,,118,0,118,0,,,,,,,,,,,,,,,,,,,,,,1218.6746258996427,None,,,,,,,,,,,,,,,,,fashion,86,119,aloud,old,red,1215.4391147000715,None,1215.4391147000715,None,1,2.3430188996717334,1215.4391147000715,None,2.3430188996717334,1217.8081753998995,None,1218.3225373998284,None,1218.3225373998284,None,f,0.32356820069253445,1218.3225373998284,None,0.32356820069253445,,,74 Aloud,001,2022_Nov_10_1508,ProdSingRedoBetween,2021.2.3,59.37695763656419,
,,,,119,0,119,0,,,,,,,,,,,,,,,,,,,,,,1221.793580999598,None,,,,,,,,,,,,,,,,,reading,90,120,aloud,new,null,1219.1899565998465,None,1219.1899565998465,None,3,1.648586199618876,1219.1899565998465,None,1.648586199618876,1220.8618772998452,None,1221.3762921001762,None,1221.3762921001762,None,f,0.3979741996154189,1221.3762921001762,None,0.3979741996154189,,,74 Aloud,001,2022_Nov_10_1508,ProdSingRedoBetween,2021.2.3,59.37695763656419,
,,,,120,0,120,0,,,,,,,,,,,,,,,,,,,,,,1224.4136306997389,None,,,,,,,,,,,,,,,,,guard,28,121,aloud,old,yellow,1222.2956261998042,None,1222.2956261998042,None,6,1.2705124001950026,1222.2956261998042,None,1.2705124001950026,1223.6072909999639,None,1224.1140802996233,None,1224.1140802996233,None,r,0.2760247001424432,1224.1140802996233,None,0.2760247001424432,,,74 Aloud,001,2022_Nov_10_1508,ProdSingRedoBetween,2021.2.3,59.37695763656419,
,,,,121,0,121,0,,,,,,,,,,,,,,,,,,,,,,1227.1161756003276,None,,,,,,,,,,,,,,,,,generation,40,122,aloud,old,blue,1224.932848399505,None,1224.932848399505,None,6,1.2732129003852606,1224.932848399505,None,1.2732129003852606,1226.2328145997599,None,1226.7482660003006,None,1226.7482660003006,None,r,0.33786819968372583,1226.7482660003006,None,0.33786819968372583,,,74 Aloud,001,2022_Nov_10_1508,ProdSingRedoBetween,2021.2.3,59.37695763656419,
,,,,122,0,122,0,,,,,,,,,,,,,,,,,,,,,,1229.3017956996337,None,,,,,,,,,,,,,,,,,marriage,79,123,aloud,old,red,1227.6212422000244,None,1227.6212422000244,None,6,0.7448182003572583,1227.6212422000244,None,0.7448182003572583,1228.3904155995697,None,1228.899954999797,None,1228.899954999797,None,r,0.37820000015199184,1228.899954999797,None,0.37820000015199184,,,74 Aloud,001,2022_Nov_10_1508,ProdSingRedoBetween,2021.2.3,59.37695763656419,
,,,,123,0,123,0,,,,,,,,,,,,,,,,,,,,,,1232.0887080999091,None,,,,,,,,,,,,,,,,,payment,56,124,aloud,old,blue,1229.803949999623,None,1229.803949999623,None,1,1.4421506999060512,1229.803949999623,None,1.4421506999060512,1231.2711418000981,None,1231.7870551999658,None,1231.7870551999658,None,f,0.2750203004106879,1231.7870551999658,None,0.2750203004106879,,,74 Aloud,001,2022_Nov_10_1508,ProdSingRedoBetween,2021.2.3,59.37695763656419,
,,,,124,0,124,0,,,,,,,,,,,,,,,,,,,,,,1234.4747789995745,None,,,,,,,,,,,,,,,,,watch,81,125,aloud,old,red,1232.608396699652,None,1232.608396699652,None,1,1.0537235997617245,1232.608396699652,None,1.0537235997617245,1233.6904044002295,None,1234.2060634996742,None,1234.2060634996742,None,f,0.24814869929105043,1234.2060634996742,None,0.24814869929105043,,,74 Aloud,001,2022_Nov_10_1508,ProdSingRedoBetween,2021.2.3,59.37695763656419,
,,,,125,0,125,0,,,,,,,,,,,,,,,,,,,,,,1236.7592449998483,None,,,,,,,,,,,,,,,,,entrance,100,126,aloud,new,null,1234.990371500142,None,1234.990371500142,None,1,1.0158664006739855,1234.990371500142,None,1.0158664006739855,1236.0271664001048,None,1236.5489211995155,None,1236.5489211995155,None,f,0.17720049992203712,1236.5489211995155,None,0.17720049992203712,,,74 Aloud,001,2022_Nov_10_1508,ProdSingRedoBetween,2021.2.3,59.37695763656419,
,,,,126,0,126,0,,,,,,,,,,,,,,,,,,,,,,1238.7607739996165,None,,,,,,,,,,,,,,,,,taste,118,127,aloud,new,null,1237.2608244996518,None,1237.2608244996518,None,1,0.7454670006409287,1237.2608244996518,None,0.7454670006409287,1238.0289882002398,None,1238.5548253003508,None,1238.5548253003508,None,f,0.18754310067743063,1238.5548253003508,None,0.18754310067743063,,,74 Aloud,001,2022_Nov_10_1508,ProdSingRedoBetween,2021.2.3,59.37695763656419,
,,,,127,0,127,0,,,,,,,,,,,,,,,,,,,,,,1242.4649513000622,None,,,,,,,,,,,,,,,,,goose,26,128,aloud,old,yellow,1239.27054399997,None,1239.27054399997,None,6,1.559519400820136,1239.27054399997,None,1.559519400820136,1240.8482574000955,None,1241.3756016995758,None,1241.3756016995758,None,r,1.0706890001893044,1241.3756016995758,None,1.0706890001893044,,,74 Aloud,001,2022_Nov_10_1508,ProdSingRedoBetween,2021.2.3,59.37695763656419,
,,,,128,0,128,0,,,,,,,,,,,,,,,,,,,,,,1244.6836737999693,None,,,,,,,,,,,,,,,,,notice,122,129,aloud,new,null,1242.9698347002268,None,1242.9698347002268,None,1,0.924146800301969,1242.9698347002268,None,0.924146800301969,1243.9201942998916,None,1244.433639800176,None,1244.433639800176,None,f,0.22894070018082857,1244.433639800176,None,0.22894070018082857,,,74 Aloud,001,2022_Nov_10_1508,ProdSingRedoBetween,2021.2.3,59.37695763656419,
,,,,129,0,129,0,,,,,,,,,,,,,,,,,,,,,,1247.2683306001127,None,,,,,,,,,,,,,,,,,period,95,130,aloud,new,null,1245.1869211997837,None,1245.1869211997837,None,6,1.2030771998688579,1245.1869211997837,None,1.2030771998688579,1246.4205686999485,None,1246.9348643999547,None,1246.9348643999547,None,r,0.3112158998847008,1246.9348643999547,None,0.3112158998847008,,,74 Aloud,001,2022_Nov_10_1508,ProdSingRedoBetween,2021.2.3,59.37695763656419,
,,,,130,0,130,0,,,,,,,,,,,,,,,,,,,,,,1249.705730699934,None,,,,,,,,,,,,,,,,,message,57,131,aloud,old,blue,1247.7714815000072,None,1247.7714815000072,None,6,1.130752599798143,1247.7714815000072,None,1.130752599798143,1248.923065500334,None,1249.4368546996266,None,1249.4368546996266,None,r,0.2493311995640397,1249.4368546996266,None,0.2493311995640397,,,74 Aloud,001,2022_Nov_10_1508,ProdSingRedoBetween,2021.2.3,59.37695763656419,
,,,,131,0,131,0,,,,,,,,,,,,,,,,,,,,,,1251.8077443996444,None,,,,,,,,,,,,,,,,,court,62,132,aloud,old,red,1250.2124694995582,None,1250.2124694995582,None,6,0.8416424999013543,1250.2124694995582,None,0.8416424999013543,1251.0746435001493,None,1251.5990909002721,None,1251.5990909002721,None,r,0.18292650021612644,1251.5990909002721,None,0.18292650021612644,,,74 Aloud,001,2022_Nov_10_1508,ProdSingRedoBetween,2021.2.3,59.37695763656419,
,,,,132,0,132,0,,,,,,,,,,,,,,,,,,,,,,1254.3269116999581,None,,,,,,,,,,,,,,,,,power,102,133,aloud,new,null,1252.3093870999292,None,1252.3093870999292,None,1,0.9526094002649188,1252.3093870999292,None,0.9526094002649188,1253.2936292998493,None,1253.8145190002397,None,1253.8145190002397,None,f,0.49558139964938164,1253.8145190002397,None,0.49558139964938164,,,74 Aloud,001,2022_Nov_10_1508,ProdSingRedoBetween,2021.2.3,59.37695763656419,
,,,,133,0,133,0,,,,,,,,,,,,,,,,,,,,,,1256.6960896998644,None,,,,,,,,,,,,,,,,,oxygen,12,134,aloud,old,yellow,1254.844759600237,None,1254.844759600237,None,6,1.0093572000041604,1254.844759600237,None,1.0093572000041604,1255.879989599809,None,1256.394662999548,None,1256.394662999548,None,r,0.2754922993481159,1256.394662999548,None,0.2754922993481159,,,74 Aloud,001,2022_Nov_10_1508,ProdSingRedoBetween,2021.2.3,59.37695763656419,
,,,,134,0,134,0,,,,,,,,,,,,,,,,,,,,,,1260.4996565002948,None,,,,,,,,,,,,,,,,,defeat,110,135,aloud,new,null,1257.1967530995607,None,1257.1967530995607,None,1,2.569251600652933,1257.1967530995607,None,2.569251600652933,1259.8002199996263,None,1260.3163227001205,None,1260.3163227001205,None,f,0.16201619990170002,1260.3163227001205,None,0.16201619990170002,,,74 Aloud,001,2022_Nov_10_1508,ProdSingRedoBetween,2021.2.3,59.37695763656419,
,,,,135,0,135,0,,,,,,,,,,,,,,,,,,,,,,1262.8517560996115,None,,,,,,,,,,,,,,,,,budget,9,136,aloud,old,yellow,1261.0162433004007,None,1261.0162433004007,None,6,1.0300567001104355,1261.0162433004007,None,1.0300567001104355,1262.0694094002247,None,1262.5906902998686,None,1262.5906902998686,None,r,0.2313572997227311,1262.5906902998686,None,0.2313572997227311,,,74 Aloud,001,2022_Nov_10_1508,ProdSingRedoBetween,2021.2.3,59.37695763656419,
,,,,136,0,136,0,,,,,,,,,,,,,,,,,,,,,,1264.9367286004126,None,,,,,,,,,,,,,,,,,hunger,151,137,aloud,new,null,1263.353018200025,None,1263.353018200025,None,1,0.8454277003183961,1263.353018200025,None,0.8454277003183961,1264.2217726996168,None,1264.736147900112,None,1264.736147900112,None,f,0.17395339999347925,1264.736147900112,None,0.17395339999347925,,,74 Aloud,001,2022_Nov_10_1508,ProdSingRedoBetween,2021.2.3,59.37695763656419,
,,,,137,0,137,0,,,,,,,,,,,,,,,,,,,,,,1267.3733417000622,None,,,,,,,,,,,,,,,,,medicine,64,138,aloud,old,red,1265.4380470998585,None,1265.4380470998585,None,6,1.2082144999876618,1265.4380470998585,None,1.2082144999876618,1266.6732422998175,None,1267.1878591002896,None,1267.1878591002896,None,r,0.16216089949011803,1267.1878591002896,None,0.16216089949011803,,,74 Aloud,001,2022_Nov_10_1508,ProdSingRedoBetween,2021.2.3,59.37695763656419,
,,,,138,0,138,0,,,,,,,,,,,,,,,,,,,,,,1269.7086437996477,None,,,,,,,,,,,,,,,,,short,91,139,aloud,new,null,1267.8750374997035,None,1267.8750374997035,None,6,1.0348802004009485,1267.8750374997035,None,1.0348802004009485,1268.9422674002126,None,1269.457677599974,None,1269.457677599974,None,r,0.22832180000841618,1269.457677599974,None,0.22832180000841618,,,74 Aloud,001,2022_Nov_10_1508,ProdSingRedoBetween,2021.2.3,59.37695763656419,
,,,,139,0,139,0,,,,,,,,,,,,,,,,,,,,,,1272.1934705004096,None,,,,,,,,,,,,,,,,,review,33,140,aloud,old,blue,1270.2100854003802,None,1270.2100854003802,None,1,0.9398401994258165,1270.2100854003802,None,0.9398401994258165,1271.1791487000883,None,1271.6947117997333,None,1271.6947117997333,None,f,0.4712883997708559,1271.6947117997333,None,0.4712883997708559,,,74 Aloud,001,2022_Nov_10_1508,ProdSingRedoBetween,2021.2.3,59.37695763656419,
,,,,140,0,140,0,,,,,,,,,,,,,,,,,,,,,,1274.3968244995922,None,,,,,,,,,,,,,,,,,still,129,141,aloud,new,null,1272.7095344001427,None,1272.7095344001427,None,1,0.968359399586916,1272.7095344001427,None,0.968359399586916,1273.698253000155,None,1274.211440499872,None,1274.211440499872,None,f,0.16255389992147684,1274.211440499872,None,0.16255389992147684,,,74 Aloud,001,2022_Nov_10_1508,ProdSingRedoBetween,2021.2.3,59.37695763656419,
,,,,141,0,141,0,,,,,,,,,,,,,,,,,,,,,,1276.7159444997087,None,,,,,,,,,,,,,,,,,sunset,65,142,aloud,old,red,1274.9152247998863,None,1274.9152247998863,None,6,0.9866869002580643,1274.9152247998863,None,0.9866869002580643,1275.932741499506,None,1276.4551989994943,None,1276.4551989994943,None,r,0.23922729957848787,1276.4551989994943,None,0.23922729957848787,,,74 Aloud,001,2022_Nov_10_1508,ProdSingRedoBetween,2021.2.3,59.37695763656419,
,,,,142,0,142,0,,,,,,,,,,,,,,,,,,,,,,1278.9809477003291,None,,,,,,,,,,,,,,,,,mankind,5,143,aloud,old,yellow,1277.233929099515,None,1277.233929099515,None,6,0.908058900386095,1277.233929099515,None,0.908058900386095,1278.1707723001018,None,1278.6841641003266,None,1278.6841641003266,None,r,0.25799219962209463,1278.6841641003266,None,0.25799219962209463,,,74 Aloud,001,2022_Nov_10_1508,ProdSingRedoBetween,2021.2.3,59.37695763656419,
,,,,143,0,143,0,,,,,,,,,,,,,,,,,,,,,,1281.1696635996923,None,,,,,,,,,,,,,,,,,partner,66,144,aloud,old,red,1279.4857956003398,None,1279.4857956003398,None,6,0.8562040999531746,1279.4857956003398,None,0.8562040999531746,1280.371028999798,None,1280.8857431001961,None,1280.8857431001961,None,r,0.25626839976757765,1280.8857431001961,None,0.25626839976757765,,,74 Aloud,001,2022_Nov_10_1508,ProdSingRedoBetween,2021.2.3,59.37695763656419,
,,,,144,0,144,0,,,,,,,,,,,,,,,,,,,,,,1283.6398631995544,None,,,,,,,,,,,,,,,,,guest,117,145,aloud,new,null,1281.6713386001065,None,1281.6713386001065,None,1,1.1988131999969482,1281.6713386001065,None,1.1988131999969482,1282.8898868001997,None,1283.4043397996575,None,1283.4043397996575,None,f,0.20167249999940395,1283.4043397996575,None,0.20167249999940395,,,74 Aloud,001,2022_Nov_10_1508,ProdSingRedoBetween,2021.2.3,59.37695763656419,
,,,,145,0,145,0,,,,,,,,,,,,,,,,,,,,,,1286.2757120998576,None,,,,,,,,,,,,,,,,,alert,0,146,aloud,old,yellow,1284.1561021003872,None,1284.1561021003872,None,6,1.4258818002417684,1284.1561021003872,None,1.4258818002417684,1285.61016390007,None,1286.1264493996277,None,1286.1264493996277,None,r,0.1278012003749609,1286.1264493996277,None,0.1278012003749609,,,74 Aloud,001,2022_Nov_10_1508,ProdSingRedoBetween,2021.2.3,59.37695763656419,
,,,,146,0,146,0,,,,,,,,,,,,,,,,,,,,,,1288.36380750034,None,,,,,,,,,,,,,,,,,disease,104,147,aloud,new,null,1286.7928847996518,None,1286.7928847996518,None,1,0.7890412006527185,1286.7928847996518,None,0.7890412006527185,1287.6313929995522,None,1288.1270113000646,None,1288.1270113000646,None,f,0.21514939982444048,1288.1270113000646,None,0.21514939982444048,,,74 Aloud,001,2022_Nov_10_1508,ProdSingRedoBetween,2021.2.3,59.37695763656419,
,,,,147,0,147,0,,,,,,,,,,,,,,,,,,,,,,1290.9298785002902,None,,,,,,,,,,,,,,,,,account,47,148,aloud,old,blue,1288.8792669000104,None,1288.8792669000104,None,6,1.278880599886179,1288.8792669000104,None,1.278880599886179,1290.183523199521,None,1290.6943312995136,None,1290.6943312995136,None,r,0.2077930998057127,1290.6943312995136,None,0.2077930998057127,,,74 Aloud,001,2022_Nov_10_1508,ProdSingRedoBetween,2021.2.3,59.37695763656419,
,,,,148,0,148,0,,,,,,,,,,,,,,,,,,,,,,1293.7172122998163,None,,,,,,,,,,,,,,,,,republic,58,149,aloud,old,blue,1291.4476699000224,None,1291.4476699000224,None,1,1.4626065995544195,1291.4476699000224,None,1.4626065995544195,1292.9328813003376,None,1293.4480301998556,None,1293.4480301998556,None,f,0.23800279945135117,1293.4480301998556,None,0.23800279945135117,,,74 Aloud,001,2022_Nov_10_1508,ProdSingRedoBetween,2021.2.3,59.37695763656419,
,,,,149,0,149,0,,,,,,,,,,,,,,,,,,,,,,1296.2170537002385,None,,,,,,,,,,,,,,,,,minute,39,150,aloud,old,blue,1294.2449989998713,None,1294.2449989998713,None,1,1.192921900190413,1294.2449989998713,None,1.192921900190413,1295.4682371998206,None,1295.984301299788,None,1295.984301299788,None,f,0.21415319945663214,1295.984301299788,None,0.21415319945663214,,,74 Aloud,001,2022_Nov_10_1508,ProdSingRedoBetween,2021.2.3,59.37695763656419,
,,,,150,0,150,0,,,,,,,,,,,,,,,,,,,,,,1298.486441399902,None,,,,,,,,,,,,,,,,,universal,74,151,aloud,old,red,1296.7214872995391,None,1296.7214872995391,None,6,1.1084962002933025,1296.7214872995391,None,1.1084962002933025,1297.85582539998,None,1298.3719816002995,None,1298.3719816002995,None,r,0.09790820069611073,1298.3719816002995,None,0.09790820069611073,,,74 Aloud,001,2022_Nov_10_1508,ProdSingRedoBetween,2021.2.3,59.37695763656419,
,,,,151,0,151,0,,,,,,,,,,,,,,,,,,,,,,1302.1077563995495,None,,,,,,,,,,,,,,,,,community,175,152,aloud,new,null,1298.992104999721,None,1298.992104999721,None,1,1.1178099997341633,1298.992104999721,None,1.1178099997341633,1300.1402827994898,None,1300.6580285998061,None,1300.6580285998061,None,r,1.4200643999502063,1300.6580285998061,None,1.4200643999502063,,,74 Aloud,001,2022_Nov_10_1508,ProdSingRedoBetween,2021.2.3,59.37695763656419,
,,,,152,0,152,0,,,,,,,,,,,,,,,,,,,,,,1304.5599130997434,None,,,,,,,,,,,,,,,,,ground,46,153,aloud,old,blue,1302.6082744998857,None,1302.6082744998857,None,1,1.2139561995863914,1302.6082744998857,None,1.2139561995863914,1303.84395890031,None,1304.3585414998233,None,1304.3585414998233,None,f,0.17542320024222136,1304.3585414998233,None,0.17542320024222136,,,74 Aloud,001,2022_Nov_10_1508,ProdSingRedoBetween,2021.2.3,59.37695763656419,
,,,,153,0,153,0,,,,,,,,,,,,,,,,,,,,,,1307.52787599992,None,,,,,,,,,,,,,,,,,employment,21,154,aloud,old,yellow,1305.0727762999013,None,1305.0727762999013,None,6,1.597121300175786,1305.0727762999013,None,1.597121300175786,1306.701394200325,None,1307.2187455995008,None,1307.2187455995008,None,r,0.2831723000854254,1307.2187455995008,None,0.2831723000854254,,,74 Aloud,001,2022_Nov_10_1508,ProdSingRedoBetween,2021.2.3,59.37695763656419,
,,,,154,0,154,0,,,,,,,,,,,,,,,,,,,,,,1309.5985840000212,None,,,,,,,,,,,,,,,,,husband,130,155,aloud,new,null,1308.031494899653,None,1308.031494899653,None,1,0.838352800346911,1308.031494899653,None,0.838352800346911,1308.8997414996848,None,1309.4133756998926,None,1309.4133756998926,None,f,0.15258799958974123,1309.4133756998926,None,0.15258799958974123,,,74 Aloud,001,2022_Nov_10_1508,ProdSingRedoBetween,2021.2.3,59.37695763656419,
,,,,155,0,155,0,,,,,,,,,,,,,,,,,,,,,,1314.1586124999449,None,,,,,,,,,,,,,,,,,company,123,156,aloud,new,null,1310.1165856001899,None,1310.1165856001899,None,6,1.297422599978745,1310.1165856001899,None,1.297422599978745,1311.4340714002028,None,1311.9385299002752,None,1311.9385299002752,None,n,2.187313599511981,1311.9385299002752,None,2.187313599511981,,,74 Aloud,001,2022_Nov_10_1508,ProdSingRedoBetween,2021.2.3,59.37695763656419,
,,,,156,0,156,0,,,,,,,,,,,,,,,,,,,,,,1317.2726112995297,None,,,,,,,,,,,,,,,,,union,73,157,aloud,old,red,1314.668322100304,None,1314.668322100304,None,6,1.7536249998956919,1314.668322100304,None,1.7536249998956919,1316.443144899793,None,1316.9544609999284,None,1316.9544609999284,None,r,0.29970249999314547,1316.9544609999284,None,0.29970249999314547,,,74 Aloud,001,2022_Nov_10_1508,ProdSingRedoBetween,2021.2.3,59.37695763656419,
,,,,157,0,157,0,,,,,,,,,,,,,,,,,,,,,,1319.5416636001319,None,,,,,,,,,,,,,,,,,track,135,158,aloud,new,null,1317.7890133997425,None,1317.7890133997425,None,6,1.0009914999827743,1317.7890133997425,None,1.0009914999827743,1318.8088483000174,None,1319.32392229978,None,1319.32392229978,None,r,0.1859997007995844,1319.32392229978,None,0.1859997007995844,,,74 Aloud,001,2022_Nov_10_1508,ProdSingRedoBetween,2021.2.3,59.37695763656419,
,,,,158,0,158,0,,,,,,,,,,,,,,,,,,,,,,1322.3132549002767,None,,,,,,,,,,,,,,,,,guide,148,159,aloud,new,null,1320.0457758996636,None,1320.0457758996636,None,1,1.0482870005071163,1320.0457758996636,None,1.0482870005071163,1321.1308337999508,None,1321.6560575002804,None,1321.6560575002804,None,f,0.6299390001222491,1321.6560575002804,None,0.6299390001222491,,,74 Aloud,001,2022_Nov_10_1508,ProdSingRedoBetween,2021.2.3,59.37695763656419,
,,,,159,0,159,0,,,,,,,,,,,,,,,,,,,,,,1324.7142923995852,None,,,,,,,,,,,,,,,,,candidate,170,160,aloud,new,null,1322.8380290996283,None,1322.8380290996283,None,1,1.1278269002214074,1322.8380290996283,None,1.1278269002214074,1323.9984794994816,None,1324.529712899588,None,1324.529712899588,None,f,0.15627240017056465,1324.529712899588,None,0.15627240017056465,,,74 Aloud,001,2022_Nov_10_1508,ProdSingRedoBetween,2021.2.3,59.37695763656419,
,,,,160,0,160,0,,,,,,,,,,,,,,,,,,,,,,1327.4668324999511,None,,,,,,,,,,,,,,,,,profession,93,161,aloud,new,null,1325.2348442999646,None,1325.2348442999646,None,6,1.411081399768591,1325.2348442999646,None,1.411081399768591,1326.6693182997406,None,1327.1817161003128,None,1327.1817161003128,None,r,0.25633860006928444,1327.1817161003128,None,0.25633860006928444,,,74 Aloud,001,2022_Nov_10_1508,ProdSingRedoBetween,2021.2.3,59.37695763656419,
,,,,161,0,161,0,,,,,,,,,,,,,,,,,,,,,,1329.7179897995666,None,,,,,,,,,,,,,,,,,blind,80,162,aloud,old,red,1327.9820964997634,None,1327.9820964997634,None,1,0.9357815003022552,1327.9820964997634,None,0.9357815003022552,1328.9515108000487,None,1329.4665733994916,None,1329.4665733994916,None,f,0.23534929938614368,1329.4665733994916,None,0.23534929938614368,,,74 Aloud,001,2022_Nov_10_1508,ProdSingRedoBetween,2021.2.3,59.37695763656419,
,,,,162,0,162,0,,,,,,,,,,,,,,,,,,,,,,1332.703806400299,None,,,,,,,,,,,,,,,,,straight,167,163,aloud,new,null,1330.2206817995757,None,1330.2206817995757,None,6,0.7455492001026869,1330.2206817995757,None,0.7455492001026869,1330.9870130000636,None,1331.5023197000846,None,1331.5023197000846,None,f,1.1757657006382942,1331.5023197000846,None,1.1757657006382942,,,74 Aloud,001,2022_Nov_10_1508,ProdSingRedoBetween,2021.2.3,59.37695763656419,
,,,,163,0,163,0,,,,,,,,,,,,,,,,,,,,,,1335.5075615001842,None,,,,,,,,,,,,,,,,,beginning,30,164,aloud,old,blue,1333.207308399491,None,1333.207308399491,None,6,1.262821400538087,1333.207308399491,None,1.262821400538087,1334.4903571000323,None,1335.0061167003587,None,1335.0061167003587,None,r,0.4717474998906255,1335.0061167003587,None,0.4717474998906255,,,74 Aloud,001,2022_Nov_10_1508,ProdSingRedoBetween,2021.2.3,59.37695763656419,
,,,,164,0,164,0,,,,,,,,,,,,,,,,,,,,,,1337.643242799677,None,,,,,,,,,,,,,,,,,interior,147,165,aloud,new,null,1336.0152078997344,None,1336.0152078997344,None,1,0.8947222996503115,1336.0152078997344,None,0.8947222996503115,1336.942487699911,None,1337.4580296995118,None,1337.4580296995118,None,f,0.15585470013320446,1337.4580296995118,None,0.15585470013320446,,,74 Aloud,001,2022_Nov_10_1508,ProdSingRedoBetween,2021.2.3,59.37695763656419,
,,,,165,0,165,0,,,,,,,,,,,,,,,,,,,,,,1339.6283387001604,None,,,,,,,,,,,,,,,,,raise,138,166,aloud,new,null,1338.176299800165,None,1338.176299800165,None,1,0.6696173008531332,1338.176299800165,None,0.6696173008531332,1338.8805184997618,None,1339.3939111996442,None,1339.3939111996442,None,f,0.20415000058710575,1339.3939111996442,None,0.20415000058710575,,,74 Aloud,001,2022_Nov_10_1508,ProdSingRedoBetween,2021.2.3,59.37695763656419,
,,,,166,0,166,0,,,,,,,,,,,,,,,,,,,,,,1343.9509421996772,None,,,,,,,,,,,,,,,,,write,149,167,aloud,new,null,1340.129141099751,None,1340.129141099751,None,1,2.9807102996855974,1340.129141099751,None,2.9807102996855974,1343.1399189997464,None,1343.6474097995088,None,1343.6474097995088,None,f,0.2705383999273181,1343.6474097995088,None,0.2705383999273181,,,74 Aloud,001,2022_Nov_10_1508,ProdSingRedoBetween,2021.2.3,59.37695763656419,
,,,,167,0,167,0,,,,,,,,,,,,,,,,,,,,,,1346.303518699482,None,,,,,,,,,,,,,,,,,agreement,108,168,aloud,new,null,1344.4669546997175,None,1344.4669546997175,None,1,1.0990162007510662,1344.4669546997175,None,1.0990162007510662,1345.5857566995546,None,1346.1028615999967,None,1346.1028615999967,None,f,0.15928080026060343,1346.1028615999967,None,0.15928080026060343,,,74 Aloud,001,2022_Nov_10_1508,ProdSingRedoBetween,2021.2.3,59.37695763656419,
,,,,168,0,168,0,,,,,,,,,,,,,,,,,,,,,,1348.9377010995522,None,,,,,,,,,,,,,,,,,junior,10,169,aloud,old,yellow,1346.8241312997416,None,1346.8241312997416,None,6,1.3420989997684956,1346.8241312997416,None,1.3420989997684956,1348.1872004996985,None,1348.702098899521,None,1348.702098899521,None,r,0.20791119989007711,1348.702098899521,None,0.20791119989007711,,,74 Aloud,001,2022_Nov_10_1508,ProdSingRedoBetween,2021.2.3,59.37695763656419,
,,,,169,0,169,0,,,,,,,,,,,,,,,,,,,,,,1351.0230813995004,None,,,,,,,,,,,,,,,,,bureau,11,170,aloud,old,yellow,1349.4387034997344,None,1349.4387034997344,None,1,0.7593922996893525,1349.4387034997344,None,0.7593922996893525,1350.2288435995579,None,1350.7408416997641,None,1350.7408416997641,None,f,0.24914570059627295,1350.7408416997641,None,0.24914570059627295,,,74 Aloud,001,2022_Nov_10_1508,ProdSingRedoBetween,2021.2.3,59.37695763656419,
,,,,170,0,170,0,,,,,,,,,,,,,,,,,,,,,,1354.6083904001862,None,,,,,,,,,,,,,,,,,author,45,171,aloud,old,blue,1351.5272741997615,None,1351.5272741997615,None,6,2.3267056001350284,1351.5272741997615,None,2.3267056001350284,1353.8835102999583,None,1354.394545700401,None,1354.394545700401,None,r,0.18737239949405193,1354.394545700401,None,0.18737239949405193,,,74 Aloud,001,2022_Nov_10_1508,ProdSingRedoBetween,2021.2.3,59.37695763656419,
,,,,171,0,171,0,,,,,,,,,,,,,,,,,,,,,,1356.8172719003633,None,,,,,,,,,,,,,,,,,research,131,172,aloud,new,null,1355.1101853996515,None,1355.1101853996515,None,1,0.9036902999505401,1355.1101853996515,None,0.9036902999505401,1356.0454778997228,None,1356.5558931995183,None,1356.5558931995183,None,f,0.22600449994206429,1356.5558931995183,None,0.22600449994206429,,,74 Aloud,001,2022_Nov_10_1508,ProdSingRedoBetween,2021.2.3,59.37695763656419,
,,,,172,0,172,0,,,,,,,,,,,,,,,,,,,,,,1359.1465280996636,None,,,,,,,,,,,,,,,,,interview,92,173,aloud,new,null,1357.3345678001642,None,1357.3345678001642,None,6,1.0394968995824456,1357.3345678001642,None,1.0394968995824456,1358.3988367998973,None,1358.914557499811,None,1358.914557499811,None,r,0.20323329977691174,1358.914557499811,None,0.20323329977691174,,,74 Aloud,001,2022_Nov_10_1508,ProdSingRedoBetween,2021.2.3,59.37695763656419,
,,,,173,0,173,0,,,,,,,,,,,,,,,,,,,,,,1361.452397399582,None,,,,,,,,,,,,,,,,,election,126,174,aloud,new,null,1359.6564724994823,None,1359.6564724994823,None,1,1.0773767000064254,1359.6564724994823,None,1.0773767000064254,1360.7664296999574,None,1361.2688277000561,None,1361.2688277000561,None,f,0.15305559989064932,1361.2688277000561,None,0.15305559989064932,,,74 Aloud,001,2022_Nov_10_1508,ProdSingRedoBetween,2021.2.3,59.37695763656419,
,,,,174,0,174,0,,,,,,,,,,,,,,,,,,,,,,1365.003905300051,None,,,,,,,,,,,,,,,,,capital,60,175,aloud,old,red,1361.9670869996771,None,1361.9670869996771,None,6,1.6149770999327302,1361.9670869996771,None,1.6149770999327302,1363.6037432001904,None,1364.12748210039,None,1364.12748210039,None,r,0.8464292995631695,1364.12748210039,None,0.8464292995631695,,,74 Aloud,001,2022_Nov_10_1508,ProdSingRedoBetween,2021.2.3,59.37695763656419,
,,,,175,0,175,0,,,,,,,,,,,,,,,,,,,,,,1368.940060899593,None,,,,,,,,,,,,,,,,,orchestra,71,176,aloud,old,red,1365.5210573002696,None,1365.5210573002696,None,1,0.7887356001883745,1365.5210573002696,None,0.7887356001883745,1366.3400020999834,None,1366.8571201004088,None,1366.8571201004088,None,r,2.0607262002304196,1366.8571201004088,None,2.0607262002304196,,,74 Aloud,001,2022_Nov_10_1508,ProdSingRedoBetween,2021.2.3,59.37695763656419,
