StudyLoop.thisRepN,StudyLoop.thisTrialN,StudyLoop.thisN,StudyLoop.thisIndex,TestLoop.thisRepN,TestLoop.thisTrialN,TestLoop.thisN,TestLoop.thisIndex,textCondition.started,textCondition.stopped,keyCondition.keys,keyCondition.rt,keyCondition.started,keyCondition.stopped,Condition,textWelcome.started,textWelcome.stopped,keyWelcome.keys,keyWelcome.rt,keyWelcome.started,keyWelcome.stopped,textAloud.started,textAloud.stopped,textSilent.started,textSilent.stopped,textSing.started,textSing.stopped,conditional_text.started,conditional_text.stopped,textBlank500.started,textBlank500.stopped,study_word,study_num,study_order,study_type,word_color,textStudy.started,textStudy.stopped,keyStudy.keys,keyStudy.started,keyStudy.stopped,textTestInstructions.started,textTestInstructions.stopped,key_resp_3.keys,key_resp_3.rt,key_resp_3.started,key_resp_3.stopped,test_word,test_num,test_order,test_condition,old_new_test,test_word_original_color,textConf.started,textConf.stopped,textConfScale.started,textConfScale.stopped,keyConf.keys,keyConf.rt,keyConf.started,keyConf.stopped,confidence response time,textTestBlank.started,textTestBlank.stopped,textRKN.started,textRKN.stopped,textRKNScale.started,textRKNScale.stopped,keyRKN.keys,keyRKN.rt,keyRKN.started,keyRKN.stopped,rkn response time,textEnd.started,textEnd.stopped,participant,session,date,expName,psychopyVersion,frameRate,
,,,,,,,,34.43044780008495,None,c,1.8307301001623273,34.43044780008495,None,,,,,,,,,,,,,,,,,,,,,,,,,,,,,,,,,,,,,,,,,,,,,,,,,,,,,,,,,,,,,,75Sing,001,2022_Nov_14_1217,ProdSingRedoBetween,2021.2.3,59.87464643368695,
,,,,,,,,,,,,,,SingTest,36.32259800005704,None,space,187.8830631999299,36.32259800005704,None,,,,,,,,,,,,,,,,,,,,,,,,,,,,,,,,,,,,,,,,,,,,,,,,,,,,,,,75Sing,001,2022_Nov_14_1217,ProdSingRedoBetween,2021.2.3,59.87464643368695,
0,0,0,0,,,,,,,,,,,,,,,,,,36.32259800005704,None,36.32259800005704,None,36.32259800005704,None,36.32259800005704,None,226.74559800047427,None,threat,33,1,sing,blue,224.7378153000027,None,None,224.7378153000027,None,,,,,,,,,,,,,,,,,,,,,,,,,,,,,,,,,,,75Sing,001,2022_Nov_14_1217,ProdSingRedoBetween,2021.2.3,59.87464643368695,
1,0,1,0,,,,,,,,,,,,,,,,,,,,,,,,,,229.26466320082545,None,community,19,2,sing,yellow,227.24888730049133,None,None,227.24888730049133,None,,,,,,,,,,,,,,,,,,,,,,,,,,,,,,,,,,,75Sing,001,2022_Nov_14_1217,ProdSingRedoBetween,2021.2.3,59.87464643368695,
2,0,2,0,,,,,,,,,,,,,,,,,,,,,,,,,,231.784002000466,None,defeat,52,3,sing,blue,229.7683938005939,None,None,229.7683938005939,None,,,,,,,,,,,,,,,,,,,,,,,,,,,,,,,,,,,75Sing,001,2022_Nov_14_1217,ProdSingRedoBetween,2021.2.3,59.87464643368695,
3,0,3,0,,,,,,,,,,,,,,,,,,,,,,,,,,234.2860876005143,None,quarter,69,4,sing,red,232.28505000006407,None,None,232.28505000006407,None,,,,,,,,,,,,,,,,,,,,,,,,,,,,,,,,,,,75Sing,001,2022_Nov_14_1217,ProdSingRedoBetween,2021.2.3,59.87464643368695,
4,0,4,0,,,,,,,,,,,,,,,,,,,,,,,,,,236.80558020062745,None,people,18,5,sing,yellow,234.79399600066245,None,None,234.79399600066245,None,,,,,,,,,,,,,,,,,,,,,,,,,,,,,,,,,,,75Sing,001,2022_Nov_14_1217,ProdSingRedoBetween,2021.2.3,59.87464643368695,
5,0,5,0,,,,,,,,,,,,,,,,,,,,,,,,,,239.32475960068405,None,government,81,6,sing,red,237.31276080012321,None,None,237.31276080012321,None,,,,,,,,,,,,,,,,,,,,,,,,,,,,,,,,,,,75Sing,001,2022_Nov_14_1217,ProdSingRedoBetween,2021.2.3,59.87464643368695,
6,0,6,0,,,,,,,,,,,,,,,,,,,,,,,,,,241.82735200040042,None,suspect,87,7,sing,red,239.82583280000836,None,None,239.82583280000836,None,,,,,,,,,,,,,,,,,,,,,,,,,,,,,,,,,,,75Sing,001,2022_Nov_14_1217,ProdSingRedoBetween,2021.2.3,59.87464643368695,
7,0,7,0,,,,,,,,,,,,,,,,,,,,,,,,,,244.34642400033772,None,death,72,8,sing,red,242.33217110019177,None,None,242.33217110019177,None,,,,,,,,,,,,,,,,,,,,,,,,,,,,,,,,,,,75Sing,001,2022_Nov_14_1217,ProdSingRedoBetween,2021.2.3,59.87464643368695,
8,0,8,0,,,,,,,,,,,,,,,,,,,,,,,,,,246.84900570008904,None,level,26,9,sing,yellow,244.84693950042129,None,None,244.84693950042129,None,,,,,,,,,,,,,,,,,,,,,,,,,,,,,,,,,,,75Sing,001,2022_Nov_14_1217,ProdSingRedoBetween,2021.2.3,59.87464643368695,
9,0,9,0,,,,,,,,,,,,,,,,,,,,,,,,,,249.36816429998726,None,emergency,24,10,sing,yellow,247.35348410066217,None,None,247.35348410066217,None,,,,,,,,,,,,,,,,,,,,,,,,,,,,,,,,,,,75Sing,001,2022_Nov_14_1217,ProdSingRedoBetween,2021.2.3,59.87464643368695,
10,0,10,0,,,,,,,,,,,,,,,,,,,,,,,,,,251.87066020071507,None,touch,67,11,sing,red,249.86858670040965,None,None,249.86858670040965,None,,,,,,,,,,,,,,,,,,,,,,,,,,,,,,,,,,,75Sing,001,2022_Nov_14_1217,ProdSingRedoBetween,2021.2.3,59.87464643368695,
11,0,11,0,,,,,,,,,,,,,,,,,,,,,,,,,,254.38981450069696,None,prime,57,12,sing,blue,252.37710930034518,None,None,252.37710930034518,None,,,,,,,,,,,,,,,,,,,,,,,,,,,,,,,,,,,75Sing,001,2022_Nov_14_1217,ProdSingRedoBetween,2021.2.3,59.87464643368695,
12,0,12,0,,,,,,,,,,,,,,,,,,,,,,,,,,256.9088867008686,None,sunset,78,13,sing,red,254.8946578009054,None,None,254.8946578009054,None,,,,,,,,,,,,,,,,,,,,,,,,,,,,,,,,,,,75Sing,001,2022_Nov_14_1217,ProdSingRedoBetween,2021.2.3,59.87464643368695,
13,0,13,0,,,,,,,,,,,,,,,,,,,,,,,,,,259.41148010082543,None,research,64,14,sing,red,257.40958179999143,None,None,257.40958179999143,None,,,,,,,,,,,,,,,,,,,,,,,,,,,,,,,,,,,75Sing,001,2022_Nov_14_1217,ProdSingRedoBetween,2021.2.3,59.87464643368695,
14,0,14,0,,,,,,,,,,,,,,,,,,,,,,,,,,261.91395360045135,None,clear,16,15,sing,yellow,259.91264980006963,None,None,259.91264980006963,None,,,,,,,,,,,,,,,,,,,,,,,,,,,,,,,,,,,75Sing,001,2022_Nov_14_1217,ProdSingRedoBetween,2021.2.3,59.87464643368695,
15,0,15,0,,,,,,,,,,,,,,,,,,,,,,,,,,264.43327920045704,None,gesture,14,16,sing,yellow,262.4215385001153,None,None,262.4215385001153,None,,,,,,,,,,,,,,,,,,,,,,,,,,,,,,,,,,,75Sing,001,2022_Nov_14_1217,ProdSingRedoBetween,2021.2.3,59.87464643368695,
16,0,16,0,,,,,,,,,,,,,,,,,,,,,,,,,,266.93568830005825,None,scene,85,17,sing,red,264.9336116006598,None,None,264.9336116006598,None,,,,,,,,,,,,,,,,,,,,,,,,,,,,,,,,,,,75Sing,001,2022_Nov_14_1217,ProdSingRedoBetween,2021.2.3,59.87464643368695,
17,0,17,0,,,,,,,,,,,,,,,,,,,,,,,,,,269.4381953002885,None,principal,46,18,sing,blue,267.43618050031364,None,None,267.43618050031364,None,,,,,,,,,,,,,,,,,,,,,,,,,,,,,,,,,,,75Sing,001,2022_Nov_14_1217,ProdSingRedoBetween,2021.2.3,59.87464643368695,
18,0,18,0,,,,,,,,,,,,,,,,,,,,,,,,,,271.9405764006078,None,phrase,4,19,sing,yellow,269.9408584004268,None,None,269.9408584004268,None,,,,,,,,,,,,,,,,,,,,,,,,,,,,,,,,,,,75Sing,001,2022_Nov_14_1217,ProdSingRedoBetween,2021.2.3,59.87464643368695,
19,0,19,0,,,,,,,,,,,,,,,,,,,,,,,,,,274.4431910002604,None,raise,48,20,sing,blue,272.44215900078416,None,None,272.44215900078416,None,,,,,,,,,,,,,,,,,,,,,,,,,,,,,,,,,,,75Sing,001,2022_Nov_14_1217,ProdSingRedoBetween,2021.2.3,59.87464643368695,
20,0,20,0,,,,,,,,,,,,,,,,,,,,,,,,,,276.96248510014266,None,character,42,21,sing,blue,274.94820020068437,None,None,274.94820020068437,None,,,,,,,,,,,,,,,,,,,,,,,,,,,,,,,,,,,75Sing,001,2022_Nov_14_1217,ProdSingRedoBetween,2021.2.3,59.87464643368695,
21,0,21,0,,,,,,,,,,,,,,,,,,,,,,,,,,279.46493240073323,None,brilliant,89,22,sing,red,277.46281640045345,None,None,277.46281640045345,None,,,,,,,,,,,,,,,,,,,,,,,,,,,,,,,,,,,75Sing,001,2022_Nov_14_1217,ProdSingRedoBetween,2021.2.3,59.87464643368695,
22,0,22,0,,,,,,,,,,,,,,,,,,,,,,,,,,281.9674257002771,None,collection,40,23,sing,blue,279.96528260037303,None,None,279.96528260037303,None,,,,,,,,,,,,,,,,,,,,,,,,,,,,,,,,,,,75Sing,001,2022_Nov_14_1217,ProdSingRedoBetween,2021.2.3,59.87464643368695,
23,0,23,0,,,,,,,,,,,,,,,,,,,,,,,,,,284.48643940035254,None,strain,44,24,sing,blue,282.4715893007815,None,None,282.4715893007815,None,,,,,,,,,,,,,,,,,,,,,,,,,,,,,,,,,,,75Sing,001,2022_Nov_14_1217,ProdSingRedoBetween,2021.2.3,59.87464643368695,
24,0,24,0,,,,,,,,,,,,,,,,,,,,,,,,,,286.98902020044625,None,drove,50,25,sing,blue,284.9869736004621,None,None,284.9869736004621,None,,,,,,,,,,,,,,,,,,,,,,,,,,,,,,,,,,,75Sing,001,2022_Nov_14_1217,ProdSingRedoBetween,2021.2.3,59.87464643368695,
25,0,25,0,,,,,,,,,,,,,,,,,,,,,,,,,,289.4915932007134,None,length,60,26,sing,red,287.49191390071064,None,None,287.49191390071064,None,,,,,,,,,,,,,,,,,,,,,,,,,,,,,,,,,,,75Sing,001,2022_Nov_14_1217,ProdSingRedoBetween,2021.2.3,59.87464643368695,
26,0,26,0,,,,,,,,,,,,,,,,,,,,,,,,,,292.0104893008247,None,split,31,27,sing,blue,289.9975550007075,None,None,289.9975550007075,None,,,,,,,,,,,,,,,,,,,,,,,,,,,,,,,,,,,75Sing,001,2022_Nov_14_1217,ProdSingRedoBetween,2021.2.3,59.87464643368695,
27,0,27,0,,,,,,,,,,,,,,,,,,,,,,,,,,294.51311000064015,None,error,54,28,sing,blue,292.5108541008085,None,None,292.5108541008085,None,,,,,,,,,,,,,,,,,,,,,,,,,,,,,,,,,,,75Sing,001,2022_Nov_14_1217,ProdSingRedoBetween,2021.2.3,59.87464643368695,
28,0,28,0,,,,,,,,,,,,,,,,,,,,,,,,,,297.0323109002784,None,junior,86,29,sing,red,295.0229160999879,None,None,295.0229160999879,None,,,,,,,,,,,,,,,,,,,,,,,,,,,,,,,,,,,75Sing,001,2022_Nov_14_1217,ProdSingRedoBetween,2021.2.3,59.87464643368695,
29,0,29,0,,,,,,,,,,,,,,,,,,,,,,,,,,299.53489980008453,None,suggestion,68,30,sing,red,297.5330501003191,None,None,297.5330501003191,None,,,,,,,,,,,,,,,,,,,,,,,,,,,,,,,,,,,75Sing,001,2022_Nov_14_1217,ProdSingRedoBetween,2021.2.3,59.87464643368695,
30,0,30,0,,,,,,,,,,,,,,,,,,,,,,,,,,302.03702970035374,None,finish,2,31,sing,yellow,300.0354187004268,None,None,300.0354187004268,None,,,,,,,,,,,,,,,,,,,,,,,,,,,,,,,,,,,75Sing,001,2022_Nov_14_1217,ProdSingRedoBetween,2021.2.3,59.87464643368695,
31,0,31,0,,,,,,,,,,,,,,,,,,,,,,,,,,304.5400407006964,None,bright,71,32,sing,red,302.53755910042673,None,None,302.53755910042673,None,,,,,,,,,,,,,,,,,,,,,,,,,,,,,,,,,,,75Sing,001,2022_Nov_14_1217,ProdSingRedoBetween,2021.2.3,59.87464643368695,
32,0,32,0,,,,,,,,,,,,,,,,,,,,,,,,,,307.0420580999926,None,reach,32,33,sing,blue,305.04030590038747,None,None,305.04030590038747,None,,,,,,,,,,,,,,,,,,,,,,,,,,,,,,,,,,,75Sing,001,2022_Nov_14_1217,ProdSingRedoBetween,2021.2.3,59.87464643368695,
33,0,33,0,,,,,,,,,,,,,,,,,,,,,,,,,,309.54455150011927,None,whole,37,34,sing,blue,307.5424402002245,None,None,307.5424402002245,None,,,,,,,,,,,,,,,,,,,,,,,,,,,,,,,,,,,75Sing,001,2022_Nov_14_1217,ProdSingRedoBetween,2021.2.3,59.87464643368695,
34,0,34,0,,,,,,,,,,,,,,,,,,,,,,,,,,312.04714050050825,None,surprise,55,35,sing,blue,310.0451940000057,None,None,310.0451940000057,None,,,,,,,,,,,,,,,,,,,,,,,,,,,,,,,,,,,75Sing,001,2022_Nov_14_1217,ProdSingRedoBetween,2021.2.3,59.87464643368695,
35,0,35,0,,,,,,,,,,,,,,,,,,,,,,,,,,314.549771300517,None,fashion,43,36,sing,blue,312.5476082004607,None,None,312.5476082004607,None,,,,,,,,,,,,,,,,,,,,,,,,,,,,,,,,,,,75Sing,001,2022_Nov_14_1217,ProdSingRedoBetween,2021.2.3,59.87464643368695,
36,0,36,0,,,,,,,,,,,,,,,,,,,,,,,,,,317.0524083003402,None,grade,59,37,sing,yellow,315.05038410052657,None,None,315.05038410052657,None,,,,,,,,,,,,,,,,,,,,,,,,,,,,,,,,,,,75Sing,001,2022_Nov_14_1217,ProdSingRedoBetween,2021.2.3,59.87464643368695,
37,0,37,0,,,,,,,,,,,,,,,,,,,,,,,,,,319.5548192001879,None,quiet,15,38,sing,yellow,317.55240450054407,None,None,317.55240450054407,None,,,,,,,,,,,,,,,,,,,,,,,,,,,,,,,,,,,75Sing,001,2022_Nov_14_1217,ProdSingRedoBetween,2021.2.3,59.87464643368695,
38,0,38,0,,,,,,,,,,,,,,,,,,,,,,,,,,322.05701940041035,None,broke,80,39,sing,red,320.05505630001426,None,None,320.05505630001426,None,,,,,,,,,,,,,,,,,,,,,,,,,,,,,,,,,,,75Sing,001,2022_Nov_14_1217,ProdSingRedoBetween,2021.2.3,59.87464643368695,
39,0,39,0,,,,,,,,,,,,,,,,,,,,,,,,,,324.55945640057325,None,place,47,40,sing,blue,322.55844390019774,None,None,322.55844390019774,None,,,,,,,,,,,,,,,,,,,,,,,,,,,,,,,,,,,75Sing,001,2022_Nov_14_1217,ProdSingRedoBetween,2021.2.3,59.87464643368695,
40,0,40,0,,,,,,,,,,,,,,,,,,,,,,,,,,327.0621865000576,None,property,21,41,sing,yellow,325.06256460025907,None,None,325.06256460025907,None,,,,,,,,,,,,,,,,,,,,,,,,,,,,,,,,,,,75Sing,001,2022_Nov_14_1217,ProdSingRedoBetween,2021.2.3,59.87464643368695,
41,0,41,0,,,,,,,,,,,,,,,,,,,,,,,,,,329.56443440075964,None,tough,7,42,sing,yellow,327.5627552000806,None,None,327.5627552000806,None,,,,,,,,,,,,,,,,,,,,,,,,,,,,,,,,,,,75Sing,001,2022_Nov_14_1217,ProdSingRedoBetween,2021.2.3,59.87464643368695,
42,0,42,0,,,,,,,,,,,,,,,,,,,,,,,,,,332.0839650006965,None,spoke,79,43,sing,red,330.0731273004785,None,None,330.0731273004785,None,,,,,,,,,,,,,,,,,,,,,,,,,,,,,,,,,,,75Sing,001,2022_Nov_14_1217,ProdSingRedoBetween,2021.2.3,59.87464643368695,
43,0,43,0,,,,,,,,,,,,,,,,,,,,,,,,,,334.5864741001278,None,question,10,44,sing,yellow,332.58430220000446,None,None,332.58430220000446,None,,,,,,,,,,,,,,,,,,,,,,,,,,,,,,,,,,,75Sing,001,2022_Nov_14_1217,ProdSingRedoBetween,2021.2.3,59.87464643368695,
44,0,44,0,,,,,,,,,,,,,,,,,,,,,,,,,,337.10567160043865,None,instrument,63,45,sing,red,335.10635060071945,None,None,335.10635060071945,None,,,,,,,,,,,,,,,,,,,,,,,,,,,,,,,,,,,75Sing,001,2022_Nov_14_1217,ProdSingRedoBetween,2021.2.3,59.87464643368695,
45,0,45,0,,,,,,,,,,,,,,,,,,,,,,,,,,339.6078112004325,None,century,70,46,sing,red,337.60749640036374,None,None,337.60749640036374,None,,,,,,,,,,,,,,,,,,,,,,,,,,,,,,,,,,,75Sing,001,2022_Nov_14_1217,ProdSingRedoBetween,2021.2.3,59.87464643368695,
46,0,46,0,,,,,,,,,,,,,,,,,,,,,,,,,,342.12708120048046,None,month,77,47,sing,red,340.1119224000722,None,None,340.1119224000722,None,,,,,,,,,,,,,,,,,,,,,,,,,,,,,,,,,,,75Sing,001,2022_Nov_14_1217,ProdSingRedoBetween,2021.2.3,59.87464643368695,
47,0,47,0,,,,,,,,,,,,,,,,,,,,,,,,,,344.63017300050706,None,range,39,48,sing,blue,342.6276032002643,None,None,342.6276032002643,None,,,,,,,,,,,,,,,,,,,,,,,,,,,,,,,,,,,75Sing,001,2022_Nov_14_1217,ProdSingRedoBetween,2021.2.3,59.87464643368695,
48,0,48,0,,,,,,,,,,,,,,,,,,,,,,,,,,347.13211710006,None,salary,13,49,sing,yellow,345.1299931006506,None,None,345.1299931006506,None,,,,,,,,,,,,,,,,,,,,,,,,,,,,,,,,,,,75Sing,001,2022_Nov_14_1217,ProdSingRedoBetween,2021.2.3,59.87464643368695,
49,0,49,0,,,,,,,,,,,,,,,,,,,,,,,,,,349.63465690054,None,couch,5,50,sing,yellow,347.6327647008002,None,None,347.6327647008002,None,,,,,,,,,,,,,,,,,,,,,,,,,,,,,,,,,,,75Sing,001,2022_Nov_14_1217,ProdSingRedoBetween,2021.2.3,59.87464643368695,
50,0,50,0,,,,,,,,,,,,,,,,,,,,,,,,,,352.1536446008831,None,color,1,51,sing,yellow,350.13871880061924,None,None,350.13871880061924,None,,,,,,,,,,,,,,,,,,,,,,,,,,,,,,,,,,,75Sing,001,2022_Nov_14_1217,ProdSingRedoBetween,2021.2.3,59.87464643368695,
51,0,51,0,,,,,,,,,,,,,,,,,,,,,,,,,,354.65647980012,None,entrance,23,52,sing,yellow,352.65420510061085,None,None,352.65420510061085,None,,,,,,,,,,,,,,,,,,,,,,,,,,,,,,,,,,,75Sing,001,2022_Nov_14_1217,ProdSingRedoBetween,2021.2.3,59.87464643368695,
52,0,52,0,,,,,,,,,,,,,,,,,,,,,,,,,,357.1590247005224,None,contract,34,53,sing,blue,355.1578596001491,None,None,355.1578596001491,None,,,,,,,,,,,,,,,,,,,,,,,,,,,,,,,,,,,75Sing,001,2022_Nov_14_1217,ProdSingRedoBetween,2021.2.3,59.87464643368695,
53,0,53,0,,,,,,,,,,,,,,,,,,,,,,,,,,359.678244500421,None,rough,0,54,sing,yellow,357.66314540058374,None,None,357.66314540058374,None,,,,,,,,,,,,,,,,,,,,,,,,,,,,,,,,,,,75Sing,001,2022_Nov_14_1217,ProdSingRedoBetween,2021.2.3,59.87464643368695,
54,0,54,0,,,,,,,,,,,,,,,,,,,,,,,,,,362.1806035004556,None,article,58,55,sing,blue,360.1786339003593,None,None,360.1786339003593,None,,,,,,,,,,,,,,,,,,,,,,,,,,,,,,,,,,,75Sing,001,2022_Nov_14_1217,ProdSingRedoBetween,2021.2.3,59.87464643368695,
55,0,55,0,,,,,,,,,,,,,,,,,,,,,,,,,,364.69958620052785,None,signal,12,56,sing,yellow,362.6843918003142,None,None,362.6843918003142,None,,,,,,,,,,,,,,,,,,,,,,,,,,,,,,,,,,,75Sing,001,2022_Nov_14_1217,ProdSingRedoBetween,2021.2.3,59.87464643368695,
56,0,56,0,,,,,,,,,,,,,,,,,,,,,,,,,,367.20234870072454,None,pattern,76,57,sing,red,365.2001910004765,None,None,365.2001910004765,None,,,,,,,,,,,,,,,,,,,,,,,,,,,,,,,,,,,75Sing,001,2022_Nov_14_1217,ProdSingRedoBetween,2021.2.3,59.87464643368695,
57,0,57,0,,,,,,,,,,,,,,,,,,,,,,,,,,369.70479490049183,None,trial,6,58,sing,yellow,367.70278000086546,None,None,367.70278000086546,None,,,,,,,,,,,,,,,,,,,,,,,,,,,,,,,,,,,75Sing,001,2022_Nov_14_1217,ProdSingRedoBetween,2021.2.3,59.87464643368695,
58,0,58,0,,,,,,,,,,,,,,,,,,,,,,,,,,372.2073109000921,None,region,83,59,sing,red,370.20526510011405,None,None,370.20526510011405,None,,,,,,,,,,,,,,,,,,,,,,,,,,,,,,,,,,,75Sing,001,2022_Nov_14_1217,ProdSingRedoBetween,2021.2.3,59.87464643368695,
59,0,59,0,,,,,,,,,,,,,,,,,,,,,,,,,,374.7265235008672,None,safety,51,60,sing,blue,372.7130407001823,None,None,372.7130407001823,None,,,,,,,,,,,,,,,,,,,,,,,,,,,,,,,,,,,75Sing,001,2022_Nov_14_1217,ProdSingRedoBetween,2021.2.3,59.87464643368695,
60,0,60,0,,,,,,,,,,,,,,,,,,,,,,,,,,377.22871810011566,None,general,20,61,sing,yellow,375.2278244001791,None,None,375.2278244001791,None,,,,,,,,,,,,,,,,,,,,,,,,,,,,,,,,,,,75Sing,001,2022_Nov_14_1217,ProdSingRedoBetween,2021.2.3,59.87464643368695,
61,0,61,0,,,,,,,,,,,,,,,,,,,,,,,,,,379.7481566006318,None,space,49,62,sing,blue,377.7347013000399,None,None,377.7347013000399,None,,,,,,,,,,,,,,,,,,,,,,,,,,,,,,,,,,,75Sing,001,2022_Nov_14_1217,ProdSingRedoBetween,2021.2.3,59.87464643368695,
62,0,62,0,,,,,,,,,,,,,,,,,,,,,,,,,,382.2506920006126,None,nation,65,63,sing,red,380.24860920012,None,None,380.24860920012,None,,,,,,,,,,,,,,,,,,,,,,,,,,,,,,,,,,,75Sing,001,2022_Nov_14_1217,ProdSingRedoBetween,2021.2.3,59.87464643368695,
63,0,63,0,,,,,,,,,,,,,,,,,,,,,,,,,,384.7533220006153,None,relation,75,64,sing,red,382.7511027008295,None,None,382.7511027008295,None,,,,,,,,,,,,,,,,,,,,,,,,,,,,,,,,,,,75Sing,001,2022_Nov_14_1217,ProdSingRedoBetween,2021.2.3,59.87464643368695,
64,0,64,0,,,,,,,,,,,,,,,,,,,,,,,,,,387.2556808004156,None,enemy,11,65,sing,yellow,385.254772300832,None,None,385.254772300832,None,,,,,,,,,,,,,,,,,,,,,,,,,,,,,,,,,,,75Sing,001,2022_Nov_14_1217,ProdSingRedoBetween,2021.2.3,59.87464643368695,
65,0,65,0,,,,,,,,,,,,,,,,,,,,,,,,,,389.7744663003832,None,institute,8,66,sing,yellow,387.7600438008085,None,None,387.7600438008085,None,,,,,,,,,,,,,,,,,,,,,,,,,,,,,,,,,,,75Sing,001,2022_Nov_14_1217,ProdSingRedoBetween,2021.2.3,59.87464643368695,
66,0,66,0,,,,,,,,,,,,,,,,,,,,,,,,,,392.27713450044394,None,congress,30,67,sing,blue,390.2750509008765,None,None,390.2750509008765,None,,,,,,,,,,,,,,,,,,,,,,,,,,,,,,,,,,,75Sing,001,2022_Nov_14_1217,ProdSingRedoBetween,2021.2.3,59.87464643368695,
67,0,67,0,,,,,,,,,,,,,,,,,,,,,,,,,,394.7965352004394,None,division,62,68,sing,red,392.78505580034107,None,None,392.78505580034107,None,,,,,,,,,,,,,,,,,,,,,,,,,,,,,,,,,,,75Sing,001,2022_Nov_14_1217,ProdSingRedoBetween,2021.2.3,59.87464643368695,
68,0,68,0,,,,,,,,,,,,,,,,,,,,,,,,,,397.29905310086906,None,damage,45,69,sing,blue,395.2969949003309,None,None,395.2969949003309,None,,,,,,,,,,,,,,,,,,,,,,,,,,,,,,,,,,,75Sing,001,2022_Nov_14_1217,ProdSingRedoBetween,2021.2.3,59.87464643368695,
69,0,69,0,,,,,,,,,,,,,,,,,,,,,,,,,,399.8180477004498,None,oxygen,27,70,sing,yellow,397.80513480026275,None,None,397.80513480026275,None,,,,,,,,,,,,,,,,,,,,,,,,,,,,,,,,,,,75Sing,001,2022_Nov_14_1217,ProdSingRedoBetween,2021.2.3,59.87464643368695,
70,0,70,0,,,,,,,,,,,,,,,,,,,,,,,,,,402.32062310073525,None,taste,84,71,sing,red,400.3206898001954,None,None,400.3206898001954,None,,,,,,,,,,,,,,,,,,,,,,,,,,,,,,,,,,,75Sing,001,2022_Nov_14_1217,ProdSingRedoBetween,2021.2.3,59.87464643368695,
71,0,71,0,,,,,,,,,,,,,,,,,,,,,,,,,,404.82321730069816,None,power,61,72,sing,red,402.8228861000389,None,None,402.8228861000389,None,,,,,,,,,,,,,,,,,,,,,,,,,,,,,,,,,,,75Sing,001,2022_Nov_14_1217,ProdSingRedoBetween,2021.2.3,59.87464643368695,
72,0,72,0,,,,,,,,,,,,,,,,,,,,,,,,,,407.32562040071934,None,danger,9,73,sing,yellow,405.32398040033877,None,None,405.32398040033877,None,,,,,,,,,,,,,,,,,,,,,,,,,,,,,,,,,,,75Sing,001,2022_Nov_14_1217,ProdSingRedoBetween,2021.2.3,59.87464643368695,
73,0,73,0,,,,,,,,,,,,,,,,,,,,,,,,,,409.8282211003825,None,fight,74,74,sing,red,407.82612560037524,None,None,407.82612560037524,None,,,,,,,,,,,,,,,,,,,,,,,,,,,,,,,,,,,75Sing,001,2022_Nov_14_1217,ProdSingRedoBetween,2021.2.3,59.87464643368695,
74,0,74,0,,,,,,,,,,,,,,,,,,,,,,,,,,412.3470335006714,None,present,66,75,sing,red,410.3334423005581,None,None,410.3334423005581,None,,,,,,,,,,,,,,,,,,,,,,,,,,,,,,,,,,,75Sing,001,2022_Nov_14_1217,ProdSingRedoBetween,2021.2.3,59.87464643368695,
75,0,75,0,,,,,,,,,,,,,,,,,,,,,,,,,,414.8496557008475,None,worker,35,76,sing,blue,412.8476466005668,None,None,412.8476466005668,None,,,,,,,,,,,,,,,,,,,,,,,,,,,,,,,,,,,75Sing,001,2022_Nov_14_1217,ProdSingRedoBetween,2021.2.3,59.87464643368695,
76,0,76,0,,,,,,,,,,,,,,,,,,,,,,,,,,417.3522934000939,None,interior,82,77,sing,red,415.3529786001891,None,None,415.3529786001891,None,,,,,,,,,,,,,,,,,,,,,,,,,,,,,,,,,,,75Sing,001,2022_Nov_14_1217,ProdSingRedoBetween,2021.2.3,59.87464643368695,
77,0,77,0,,,,,,,,,,,,,,,,,,,,,,,,,,419.8547747004777,None,figure,22,78,sing,yellow,417.85450700018555,None,None,417.85450700018555,None,,,,,,,,,,,,,,,,,,,,,,,,,,,,,,,,,,,75Sing,001,2022_Nov_14_1217,ProdSingRedoBetween,2021.2.3,59.87464643368695,
78,0,78,0,,,,,,,,,,,,,,,,,,,,,,,,,,422.35733470041305,None,match,28,79,sing,yellow,420.35530020017177,None,None,420.35530020017177,None,,,,,,,,,,,,,,,,,,,,,,,,,,,,,,,,,,,75Sing,001,2022_Nov_14_1217,ProdSingRedoBetween,2021.2.3,59.87464643368695,
79,0,79,0,,,,,,,,,,,,,,,,,,,,,,,,,,424.87661760021,None,volume,3,80,sing,yellow,422.8614843999967,None,None,422.8614843999967,None,,,,,,,,,,,,,,,,,,,,,,,,,,,,,,,,,,,75Sing,001,2022_Nov_14_1217,ProdSingRedoBetween,2021.2.3,59.87464643368695,
80,0,80,0,,,,,,,,,,,,,,,,,,,,,,,,,,427.39569979999214,None,comfort,88,81,sing,red,425.3876352002844,None,None,425.3876352002844,None,,,,,,,,,,,,,,,,,,,,,,,,,,,,,,,,,,,75Sing,001,2022_Nov_14_1217,ProdSingRedoBetween,2021.2.3,59.87464643368695,
81,0,81,0,,,,,,,,,,,,,,,,,,,,,,,,,,429.91487070079893,None,victory,36,82,sing,blue,427.89998760074377,None,None,427.89998760074377,None,,,,,,,,,,,,,,,,,,,,,,,,,,,,,,,,,,,75Sing,001,2022_Nov_14_1217,ProdSingRedoBetween,2021.2.3,59.87464643368695,
82,0,82,0,,,,,,,,,,,,,,,,,,,,,,,,,,432.4170695003122,None,appeal,17,83,sing,yellow,430.4154739007354,None,None,430.4154739007354,None,,,,,,,,,,,,,,,,,,,,,,,,,,,,,,,,,,,75Sing,001,2022_Nov_14_1217,ProdSingRedoBetween,2021.2.3,59.87464643368695,
83,0,83,0,,,,,,,,,,,,,,,,,,,,,,,,,,434.9198655001819,None,throw,56,84,sing,blue,432.9184430008754,None,None,432.9184430008754,None,,,,,,,,,,,,,,,,,,,,,,,,,,,,,,,,,,,75Sing,001,2022_Nov_14_1217,ProdSingRedoBetween,2021.2.3,59.87464643368695,
84,0,84,0,,,,,,,,,,,,,,,,,,,,,,,,,,437.4223546003923,None,surface,25,85,sing,yellow,435.4229246005416,None,None,435.4229246005416,None,,,,,,,,,,,,,,,,,,,,,,,,,,,,,,,,,,,75Sing,001,2022_Nov_14_1217,ProdSingRedoBetween,2021.2.3,59.87464643368695,
85,0,85,0,,,,,,,,,,,,,,,,,,,,,,,,,,439.92486660089344,None,track,38,86,sing,blue,437.92291030008346,None,None,437.92291030008346,None,,,,,,,,,,,,,,,,,,,,,,,,,,,,,,,,,,,75Sing,001,2022_Nov_14_1217,ProdSingRedoBetween,2021.2.3,59.87464643368695,
86,0,86,0,,,,,,,,,,,,,,,,,,,,,,,,,,442.4272032007575,None,measure,53,87,sing,blue,440.42625860031694,None,None,440.42625860031694,None,,,,,,,,,,,,,,,,,,,,,,,,,,,,,,,,,,,75Sing,001,2022_Nov_14_1217,ProdSingRedoBetween,2021.2.3,59.87464643368695,
87,0,87,0,,,,,,,,,,,,,,,,,,,,,,,,,,444.9297196008265,None,reading,29,88,sing,blue,442.9280589008704,None,None,442.9280589008704,None,,,,,,,,,,,,,,,,,,,,,,,,,,,,,,,,,,,75Sing,001,2022_Nov_14_1217,ProdSingRedoBetween,2021.2.3,59.87464643368695,
88,0,88,0,,,,,,,,,,,,,,,,,,,,,,,,,,447.44902840070426,None,report,73,89,sing,red,445.4508217005059,None,None,445.4508217005059,None,,,,,,,,,,,,,,,,,,,,,,,,,,,,,,,,,,,75Sing,001,2022_Nov_14_1217,ProdSingRedoBetween,2021.2.3,59.87464643368695,
89,0,89,0,,,,,,,,,,,,,,,,,,,,,,,,,,449.9515232006088,None,breath,41,90,sing,blue,447.94951890036464,None,None,447.94951890036464,None,,,,,,,,,,,,,,,,,,,,,,,,,,,,,,,,,,,75Sing,001,2022_Nov_14_1217,ProdSingRedoBetween,2021.2.3,59.87464643368695,
,,,,,,,,,,,,,,,,,,,,,,,,,,,,,,,,,,,,,,,,,450.45217070076615,None,k,57.02529430016875,450.45217070076615,None,,,,,,,,,,,,,,,,,,,,,,,,,,,,,75Sing,001,2022_Nov_14_1217,ProdSingRedoBetween,2021.2.3,59.87464643368695,
,,,,0,0,0,0,,,,,,,,,,,,,,,,,,,,,,526.6991373002529,None,,,,,,,,,,,,,,,,,match,28,1,sing,old,yellow,508.0045522004366,None,508.0045522004366,None,6,17.120507800020278,508.0045522004366,None,17.120507800020278,525.1436378005892,None,525.6432617008686,None,525.6432617008686,None,r,1.0338392006233335,525.6432617008686,None,1.0338392006233335,,,75Sing,001,2022_Nov_14_1217,ProdSingRedoBetween,2021.2.3,59.87464643368695,
,,,,1,0,1,0,,,,,,,,,,,,,,,,,,,,,,535.5032232003286,None,,,,,,,,,,,,,,,,,whole,37,2,sing,old,blue,527.2116457000375,None,527.2116457000375,None,6,3.737597000785172,527.2116457000375,None,3.737597000785172,530.9665656005964,None,531.465972000733,None,531.465972000733,None,r,4.011100799776614,531.465972000733,None,4.011100799776614,,,75Sing,001,2022_Nov_14_1217,ProdSingRedoBetween,2021.2.3,59.87464643368695,
,,,,2,0,2,0,,,,,,,,,,,,,,,,,,,,,,538.8745299000293,None,,,,,,,,,,,,,,,,,research,64,3,sing,old,red,536.0089831007645,None,536.0089831007645,None,6,1.7481770003214478,536.0089831007645,None,1.7481770003214478,537.7780465008691,None,538.2956252004951,None,538.2956252004951,None,r,0.5575482994318008,538.2956252004951,None,0.5575482994318008,,,75Sing,001,2022_Nov_14_1217,ProdSingRedoBetween,2021.2.3,59.87464643368695,
,,,,3,0,3,0,,,,,,,,,,,,,,,,,,,,,,543.4947687005624,None,,,,,,,,,,,,,,,,,speech,168,4,sing,new,null,539.3763713007793,None,539.3763713007793,None,1,2.316728100180626,539.3763713007793,None,2.316728100180626,541.7123089004308,None,542.2270351005718,None,542.2270351005718,None,n,1.242124100215733,542.2270351005718,None,1.242124100215733,,,75Sing,001,2022_Nov_14_1217,ProdSingRedoBetween,2021.2.3,59.87464643368695,
,,,,4,0,4,0,,,,,,,,,,,,,,,,,,,,,,546.998223000206,None,,,,,,,,,,,,,,,,,worker,35,5,sing,old,blue,544.0059453006834,None,544.0059453006834,None,6,2.3434949005022645,544.0059453006834,None,2.3434949005022645,546.3887868002057,None,546.8982928004116,None,546.8982928004116,None,r,0.07480020076036453,546.8982928004116,None,0.07480020076036453,,,75Sing,001,2022_Nov_14_1217,ProdSingRedoBetween,2021.2.3,59.87464643368695,
,,,,5,0,5,0,,,,,,,,,,,,,,,,,,,,,,551.4027275005355,None,,,,,,,,,,,,,,,,,column,128,6,sing,new,null,547.4988073008135,None,547.4988073008135,None,1,1.5862680999562144,547.4988073008135,None,1.5862680999562144,549.1001385999843,None,549.6009459001943,None,549.6009459001943,None,n,1.780153799802065,549.6009459001943,None,1.780153799802065,,,75Sing,001,2022_Nov_14_1217,ProdSingRedoBetween,2021.2.3,59.87464643368695,
,,,,6,0,6,0,,,,,,,,,,,,,,,,,,,,,,554.2719556000084,None,,,,,,,,,,,,,,,,,literature,146,7,sing,new,null,551.919261300005,None,551.919261300005,None,1,1.3978114007040858,551.919261300005,None,1.3978114007040858,553.3385052001104,None,553.8386489003897,None,553.8386489003897,None,n,0.4064813004806638,553.8386489003897,None,0.4064813004806638,,,75Sing,001,2022_Nov_14_1217,ProdSingRedoBetween,2021.2.3,59.87464643368695,
,,,,7,0,7,0,,,,,,,,,,,,,,,,,,,,,,556.9248116007075,None,,,,,,,,,,,,,,,,,concern,148,8,sing,new,null,554.7744167000055,None,554.7744167000055,None,1,1.2067224001511931,554.7744167000055,None,1.2067224001511931,556.0070120003074,None,556.5077569000423,None,556.5077569000423,None,n,0.3933758996427059,556.5077569000423,None,0.3933758996427059,,,75Sing,001,2022_Nov_14_1217,ProdSingRedoBetween,2021.2.3,59.87464643368695,
,,,,8,0,8,0,,,,,,,,,,,,,,,,,,,,,,559.7609914001077,None,,,,,,,,,,,,,,,,,prime,57,9,sing,old,blue,557.4262598007917,None,557.4262598007917,None,6,1.394815900363028,557.4262598007917,None,1.394815900363028,558.8432536004111,None,559.3439134005457,None,559.3439134005457,None,r,0.3971843998879194,559.3439134005457,None,0.3971843998879194,,,75Sing,001,2022_Nov_14_1217,ProdSingRedoBetween,2021.2.3,59.87464643368695,
,,,,9,0,9,0,,,,,,,,,,,,,,,,,,,,,,563.5313801001757,None,,,,,,,,,,,,,,,,,damage,45,10,sing,old,blue,560.2714050002396,None,560.2714050002396,None,6,1.717693299986422,560.2714050002396,None,1.717693299986422,562.0149732008576,None,562.535660000518,None,562.535660000518,None,r,0.9733562003821135,562.535660000518,None,0.9733562003821135,,,75Sing,001,2022_Nov_14_1217,ProdSingRedoBetween,2021.2.3,59.87464643368695,
,,,,10,0,10,0,,,,,,,,,,,,,,,,,,,,,,566.6843969002366,None,,,,,,,,,,,,,,,,,grade,59,11,sing,old,yellow,564.0342017002404,None,564.0342017002404,None,6,1.5630115997046232,564.0342017002404,None,1.5630115997046232,565.616877800785,None,566.1172997001559,None,566.1172997001559,None,r,0.5517287002876401,566.1172997001559,None,0.5517287002876401,,,75Sing,001,2022_Nov_14_1217,ProdSingRedoBetween,2021.2.3,59.87464643368695,
,,,,11,0,11,0,,,,,,,,,,,,,,,,,,,,,,569.5207023005933,None,,,,,,,,,,,,,,,,,character,42,12,sing,old,blue,567.1950448006392,None,567.1950448006392,None,6,1.410046000033617,567.1950448006392,None,1.410046000033617,568.6214915001765,None,569.1371260005981,None,569.1371260005981,None,r,0.35589979961514473,569.1371260005981,None,0.35589979961514473,,,75Sing,001,2022_Nov_14_1217,ProdSingRedoBetween,2021.2.3,59.87464643368695,
,,,,12,0,12,0,,,,,,,,,,,,,,,,,,,,,,573.0408719005063,None,,,,,,,,,,,,,,,,,scene,85,13,sing,old,red,570.0328531004488,None,570.0328531004488,None,2,1.7401837995275855,570.0328531004488,None,1.7401837995275855,571.7894148007035,None,572.291705599986,None,572.291705599986,None,n,0.7213331004604697,572.291705599986,None,0.7213331004604697,,,75Sing,001,2022_Nov_14_1217,ProdSingRedoBetween,2021.2.3,59.87464643368695,
,,,,13,0,13,0,,,,,,,,,,,,,,,,,,,,,,578.2294446006417,None,,,,,,,,,,,,,,,,,signal,12,14,sing,old,yellow,573.5451492005959,None,573.5451492005959,None,5,3.1638994002714753,573.5451492005959,None,3.1638994002714753,576.7307271007448,None,577.2451720004901,None,577.2451720004901,None,f,0.9678555000573397,577.2451720004901,None,0.9678555000573397,,,75Sing,001,2022_Nov_14_1217,ProdSingRedoBetween,2021.2.3,59.87464643368695,
,,,,14,0,14,0,,,,,,,,,,,,,,,,,,,,,,581.6494637001306,None,,,,,,,,,,,,,,,,,union,153,15,sing,new,null,578.7299844007939,None,578.7299844007939,None,1,2.051038700155914,578.7299844007939,None,2.051038700155914,580.7996016005054,None,581.300063200295,None,581.300063200295,None,n,0.32909270003437996,581.300063200295,None,0.32909270003437996,,,75Sing,001,2022_Nov_14_1217,ProdSingRedoBetween,2021.2.3,59.87464643368695,
,,,,15,0,15,0,,,,,,,,,,,,,,,,,,,,,,584.8859759001061,None,,,,,,,,,,,,,,,,,broke,80,16,sing,old,red,582.1498688003048,None,582.1498688003048,None,6,1.6872557001188397,582.1498688003048,None,1.6872557001188397,583.8683152003214,None,584.3689729003236,None,584.3689729003236,None,r,0.5000224998220801,584.3689729003236,None,0.5000224998220801,,,75Sing,001,2022_Nov_14_1217,ProdSingRedoBetween,2021.2.3,59.87464643368695,
,,,,16,0,16,0,,,,,,,,,,,,,,,,,,,,,,588.7899882001802,None,,,,,,,,,,,,,,,,,series,136,17,sing,new,null,585.3884998001158,None,585.3884998001158,None,4,2.6085441997274756,585.3884998001158,None,2.6085441997274756,588.026269200258,None,588.539708700031,None,588.539708700031,None,f,0.2255204999819398,588.539708700031,None,0.2255204999819398,,,75Sing,001,2022_Nov_14_1217,ProdSingRedoBetween,2021.2.3,59.87464643368695,
,,,,17,0,17,0,,,,,,,,,,,,,,,,,,,,,,591.8596455007792,None,,,,,,,,,,,,,,,,,build,125,18,sing,new,null,589.2988608004525,None,589.2988608004525,None,1,1.6741671999916434,589.2988608004525,None,1.6741671999916434,590.9921437008306,None,591.50022680033,None,591.50022680033,None,n,0.3288350999355316,591.50022680033,None,0.3288350999355316,,,75Sing,001,2022_Nov_14_1217,ProdSingRedoBetween,2021.2.3,59.87464643368695,
,,,,18,0,18,0,,,,,,,,,,,,,,,,,,,,,,595.8231316003948,None,,,,,,,,,,,,,,,,,bright,71,19,sing,old,red,592.3665745006874,None,592.3665745006874,None,6,2.5984253995120525,592.3665745006874,None,2.5984253995120525,594.9967773007229,None,595.4967054007575,None,595.4967054007575,None,r,0.3005009004846215,595.4967054007575,None,0.3005009004846215,,,75Sing,001,2022_Nov_14_1217,ProdSingRedoBetween,2021.2.3,59.87464643368695,
,,,,19,0,19,0,,,,,,,,,,,,,,,,,,,,,,599.450550400652,None,,,,,,,,,,,,,,,,,report,73,20,sing,old,red,596.3535032002255,None,596.3535032002255,None,6,1.7314765993505716,596.3535032002255,None,1.7314765993505716,598.1169168008491,None,598.6163763999939,None,598.6163763999939,None,r,0.8126598997041583,598.6163763999939,None,0.8126598997041583,,,75Sing,001,2022_Nov_14_1217,ProdSingRedoBetween,2021.2.3,59.87464643368695,
,,,,20,0,20,0,,,,,,,,,,,,,,,,,,,,,,601.8599990000948,None,,,,,,,,,,,,,,,,,cross,169,21,sing,new,null,599.9536129003391,None,599.9536129003391,None,1,1.2353547001257539,599.9536129003391,None,1.2353547001257539,601.220884100534,None,601.7391408002004,None,601.7391408002004,None,n,0.09003590047359467,601.7391408002004,None,0.09003590047359467,,,75Sing,001,2022_Nov_14_1217,ProdSingRedoBetween,2021.2.3,59.87464643368695,
,,,,21,0,21,0,,,,,,,,,,,,,,,,,,,,,,604.2053057001904,None,,,,,,,,,,,,,,,,,country,159,22,sing,new,null,602.3703035004437,None,602.3703035004437,None,1,1.1867445996031165,602.3703035004437,None,1.1867445996031165,603.5911594005302,None,604.1052982006222,None,604.1052982006222,None,n,0.08367179986089468,604.1052982006222,None,0.08367179986089468,,,75Sing,001,2022_Nov_14_1217,ProdSingRedoBetween,2021.2.3,59.87464643368695,
,,,,22,0,22,0,,,,,,,,,,,,,,,,,,,,,,607.291763400659,None,,,,,,,,,,,,,,,,,member,171,23,sing,new,null,604.7135915001854,None,604.7135915001854,None,1,0.7473558997735381,604.7135915001854,None,0.7473558997735381,605.4938145000488,None,606.0072766002268,None,606.0072766002268,None,n,1.2537313997745514,606.0072766002268,None,1.2537313997745514,,,75Sing,001,2022_Nov_14_1217,ProdSingRedoBetween,2021.2.3,59.87464643368695,
,,,,23,0,23,0,,,,,,,,,,,,,,,,,,,,,,610.4449349008501,None,,,,,,,,,,,,,,,,,reach,32,24,sing,old,blue,607.7952139005065,None,607.7952139005065,None,4,1.7538013998419046,607.7952139005065,None,1.7538013998419046,609.5780882006511,None,610.0778866000473,None,610.0778866000473,None,f,0.35115049965679646,610.0778866000473,None,0.35115049965679646,,,75Sing,001,2022_Nov_14_1217,ProdSingRedoBetween,2021.2.3,59.87464643368695,
,,,,24,0,24,0,,,,,,,,,,,,,,,,,,,,,,612.9752495000139,None,,,,,,,,,,,,,,,,,republic,157,25,sing,new,null,610.9553653001785,None,610.9553653001785,None,1,1.4575562002137303,610.9553653001785,None,1.4575562002137303,612.4322293000296,None,612.9545585000888,None,612.9545585000888,None,n,0.002671699970960617,612.9545585000888,None,0.002671699970960617,,,75Sing,001,2022_Nov_14_1217,ProdSingRedoBetween,2021.2.3,59.87464643368695,
,,,,25,0,25,0,,,,,,,,,,,,,,,,,,,,,,615.1494883000851,None,,,,,,,,,,,,,,,,,court,142,26,sing,new,null,613.5027734003961,None,613.5027734003961,None,1,0.9983092006295919,613.5027734003961,None,0.9983092006295919,614.5329565005377,None,615.0328626008704,None,615.0328626008704,None,n,0.09222930017858744,615.0328626008704,None,0.09222930017858744,,,75Sing,001,2022_Nov_14_1217,ProdSingRedoBetween,2021.2.3,59.87464643368695,
,,,,26,0,26,0,,,,,,,,,,,,,,,,,,,,,,618.4528689002618,None,,,,,,,,,,,,,,,,,appearance,149,27,sing,new,null,615.650027600117,None,615.650027600117,None,1,1.2029697000980377,615.650027600117,None,1.2029697000980377,616.8712397003546,None,617.385289600119,None,617.385289600119,None,n,1.0516834994778037,617.385289600119,None,1.0516834994778037,,,75Sing,001,2022_Nov_14_1217,ProdSingRedoBetween,2021.2.3,59.87464643368695,
,,,,27,0,27,0,,,,,,,,,,,,,,,,,,,,,,621.2054236000404,None,,,,,,,,,,,,,,,,,skill,118,28,sing,new,null,618.958157800138,None,618.958157800138,None,1,1.078803500160575,618.958157800138,None,1.078803500160575,620.0565735008568,None,620.571897700429,None,620.571897700429,None,n,0.6090169996023178,620.571897700429,None,0.6090169996023178,,,75Sing,001,2022_Nov_14_1217,ProdSingRedoBetween,2021.2.3,59.87464643368695,
,,,,28,0,28,0,,,,,,,,,,,,,,,,,,,,,,624.977627100423,None,,,,,,,,,,,,,,,,,attack,106,29,sing,new,null,621.7145310007036,None,621.7145310007036,None,2,2.122367499396205,621.7145310007036,None,2.122367499396205,623.8597562005743,None,624.3755085002631,None,624.3755085002631,None,n,0.5815640995278955,624.3755085002631,None,0.5815640995278955,,,75Sing,001,2022_Nov_14_1217,ProdSingRedoBetween,2021.2.3,59.87464643368695,
,,,,29,0,29,0,,,,,,,,,,,,,,,,,,,,,,628.2010788004845,None,,,,,,,,,,,,,,,,,guest,154,30,sing,new,null,625.4943561004475,None,625.4943561004475,None,4,1.7905218005180359,625.4943561004475,None,1.7905218005180359,627.3164553008974,None,627.8302104007453,None,627.8302104007453,None,f,0.34269100055098534,627.8302104007453,None,0.34269100055098534,,,75Sing,001,2022_Nov_14_1217,ProdSingRedoBetween,2021.2.3,59.87464643368695,
,,,,30,0,30,0,,,,,,,,,,,,,,,,,,,,,,630.9153991006315,None,,,,,,,,,,,,,,,,,drove,50,31,sing,old,blue,628.714742500335,None,628.714742500335,None,1,1.618257600814104,628.714742500335,None,1.618257600814104,630.3489793008193,None,630.8485988005996,None,630.8485988005996,None,n,0.04436259996145964,630.8485988005996,None,0.04436259996145964,,,75Sing,001,2022_Nov_14_1217,ProdSingRedoBetween,2021.2.3,59.87464643368695,
,,,,31,0,31,0,,,,,,,,,,,,,,,,,,,,,,633.7178373001516,None,,,,,,,,,,,,,,,,,volume,3,32,sing,old,yellow,631.4159120004624,None,631.4159120004624,None,1,0.9169553993269801,631.4159120004624,None,0.9169553993269801,632.3522853003815,None,632.8692379007116,None,632.8692379007116,None,n,0.8236560998484492,632.8692379007116,None,0.8236560998484492,,,75Sing,001,2022_Nov_14_1217,ProdSingRedoBetween,2021.2.3,59.87464643368695,
,,,,32,0,32,0,,,,,,,,,,,,,,,,,,,,,,636.220389300026,None,,,,,,,,,,,,,,,,,management,98,33,sing,new,null,634.2185574006289,None,634.2185574006289,None,1,1.090323599986732,634.2185574006289,None,1.090323599986732,635.3361109001562,None,635.8373550008982,None,635.8373550008982,None,n,0.35960219986736774,635.8373550008982,None,0.35960219986736774,,,75Sing,001,2022_Nov_14_1217,ProdSingRedoBetween,2021.2.3,59.87464643368695,
,,,,33,0,33,0,,,,,,,,,,,,,,,,,,,,,,639.0761435003951,None,,,,,,,,,,,,,,,,,trash,104,34,sing,new,null,636.7209600005299,None,636.7209600005299,None,1,1.155927300453186,636.7209600005299,None,1.155927300453186,637.9101942004636,None,638.4228484006599,None,638.4228484006599,None,n,0.6300289006903768,638.4228484006599,None,0.6300289006903768,,,75Sing,001,2022_Nov_14_1217,ProdSingRedoBetween,2021.2.3,59.87464643368695,
,,,,34,0,34,0,,,,,,,,,,,,,,,,,,,,,,641.1085323002189,None,,,,,,,,,,,,,,,,,travel,131,35,sing,new,null,639.5904446002096,None,639.5904446002096,None,1,0.9265139997005463,639.5904446002096,None,0.9265139997005463,640.5414155004546,None,641.0420094002038,None,641.0420094002038,None,n,0.034853000193834305,641.0420094002038,None,0.034853000193834305,,,75Sing,001,2022_Nov_14_1217,ProdSingRedoBetween,2021.2.3,59.87464643368695,
,,,,35,0,35,0,,,,,,,,,,,,,,,,,,,,,,644.3952645007521,None,,,,,,,,,,,,,,,,,century,70,36,sing,old,red,641.6092404006049,None,641.6092404006049,None,6,1.363634000532329,641.6092404006049,None,1.363634000532329,642.9944643005729,None,643.494654500857,None,643.494654500857,None,r,0.8701419997960329,643.494654500857,None,0.8701419997960329,,,75Sing,001,2022_Nov_14_1217,ProdSingRedoBetween,2021.2.3,59.87464643368695,
,,,,36,0,36,0,,,,,,,,,,,,,,,,,,,,,,647.431785300374,None,,,,,,,,,,,,,,,,,quiet,15,37,sing,old,yellow,644.8957816008478,None,644.8957816008478,None,6,1.8371478002518415,644.8957816008478,None,1.8371478002518415,646.7642014008015,None,647.2649251008406,None,647.2649251008406,None,r,0.14801810029894114,647.2649251008406,None,0.14801810029894114,,,75Sing,001,2022_Nov_14_1217,ProdSingRedoBetween,2021.2.3,59.87464643368695,
,,,,37,0,37,0,,,,,,,,,,,,,,,,,,,,,,651.318786800839,None,,,,,,,,,,,,,,,,,resistance,96,38,sing,new,null,647.932300100103,None,647.932300100103,None,1,1.7046608002856374,647.932300100103,None,1.7046608002856374,649.6691515007988,None,650.1850629001856,None,650.1850629001856,None,n,1.1158498004078865,650.1850629001856,None,1.1158498004078865,,,75Sing,001,2022_Nov_14_1217,ProdSingRedoBetween,2021.2.3,59.87464643368695,
,,,,38,0,38,0,,,,,,,,,,,,,,,,,,,,,,653.5877116005868,None,,,,,,,,,,,,,,,,,relation,75,39,sing,old,red,651.8194861002266,None,651.8194861002266,None,1,1.0013129003345966,651.8194861002266,None,1.0013129003345966,652.841645700857,None,653.3542116004974,None,653.3542116004974,None,n,0.21863429993391037,653.3542116004974,None,0.21863429993391037,,,75Sing,001,2022_Nov_14_1217,ProdSingRedoBetween,2021.2.3,59.87464643368695,
,,,,39,0,39,0,,,,,,,,,,,,,,,,,,,,,,657.0412177005783,None,,,,,,,,,,,,,,,,,guide,116,40,sing,new,null,654.0882843006402,None,654.0882843006402,None,4,2.3965661004185677,654.0882843006402,None,2.3965661004185677,656.5072914008051,None,657.0079928003252,None,657.0079928003252,None,f,0.012855700217187405,657.0079928003252,None,0.012855700217187405,,,75Sing,001,2022_Nov_14_1217,ProdSingRedoBetween,2021.2.3,59.87464643368695,
,,,,40,0,40,0,,,,,,,,,,,,,,,,,,,,,,660.6947013000026,None,,,,,,,,,,,,,,,,,victory,36,41,sing,old,blue,657.5443933000788,None,657.5443933000788,None,1,1.8524220995604992,657.5443933000788,None,1.8524220995604992,659.4338032007217,None,659.9566153008491,None,659.9566153008491,None,n,0.7203601002693176,659.9566153008491,None,0.7203601002693176,,,75Sing,001,2022_Nov_14_1217,ProdSingRedoBetween,2021.2.3,59.87464643368695,
,,,,41,0,41,0,,,,,,,,,,,,,,,,,,,,,,662.9804281005636,None,,,,,,,,,,,,,,,,,collection,40,42,sing,old,blue,661.1954097002745,None,661.1954097002745,None,1,1.2174303997308016,661.1954097002745,None,1.2174303997308016,662.4301195004955,None,662.9304491002113,None,662.9304491002113,None,n,0.03439109958708286,662.9304491002113,None,0.03439109958708286,,,75Sing,001,2022_Nov_14_1217,ProdSingRedoBetween,2021.2.3,59.87464643368695,
,,,,42,0,42,0,,,,,,,,,,,,,,,,,,,,,,667.2846111999825,None,,,,,,,,,,,,,,,,,gesture,14,43,sing,old,yellow,663.4810596005991,None,663.4810596005991,None,6,2.3238078001886606,663.4810596005991,None,2.3238078001886606,665.8345094006509,None,666.3339280001819,None,666.3339280001819,None,f,0.9348400002345443,666.3339280001819,None,0.9348400002345443,,,75Sing,001,2022_Nov_14_1217,ProdSingRedoBetween,2021.2.3,59.87464643368695,
,,,,43,0,43,0,,,,,,,,,,,,,,,,,,,,,,670.087467700243,None,,,,,,,,,,,,,,,,,season,174,44,sing,new,null,667.785395600833,None,667.785395600833,None,1,1.2834622003138065,667.785395600833,None,1.2834622003138065,669.0864562001079,None,669.5868798000738,None,669.5868798000738,None,n,0.4820585995912552,669.5868798000738,None,0.4820585995912552,,,75Sing,001,2022_Nov_14_1217,ProdSingRedoBetween,2021.2.3,59.87464643368695,
,,,,44,0,44,0,,,,,,,,,,,,,,,,,,,,,,673.0572180002928,None,,,,,,,,,,,,,,,,,division,62,45,sing,old,red,670.5899443002418,None,670.5899443002418,None,1,1.3429306000471115,670.5899443002418,None,1.3429306000471115,671.9583053002134,None,672.4733669003472,None,672.4733669003472,None,n,0.5555497007444501,672.4733669003472,None,0.5555497007444501,,,75Sing,001,2022_Nov_14_1217,ProdSingRedoBetween,2021.2.3,59.87464643368695,
,,,,45,0,45,0,,,,,,,,,,,,,,,,,,,,,,677.3782592006028,None,,,,,,,,,,,,,,,,,voice,100,46,sing,new,null,673.5574637008831,None,673.5574637008831,None,4,2.879386999644339,673.5574637008831,None,2.879386999644339,676.4609864000231,None,676.9614467006177,None,676.9614467006177,None,f,0.39546189922839403,676.9614467006177,None,0.39546189922839403,,,75Sing,001,2022_Nov_14_1217,ProdSingRedoBetween,2021.2.3,59.87464643368695,
,,,,46,0,46,0,,,,,,,,,,,,,,,,,,,,,,680.4978235000744,None,,,,,,,,,,,,,,,,,government,81,47,sing,old,red,677.8851965004578,None,677.8851965004578,None,6,1.43176310043782,677.8851965004578,None,1.43176310043782,679.3522250000387,None,679.86418550089,None,679.86418550089,None,r,0.6126894997432828,679.86418550089,None,0.6126894997432828,,,75Sing,001,2022_Nov_14_1217,ProdSingRedoBetween,2021.2.3,59.87464643368695,
,,,,47,0,47,0,,,,,,,,,,,,,,,,,,,,,,683.3676355006173,None,,,,,,,,,,,,,,,,,degree,107,48,sing,new,null,681.0121568003669,None,681.0121568003669,None,1,1.0967445997521281,681.0121568003669,None,1.0967445997521281,682.13407340087,None,682.6333429003134,None,682.6333429003134,None,n,0.7155006006360054,682.6333429003134,None,0.7155006006360054,,,75Sing,001,2022_Nov_14_1217,ProdSingRedoBetween,2021.2.3,59.87464643368695,
,,,,48,0,48,0,,,,,,,,,,,,,,,,,,,,,,686.9378182003275,None,,,,,,,,,,,,,,,,,institute,8,49,sing,old,yellow,683.8728947006166,None,683.8728947006166,None,5,2.1239697001874447,683.8728947006166,None,2.1239697001874447,686.0217643007636,None,686.537433700636,None,686.537433700636,None,f,0.37145220022648573,686.537433700636,None,0.37145220022648573,,,75Sing,001,2022_Nov_14_1217,ProdSingRedoBetween,2021.2.3,59.87464643368695,
,,,,49,0,49,0,,,,,,,,,,,,,,,,,,,,,,689.6736403005198,None,,,,,,,,,,,,,,,,,brilliant,89,50,sing,old,red,687.4389883000404,None,687.4389883000404,None,6,1.525874599814415,687.4389883000404,None,1.525874599814415,688.9905116008595,None,689.4905278002843,None,689.4905278002843,None,f,0.15424649976193905,689.4905278002843,None,0.15424649976193905,,,75Sing,001,2022_Nov_14_1217,ProdSingRedoBetween,2021.2.3,59.87464643368695,
,,,,50,0,50,0,,,,,,,,,,,,,,,,,,,,,,695.5964403999969,None,,,,,,,,,,,,,,,,,month,77,51,sing,old,red,690.1744597004727,None,690.1744597004727,None,1,4.630409799516201,690.1744597004727,None,4.630409799516201,694.8292221007869,None,695.3295766999945,None,695.3295766999945,None,n,0.24327159952372313,695.3295766999945,None,0.24327159952372313,,,75Sing,001,2022_Nov_14_1217,ProdSingRedoBetween,2021.2.3,59.87464643368695,
,,,,51,0,51,0,,,,,,,,,,,,,,,,,,,,,,702.7368838004768,None,,,,,,,,,,,,,,,,,range,39,52,sing,old,blue,696.1000770004466,None,696.1000770004466,None,5,5.824811500497162,696.1000770004466,None,5.824811500497162,701.9641044000164,None,702.4700400000438,None,702.4700400000438,None,f,0.24682119954377413,702.4700400000438,None,0.24682119954377413,,,75Sing,001,2022_Nov_14_1217,ProdSingRedoBetween,2021.2.3,59.87464643368695,
,,,,52,0,52,0,,,,,,,,,,,,,,,,,,,,,,705.3562441002578,None,,,,,,,,,,,,,,,,,split,31,53,sing,old,blue,703.2400213005021,None,703.2400213005021,None,1,1.2128049992024899,703.2400213005021,None,1.2128049992024899,704.4717554003,None,704.9723399002105,None,704.9723399002105,None,n,0.360508699901402,704.9723399002105,None,0.360508699901402,,,75Sing,001,2022_Nov_14_1217,ProdSingRedoBetween,2021.2.3,59.87464643368695,
,,,,53,0,53,0,,,,,,,,,,,,,,,,,,,,,,707.9254305008799,None,,,,,,,,,,,,,,,,,store,115,54,sing,new,null,705.8674155008048,None,705.8674155008048,None,1,1.1533872997388244,705.8674155008048,None,1.1533872997388244,707.0417277002707,None,707.5416099000722,None,707.5416099000722,None,n,0.367192099802196,707.5416099000722,None,0.367192099802196,,,75Sing,001,2022_Nov_14_1217,ProdSingRedoBetween,2021.2.3,59.87464643368695,
,,,,54,0,54,0,,,,,,,,,,,,,,,,,,,,,,710.8616627007723,None,,,,,,,,,,,,,,,,,throw,56,55,sing,old,blue,708.435403900221,None,708.435403900221,None,6,1.409579699859023,708.435403900221,None,1.409579699859023,709.8609227007255,None,710.3612697003409,None,710.3612697003409,None,r,0.48349069990217686,710.3612697003409,None,0.48349069990217686,,,75Sing,001,2022_Nov_14_1217,ProdSingRedoBetween,2021.2.3,59.87464643368695,
,,,,55,0,55,0,,,,,,,,,,,,,,,,,,,,,,713.6310571003705,None,,,,,,,,,,,,,,,,,brief,167,56,sing,new,null,711.3724431004375,None,711.3724431004375,None,1,1.1442745998501778,711.3724431004375,None,1.1442745998501778,712.5522172003984,None,713.0638810005039,None,713.0638810005039,None,n,0.5488940998911858,713.0638810005039,None,0.5488940998911858,,,75Sing,001,2022_Nov_14_1217,ProdSingRedoBetween,2021.2.3,59.87464643368695,
,,,,56,0,56,0,,,,,,,,,,,,,,,,,,,,,,716.3004975002259,None,,,,,,,,,,,,,,,,,welcome,132,57,sing,new,null,714.1403572000563,None,714.1403572000563,None,1,1.0644244998693466,714.1403572000563,None,1.0644244998693466,715.2340315002948,None,715.7332733999938,None,715.7332733999938,None,n,0.5435595000162721,715.7332733999938,None,0.5435595000162721,,,75Sing,001,2022_Nov_14_1217,ProdSingRedoBetween,2021.2.3,59.87464643368695,
,,,,57,0,57,0,,,,,,,,,,,,,,,,,,,,,,720.5546893002465,None,,,,,,,,,,,,,,,,,point,93,58,sing,new,null,716.8066472001374,None,716.8066472001374,None,1,2.7020736997947097,716.8066472001374,None,2.7020736997947097,719.5400236006826,None,720.066612300463,None,720.066612300463,None,n,0.4581358004361391,720.066612300463,None,0.4581358004361391,,,75Sing,001,2022_Nov_14_1217,ProdSingRedoBetween,2021.2.3,59.87464643368695,
,,,,58,0,58,0,,,,,,,,,,,,,,,,,,,,,,723.0914127007127,None,,,,,,,,,,,,,,,,,nature,114,59,sing,new,null,721.0583519004285,None,721.0583519004285,None,1,1.3783773994073272,721.0583519004285,None,1.3783773994073272,722.4578387001529,None,722.9569320008159,None,722.9569320008159,None,n,0.103953099809587,722.9569320008159,None,0.103953099809587,,,75Sing,001,2022_Nov_14_1217,ProdSingRedoBetween,2021.2.3,59.87464643368695,
,,,,59,0,59,0,,,,,,,,,,,,,,,,,,,,,,725.809918500483,None,,,,,,,,,,,,,,,,,phrase,4,60,sing,old,yellow,723.596727900207,None,723.596727900207,None,6,1.2880918001756072,723.596727900207,None,1.2880918001756072,724.9102017004043,None,725.4170844005421,None,725.4170844005421,None,r,0.3717732997611165,725.4170844005421,None,0.3717732997611165,,,75Sing,001,2022_Nov_14_1217,ProdSingRedoBetween,2021.2.3,59.87464643368695,
,,,,60,0,60,0,,,,,,,,,,,,,,,,,,,,,,728.1289014006034,None,,,,,,,,,,,,,,,,,broad,90,61,sing,new,null,726.3145290007815,None,726.3145290007815,None,1,1.1302581997588277,726.3145290007815,None,1.1302581997588277,727.4616832006723,None,727.9621416004375,None,727.9621416004375,None,n,0.14659040048718452,727.9621416004375,None,0.14659040048718452,,,75Sing,001,2022_Nov_14_1217,ProdSingRedoBetween,2021.2.3,59.87464643368695,
,,,,61,0,61,0,,,,,,,,,,,,,,,,,,,,,,730.7147884005681,None,,,,,,,,,,,,,,,,,tough,7,62,sing,old,yellow,728.629484700039,None,728.629484700039,None,6,1.31155230011791,728.629484700039,None,1.31155230011791,729.9682183004916,None,730.4904059004039,None,730.4904059004039,None,r,0.1944062002003193,730.4904059004039,None,0.1944062002003193,,,75Sing,001,2022_Nov_14_1217,ProdSingRedoBetween,2021.2.3,59.87464643368695,
,,,,62,0,62,0,,,,,,,,,,,,,,,,,,,,,,733.3527874005958,None,,,,,,,,,,,,,,,,,threat,33,63,sing,old,blue,731.2168686008081,None,731.2168686008081,None,6,1.396071800030768,731.2168686008081,None,1.396071800030768,732.6476156003773,None,733.1506799003109,None,733.1506799003109,None,r,0.18212070036679506,733.1506799003109,None,0.18212070036679506,,,75Sing,001,2022_Nov_14_1217,ProdSingRedoBetween,2021.2.3,59.87464643368695,
,,,,63,0,63,0,,,,,,,,,,,,,,,,,,,,,,736.5039108004421,None,,,,,,,,,,,,,,,,,colonel,124,64,sing,new,null,733.8807521006092,None,733.8807521006092,None,1,1.4122047992423177,733.8807521006092,None,1.4122047992423177,735.3228887002915,None,735.8366942005232,None,735.8366942005232,None,n,0.6480969004333019,735.8366942005232,None,0.6480969004333019,,,75Sing,001,2022_Nov_14_1217,ProdSingRedoBetween,2021.2.3,59.87464643368695,
,,,,64,0,64,0,,,,,,,,,,,,,,,,,,,,,,739.1065171007067,None,,,,,,,,,,,,,,,,,evidence,99,65,sing,new,null,737.0042885001749,None,737.0042885001749,None,1,1.2725488003343344,737.0042885001749,None,1.2725488003343344,738.3068142002448,None,738.8150871004909,None,738.8150871004909,None,n,0.2698181997984648,738.8150871004909,None,0.2698181997984648,,,75Sing,001,2022_Nov_14_1217,ProdSingRedoBetween,2021.2.3,59.87464643368695,
,,,,65,0,65,0,,,,,,,,,,,,,,,,,,,,,,741.5640491005033,None,,,,,,,,,,,,,,,,,expansion,94,66,sing,new,null,739.6112426007167,None,739.6112426007167,None,1,1.0974208004772663,739.6112426007167,None,1.0974208004772663,740.7270236006007,None,741.2420676006004,None,741.2420676006004,None,n,0.29085859935730696,741.2420676006004,None,0.29085859935730696,,,75Sing,001,2022_Nov_14_1217,ProdSingRedoBetween,2021.2.3,59.87464643368695,
,,,,66,0,66,0,,,,,,,,,,,,,,,,,,,,,,744.0781367002055,None,,,,,,,,,,,,,,,,,distance,102,67,sing,new,null,742.0787807004526,None,742.0787807004526,None,6,1.3419901002198458,742.0787807004526,None,1.3419901002198458,743.445373300463,None,743.9569434002042,None,743.9569434002042,None,r,0.10384669993072748,743.9569434002042,None,0.10384669993072748,,,75Sing,001,2022_Nov_14_1217,ProdSingRedoBetween,2021.2.3,59.87464643368695,
,,,,67,0,67,0,,,,,,,,,,,,,,,,,,,,,,746.8167249001563,None,,,,,,,,,,,,,,,,,primary,141,68,sing,new,null,744.5820418000221,None,744.5820418000221,None,1,1.2947239996865392,744.5820418000221,None,1.2947239996865392,745.8978540999815,None,746.397308900021,None,746.397308900021,None,n,0.3994148001074791,746.397308900021,None,0.3994148001074791,,,75Sing,001,2022_Nov_14_1217,ProdSingRedoBetween,2021.2.3,59.87464643368695,
,,,,68,0,68,0,,,,,,,,,,,,,,,,,,,,,,750.0019008005038,None,,,,,,,,,,,,,,,,,reading,29,69,sing,old,blue,747.3453120002523,None,747.3453120002523,None,1,1.4915108997374773,747.3453120002523,None,1.4915108997374773,748.8659912003204,None,749.3788566002622,None,749.3788566002622,None,n,0.5938971992582083,749.3788566002622,None,0.5938971992582083,,,75Sing,001,2022_Nov_14_1217,ProdSingRedoBetween,2021.2.3,59.87464643368695,
,,,,69,0,69,0,,,,,,,,,,,,,,,,,,,,,,752.4864775007591,None,,,,,,,,,,,,,,,,,object,137,70,sing,new,null,750.5080700004473,None,750.5080700004473,None,1,1.2327503999695182,750.5080700004473,None,1.2327503999695182,751.7701519001275,None,752.2859009001404,None,752.2859009001404,None,n,0.1827991995960474,752.2859009001404,None,0.1827991995960474,,,75Sing,001,2022_Nov_14_1217,ProdSingRedoBetween,2021.2.3,59.87464643368695,
,,,,70,0,70,0,,,,,,,,,,,,,,,,,,,,,,755.9897703006864,None,,,,,,,,,,,,,,,,,audience,164,71,sing,new,null,753.0087378006428,None,753.0087378006428,None,1,2.027987500652671,753.0087378006428,None,2.027987500652671,755.0571969002485,None,755.5563218006864,None,755.5563218006864,None,n,0.41637459956109524,755.5563218006864,None,0.41637459956109524,,,75Sing,001,2022_Nov_14_1217,ProdSingRedoBetween,2021.2.3,59.87464643368695,
,,,,71,0,71,0,,,,,,,,,,,,,,,,,,,,,,758.6625621002167,None,,,,,,,,,,,,,,,,,mankind,129,72,sing,new,null,756.4931592000648,None,756.4931592000648,None,1,1.1835607001557946,756.4931592000648,None,1.1835607001557946,757.6915851002559,None,758.1919903000817,None,758.1919903000817,None,n,0.44461190048605204,758.1919903000817,None,0.44461190048605204,,,75Sing,001,2022_Nov_14_1217,ProdSingRedoBetween,2021.2.3,59.87464643368695,
,,,,72,0,72,0,,,,,,,,,,,,,,,,,,,,,,764.2015207000077,None,,,,,,,,,,,,,,,,,department,147,73,sing,new,null,759.1772967008874,None,759.1772967008874,None,4,4.251439999789,759.1772967008874,None,4.251439999789,763.4489773008972,None,763.9547098008916,None,763.9547098008916,None,f,0.2262754002586007,763.9547098008916,None,0.2262754002586007,,,75Sing,001,2022_Nov_14_1217,ProdSingRedoBetween,2021.2.3,59.87464643368695,
,,,,73,0,73,0,,,,,,,,,,,,,,,,,,,,,,766.618503600359,None,,,,,,,,,,,,,,,,,medicine,119,74,sing,new,null,764.7252899007872,None,764.7252899007872,None,1,1.023489000275731,764.7252899007872,None,1.023489000275731,765.772118200548,None,766.2837392007932,None,766.2837392007932,None,n,0.3130911998450756,766.2837392007932,None,0.3130911998450756,,,75Sing,001,2022_Nov_14_1217,ProdSingRedoBetween,2021.2.3,59.87464643368695,
,,,,74,0,74,0,,,,,,,,,,,,,,,,,,,,,,770.2221076004207,None,,,,,,,,,,,,,,,,,color,1,75,sing,old,yellow,767.126061600633,None,767.126061600633,None,1,2.406664799898863,767.126061600633,None,2.406664799898863,769.5552807999775,None,770.0708533003926,None,770.0708533003926,None,n,0.12594940047711134,770.0708533003926,None,0.12594940047711134,,,75Sing,001,2022_Nov_14_1217,ProdSingRedoBetween,2021.2.3,59.87464643368695,
,,,,75,0,75,0,,,,,,,,,,,,,,,,,,,,,,775.39273550082,None,,,,,,,,,,,,,,,,,track,38,76,sing,old,blue,770.7271996000782,None,770.7271996000782,None,1,3.8456143997609615,770.7271996000782,None,3.8456143997609615,774.6005000006407,None,775.1092808004469,None,775.1092808004469,None,n,0.25542590022087097,775.1092808004469,None,0.25542590022087097,,,75Sing,001,2022_Nov_14_1217,ProdSingRedoBetween,2021.2.3,59.87464643368695,
,,,,76,0,76,0,,,,,,,,,,,,,,,,,,,,,,777.8619617000222,None,,,,,,,,,,,,,,,,,present,66,77,sing,old,red,775.9040683005005,None,775.9040683005005,None,1,1.0847309995442629,775.9040683005005,None,1.0847309995442629,777.0136995008215,None,777.5302791008726,None,777.5302791008726,None,n,0.3066135998815298,777.5302791008726,None,0.3066135998815298,,,75Sing,001,2022_Nov_14_1217,ProdSingRedoBetween,2021.2.3,59.87464643368695,
,,,,77,0,77,0,,,,,,,,,,,,,,,,,,,,,,784.7853767005727,None,,,,,,,,,,,,,,,,,error,54,78,sing,old,blue,778.365172800608,None,778.365172800608,None,1,5.56747779995203,778.365172800608,None,5.56747779995203,783.9512723004445,None,784.4546921001747,None,784.4546921001747,None,n,0.3101514996960759,784.4546921001747,None,0.3101514996960759,,,75Sing,001,2022_Nov_14_1217,ProdSingRedoBetween,2021.2.3,59.87464643368695,
,,,,78,0,78,0,,,,,,,,,,,,,,,,,,,,,,788.0886890003458,None,,,,,,,,,,,,,,,,,sunset,78,79,sing,old,red,785.2929142005742,None,785.2929142005742,None,6,1.951706700026989,785.2929142005742,None,1.951706700026989,787.2726798001677,None,787.7770369006321,None,787.7770369006321,None,f,0.2917179996147752,787.7770369006321,None,0.2917179996147752,,,75Sing,001,2022_Nov_14_1217,ProdSingRedoBetween,2021.2.3,59.87464643368695,
,,,,79,0,79,0,,,,,,,,,,,,,,,,,,,,,,792.8935188008472,None,,,,,,,,,,,,,,,,,science,133,80,sing,new,null,788.5903762001544,None,788.5903762001544,None,1,3.0542540000751615,788.5903762001544,None,3.0542540000751615,791.6785645000637,None,792.1961627006531,None,792.1961627006531,None,n,0.6804953999817371,792.1961627006531,None,0.6804953999817371,,,75Sing,001,2022_Nov_14_1217,ProdSingRedoBetween,2021.2.3,59.87464643368695,
,,,,80,0,80,0,,,,,,,,,,,,,,,,,,,,,,805.1556741008535,None,,,,,,,,,,,,,,,,,defeat,52,81,sing,old,blue,793.4056996004656,None,793.4056996004656,None,6,10.974988600239158,793.4056996004656,None,10.974988600239158,804.4106313008815,None,804.9222191004083,None,804.9222191004083,None,r,0.20247710030525923,804.9222191004083,None,0.20247710030525923,,,75Sing,001,2022_Nov_14_1217,ProdSingRedoBetween,2021.2.3,59.87464643368695,
,,,,81,0,81,0,,,,,,,,,,,,,,,,,,,,,,810.8131726002321,None,,,,,,,,,,,,,,,,,comfort,88,82,sing,old,red,805.6597851002589,None,805.6597851002589,None,5,4.392859700135887,805.6597851002589,None,4.392859700135887,810.0801713000983,None,810.600222600624,None,810.600222600624,None,f,0.1884500002488494,810.600222600624,None,0.1884500002488494,,,75Sing,001,2022_Nov_14_1217,ProdSingRedoBetween,2021.2.3,59.87464643368695,
,,,,82,0,82,0,,,,,,,,,,,,,,,,,,,,,,813.230432100594,None,,,,,,,,,,,,,,,,,provision,117,83,sing,new,null,811.3377285003662,None,811.3377285003662,None,1,1.298917599953711,811.3377285003662,None,1.298917599953711,812.663550700061,None,813.1638879003003,None,813.1638879003003,None,n,0.04875840060412884,813.1638879003003,None,0.04875840060412884,,,75Sing,001,2022_Nov_14_1217,ProdSingRedoBetween,2021.2.3,59.87464643368695,
,,,,83,0,83,0,,,,,,,,,,,,,,,,,,,,,,816.5670138001442,None,,,,,,,,,,,,,,,,,express,103,84,sing,new,null,813.7409905008972,None,813.7409905008972,None,1,2.063859900459647,813.7409905008972,None,2.063859900459647,815.8390378002077,None,816.3505189009011,None,816.3505189009011,None,n,0.19005839992314577,816.3505189009011,None,0.19005839992314577,,,75Sing,001,2022_Nov_14_1217,ProdSingRedoBetween,2021.2.3,59.87464643368695,
,,,,84,0,84,0,,,,,,,,,,,,,,,,,,,,,,818.9360015001148,None,,,,,,,,,,,,,,,,,taste,84,85,sing,old,red,817.0760474000126,None,817.0760474000126,None,1,1.2086642999202013,817.0760474000126,None,1.2086642999202013,818.310344000347,None,818.8193081002682,None,818.8193081002682,None,n,0.09734270069748163,818.8193081002682,None,0.09734270069748163,,,75Sing,001,2022_Nov_14_1217,ProdSingRedoBetween,2021.2.3,59.87464643368695,
,,,,85,0,85,0,,,,,,,,,,,,,,,,,,,,,,820.8411906007677,None,,,,,,,,,,,,,,,,,notice,123,86,sing,new,null,819.4368019001558,None,819.4368019001558,None,1,0.8480088002979755,819.4368019001558,None,0.8480088002979755,820.3051882004365,None,820.8055851003155,None,820.8055851003155,None,n,0.015274900011718273,820.8055851003155,None,0.015274900011718273,,,75Sing,001,2022_Nov_14_1217,ProdSingRedoBetween,2021.2.3,59.87464643368695,
,,,,86,0,86,0,,,,,,,,,,,,,,,,,,,,,,823.0232062004507,None,,,,,,,,,,,,,,,,,message,111,87,sing,new,null,821.3609438007697,None,821.3609438007697,None,1,0.7237398996949196,821.3609438007697,None,0.7237398996949196,822.1112798005342,None,822.6230723001063,None,822.6230723001063,None,n,0.37352639995515347,822.6230723001063,None,0.37352639995515347,,,75Sing,001,2022_Nov_14_1217,ProdSingRedoBetween,2021.2.3,59.87464643368695,
,,,,87,0,87,0,,,,,,,,,,,,,,,,,,,,,,824.9087672000751,None,,,,,,,,,,,,,,,,,carry,166,88,sing,new,null,823.5246441001073,None,823.5246441001073,None,1,0.7521020993590355,823.5246441001073,None,0.7521020993590355,824.2960062008351,None,824.8087208000943,None,824.8087208000943,None,n,0.07599810045212507,824.8087208000943,None,0.07599810045212507,,,75Sing,001,2022_Nov_14_1217,ProdSingRedoBetween,2021.2.3,59.87464643368695,
,,,,88,0,88,0,,,,,,,,,,,,,,,,,,,,,,826.8605655003339,None,,,,,,,,,,,,,,,,,device,120,89,sing,new,null,825.419742600061,None,825.419742600061,None,1,0.6807837998494506,825.419742600061,None,0.6807837998494506,826.1297815004364,None,826.6438717003912,None,826.6438717003912,None,n,0.2006997000426054,826.6438717003912,None,0.2006997000426054,,,75Sing,001,2022_Nov_14_1217,ProdSingRedoBetween,2021.2.3,59.87464643368695,
,,,,89,0,89,0,,,,,,,,,,,,,,,,,,,,,,828.9125257004052,None,,,,,,,,,,,,,,,,,safety,51,90,sing,old,blue,827.3779445001855,None,827.3779445001855,None,1,0.8905944004654884,827.3779445001855,None,0.8905944004654884,828.2968195006251,None,828.8031667005271,None,828.8031667005271,None,n,0.08153449930250645,828.8031667005271,None,0.08153449930250645,,,75Sing,001,2022_Nov_14_1217,ProdSingRedoBetween,2021.2.3,59.87464643368695,
,,,,90,0,90,0,,,,,,,,,,,,,,,,,,,,,,831.5153755005449,None,,,,,,,,,,,,,,,,,entrance,23,91,sing,old,yellow,829.4133966006339,None,829.4133966006339,None,1,1.495455900207162,829.4133966006339,None,1.495455900207162,830.9391510002315,None,831.4520547008142,None,831.4520547008142,None,n,0.0325466999784112,831.4520547008142,None,0.0325466999784112,,,75Sing,001,2022_Nov_14_1217,ProdSingRedoBetween,2021.2.3,59.87464643368695,
,,,,91,0,91,0,,,,,,,,,,,,,,,,,,,,,,833.6842199005187,None,,,,,,,,,,,,,,,,,trial,6,92,sing,old,yellow,832.0241639008746,None,832.0241639008746,None,1,0.9803558997809887,832.0241639008746,None,0.9803558997809887,833.0356992008165,None,833.5507432008162,None,833.5507432008162,None,n,0.10988739971071482,833.5507432008162,None,0.10988739971071482,,,75Sing,001,2022_Nov_14_1217,ProdSingRedoBetween,2021.2.3,59.87464643368695,
,,,,92,0,92,0,,,,,,,,,,,,,,,,,,,,,,836.2701269006357,None,,,,,,,,,,,,,,,,,figure,22,93,sing,old,yellow,834.1956327008083,None,834.1956327008083,None,1,0.8169788997620344,834.1956327008083,None,0.8169788997620344,835.0369182005525,None,835.546044100076,None,835.546044100076,None,n,0.6986774001270533,835.546044100076,None,0.6986774001270533,,,75Sing,001,2022_Nov_14_1217,ProdSingRedoBetween,2021.2.3,59.87464643368695,
,,,,93,0,93,0,,,,,,,,,,,,,,,,,,,,,,840.8079371005297,None,,,,,,,,,,,,,,,,,individual,179,94,sing,new,null,836.7790494002402,None,836.7790494002402,None,1,3.4255435997620225,836.7790494002402,None,3.4255435997620225,840.2282515000552,None,840.7464318005368,None,840.7464318005368,None,n,0.03435000032186508,840.7464318005368,None,0.03435000032186508,,,75Sing,001,2022_Nov_14_1217,ProdSingRedoBetween,2021.2.3,59.87464643368695,
,,,,94,0,94,0,,,,,,,,,,,,,,,,,,,,,,843.5439664004371,None,,,,,,,,,,,,,,,,,principal,46,95,sing,old,blue,841.3220249004662,None,841.3220249004662,None,6,1.4025417007505894,841.3220249004662,None,1.4025417007505894,842.7471962003037,None,843.2605119002983,None,843.2605119002983,None,r,0.26415419951081276,843.2605119002983,None,0.26415419951081276,,,75Sing,001,2022_Nov_14_1217,ProdSingRedoBetween,2021.2.3,59.87464643368695,
,,,,95,0,95,0,,,,,,,,,,,,,,,,,,,,,,845.6126966001466,None,,,,,,,,,,,,,,,,,commercial,91,96,sing,new,null,844.048911000602,None,844.048911000602,None,1,0.9877353999763727,844.048911000602,None,0.9877353999763727,845.0729587003589,None,845.579569500871,None,845.579569500871,None,n,0.017001899890601635,845.579569500871,None,0.017001899890601635,,,75Sing,001,2022_Nov_14_1217,ProdSingRedoBetween,2021.2.3,59.87464643368695,
,,,,96,0,96,0,,,,,,,,,,,,,,,,,,,,,,847.7648608004674,None,,,,,,,,,,,,,,,,,crisis,97,97,sing,new,null,846.1244442006573,None,846.1244442006573,None,1,0.6241833996027708,846.1244442006573,None,0.6241833996027708,846.7722100000829,None,847.2812200002372,None,847.2812200002372,None,n,0.45936889946460724,847.2812200002372,None,0.45936889946460724,,,75Sing,001,2022_Nov_14_1217,ProdSingRedoBetween,2021.2.3,59.87464643368695,
,,,,97,0,97,0,,,,,,,,,,,,,,,,,,,,,,850.2179280007258,None,,,,,,,,,,,,,,,,,instrument,63,98,sing,old,red,848.2749242000282,None,848.2749242000282,None,6,1.2815878000110388,848.2749242000282,None,1.2815878000110388,849.5844576004893,None,850.0839704005048,None,850.0839704005048,None,r,0.1047860998660326,850.0839704005048,None,0.1047860998660326,,,75Sing,001,2022_Nov_14_1217,ProdSingRedoBetween,2021.2.3,59.87464643368695,
,,,,98,0,98,0,,,,,,,,,,,,,,,,,,,,,,853.3704300001264,None,,,,,,,,,,,,,,,,,straight,177,99,sing,new,null,850.7231929004192,None,850.7231929004192,None,1,1.2094749007374048,850.7231929004192,None,1.2094749007374048,851.9597512008622,None,852.4697170006111,None,852.4697170006111,None,n,0.8788695000112057,852.4697170006111,None,0.8788695000112057,,,75Sing,001,2022_Nov_14_1217,ProdSingRedoBetween,2021.2.3,59.87464643368695,
,,,,99,0,99,0,,,,,,,,,,,,,,,,,,,,,,856.6236682003364,None,,,,,,,,,,,,,,,,,spoke,79,100,sing,old,red,853.8787595005706,None,853.8787595005706,None,6,1.4299013996496797,853.8787595005706,None,1.4299013996496797,855.3470571003854,None,855.8646202003583,None,855.8646202003583,None,r,0.7399312993511558,855.8646202003583,None,0.7399312993511558,,,75Sing,001,2022_Nov_14_1217,ProdSingRedoBetween,2021.2.3,59.87464643368695,
,,,,100,0,100,0,,,,,,,,,,,,,,,,,,,,,,859.7267328007147,None,,,,,,,,,,,,,,,,,thing,178,101,sing,new,null,857.1330794002861,None,857.1330794002861,None,1,1.5514800008386374,857.1330794002861,None,1.5514800008386374,858.7103854008019,None,859.2141685001552,None,859.2141685001552,None,n,0.4943363992497325,859.2141685001552,None,0.4943363992497325,,,75Sing,001,2022_Nov_14_1217,ProdSingRedoBetween,2021.2.3,59.87464643368695,
,,,,101,0,101,0,,,,,,,,,,,,,,,,,,,,,,862.2626386005431,None,,,,,,,,,,,,,,,,,mayor,173,102,sing,new,null,860.2296241000295,None,860.2296241000295,None,1,1.2872216003015637,860.2296241000295,None,1.2872216003015637,861.5543794007972,None,862.0751371001825,None,862.0751371001825,None,n,0.16133330017328262,862.0751371001825,None,0.16133330017328262,,,75Sing,001,2022_Nov_14_1217,ProdSingRedoBetween,2021.2.3,59.87464643368695,
,,,,102,0,102,0,,,,,,,,,,,,,,,,,,,,,,865.5159505000338,None,,,,,,,,,,,,,,,,,strain,44,103,sing,old,blue,862.7633358007297,None,862.7633358007297,None,6,1.4653185000643134,862.7633358007297,None,1.4653185000643134,864.249775800854,None,864.7712092008442,None,864.7712092008442,None,r,0.7214403999969363,864.7712092008442,None,0.7214403999969363,,,75Sing,001,2022_Nov_14_1217,ProdSingRedoBetween,2021.2.3,59.87464643368695,
,,,,103,0,103,0,,,,,,,,,,,,,,,,,,,,,,867.7849589008838,None,,,,,,,,,,,,,,,,,south,156,104,sing,new,null,866.0250809006393,None,866.0250809006393,None,1,1.019477299414575,866.0250809006393,None,1.019477299414575,867.0689836004749,None,867.5727791003883,None,867.5727791003883,None,n,0.19186329934746027,867.5727791003883,None,0.19186329934746027,,,75Sing,001,2022_Nov_14_1217,ProdSingRedoBetween,2021.2.3,59.87464643368695,
,,,,104,0,104,0,,,,,,,,,,,,,,,,,,,,,,870.3707841001451,None,,,,,,,,,,,,,,,,,finish,2,105,sing,old,yellow,868.2952696001157,None,868.2952696001157,None,6,1.3652568003162742,868.2952696001157,None,1.3652568003162742,869.6897631008178,None,870.2040261002257,None,870.2040261002257,None,r,0.13654789980500937,870.2040261002257,None,0.13654789980500937,,,75Sing,001,2022_Nov_14_1217,ProdSingRedoBetween,2021.2.3,59.87464643368695,
,,,,105,0,105,0,,,,,,,,,,,,,,,,,,,,,,872.9733458003029,None,,,,,,,,,,,,,,,,,committee,126,106,sing,new,null,870.8738503009081,None,870.8738503009081,None,1,1.0107365995645523,870.8738503009081,None,1.0107365995645523,871.9107600999996,None,872.4229142004624,None,872.4229142004624,None,n,0.5336315995082259,872.4229142004624,None,0.5336315995082259,,,75Sing,001,2022_Nov_14_1217,ProdSingRedoBetween,2021.2.3,59.87464643368695,
,,,,106,0,106,0,,,,,,,,,,,,,,,,,,,,,,876.3099734000862,None,,,,,,,,,,,,,,,,,couch,5,107,sing,old,yellow,873.481656900607,None,873.481656900607,None,5,2.0749273002147675,873.481656900607,None,2.0749273002147675,875.5834388006479,None,876.0980289001018,None,876.0980289001018,None,f,0.18651090003550053,876.0980289001018,None,0.18651090003550053,,,75Sing,001,2022_Nov_14_1217,ProdSingRedoBetween,2021.2.3,59.87464643368695,
,,,,107,0,107,0,,,,,,,,,,,,,,,,,,,,,,878.578990100883,None,,,,,,,,,,,,,,,,,level,26,108,sing,old,yellow,876.8181814001873,None,876.8181814001873,None,6,1.1704372996464372,876.8181814001873,None,1.1704372996464372,878.0131874000654,None,878.5167981004342,None,878.5167981004342,None,r,0.03972400072962046,878.5167981004342,None,0.03972400072962046,,,75Sing,001,2022_Nov_14_1217,ProdSingRedoBetween,2021.2.3,59.87464643368695,
,,,,108,0,108,0,,,,,,,,,,,,,,,,,,,,,,881.6987050008029,None,,,,,,,,,,,,,,,,,congress,30,109,sing,old,blue,879.098071500659,None,879.098071500659,None,6,1.6184303993359208,879.098071500659,None,1.6184303993359208,880.7326471004635,None,881.2483502002433,None,881.2483502002433,None,r,0.4281903998926282,881.2483502002433,None,0.4281903998926282,,,75Sing,001,2022_Nov_14_1217,ProdSingRedoBetween,2021.2.3,59.87464643368695,
,,,,109,0,109,0,,,,,,,,,,,,,,,,,,,,,,884.3680198006332,None,,,,,,,,,,,,,,,,,style,170,110,sing,new,null,882.2078172005713,None,882.2078172005713,None,1,1.0366781996563077,882.2078172005713,None,1.0366781996563077,883.2700428003445,None,883.7870885003358,None,883.7870885003358,None,n,0.5614913003519177,883.7870885003358,None,0.5614913003519177,,,75Sing,001,2022_Nov_14_1217,ProdSingRedoBetween,2021.2.3,59.87464643368695,
,,,,110,0,110,0,,,,,,,,,,,,,,,,,,,,,,886.8578936001286,None,,,,,,,,,,,,,,,,,death,72,111,sing,old,red,884.8753038002178,None,884.8753038002178,None,6,1.2171898996457458,884.8753038002178,None,1.2171898996457458,886.1196729000658,None,886.6244626007974,None,886.6244626007974,None,r,0.21216600015759468,886.6244626007974,None,0.21216600015759468,,,75Sing,001,2022_Nov_14_1217,ProdSingRedoBetween,2021.2.3,59.87464643368695,
,,,,111,0,111,0,,,,,,,,,,,,,,,,,,,,,,889.3461873000488,None,,,,,,,,,,,,,,,,,employment,144,112,sing,new,null,887.3822355000302,None,887.3822355000302,None,6,1.0865929992869496,887.3822355000302,None,1.0865929992869496,888.4960732003674,None,889.0073084002361,None,889.0073084002361,None,r,0.3015056001022458,889.0073084002361,None,0.3015056001022458,,,75Sing,001,2022_Nov_14_1217,ProdSingRedoBetween,2021.2.3,59.87464643368695,
,,,,112,0,112,0,,,,,,,,,,,,,,,,,,,,,,891.7252304004505,None,,,,,,,,,,,,,,,,,piece,95,113,sing,new,null,889.8645294001326,None,889.8645294001326,None,1,1.091925099492073,889.8645294001326,None,1.091925099492073,890.9746976001188,None,891.475368800573,None,891.475368800573,None,n,0.2250665994361043,891.475368800573,None,0.2250665994361043,,,75Sing,001,2022_Nov_14_1217,ProdSingRedoBetween,2021.2.3,59.87464643368695,
,,,,113,0,113,0,,,,,,,,,,,,,,,,,,,,,,894.2610685005784,None,,,,,,,,,,,,,,,,,enemy,11,114,sing,old,yellow,892.2380390008911,None,892.2380390008911,None,6,1.3584651006385684,892.2380390008911,None,1.3584651006385684,893.6284903008491,None,894.1374584008008,None,894.1374584008008,None,r,0.09906219970434904,894.1374584008008,None,0.09906219970434904,,,75Sing,001,2022_Nov_14_1217,ProdSingRedoBetween,2021.2.3,59.87464643368695,
,,,,114,0,114,0,,,,,,,,,,,,,,,,,,,,,,896.4132495000958,None,,,,,,,,,,,,,,,,,election,108,115,sing,new,null,894.7688647005707,None,894.7688647005707,None,1,0.947661199606955,894.7688647005707,None,0.947661199606955,895.746696700342,None,896.2478809002787,None,896.2478809002787,None,n,0.14061359968036413,896.2478809002787,None,0.14061359968036413,,,75Sing,001,2022_Nov_14_1217,ProdSingRedoBetween,2021.2.3,59.87464643368695,
,,,,115,0,115,0,,,,,,,,,,,,,,,,,,,,,,898.6497191004455,None,,,,,,,,,,,,,,,,,write,161,116,sing,new,null,896.9212660007179,None,896.9212660007179,None,1,1.0193307995796204,896.9212660007179,None,1.0193307995796204,897.965433800593,None,898.470220300369,None,898.470220300369,None,n,0.15832980070263147,898.470220300369,None,0.15832980070263147,,,75Sing,001,2022_Nov_14_1217,ProdSingRedoBetween,2021.2.3,59.87464643368695,
,,,,116,0,116,0,,,,,,,,,,,,,,,,,,,,,,901.4517210004851,None,,,,,,,,,,,,,,,,,raise,48,117,sing,old,blue,899.1533856000751,None,899.1533856000751,None,6,1.4271416002884507,899.1533856000751,None,1.4271416002884507,900.6077556004748,None,901.1179836001247,None,901.1179836001247,None,r,0.3185614002868533,901.1179836001247,None,0.3185614002868533,,,75Sing,001,2022_Nov_14_1217,ProdSingRedoBetween,2021.2.3,59.87464643368695,
,,,,117,0,117,0,,,,,,,,,,,,,,,,,,,,,,903.6706179007888,None,,,,,,,,,,,,,,,,,interior,82,118,sing,old,red,901.9585453001782,None,901.9585453001782,None,1,0.9978788001462817,901.9585453001782,None,0.9978788001462817,902.986436500214,None,903.4892725003883,None,903.4892725003883,None,n,0.16318100038915873,903.4892725003883,None,0.16318100038915873,,,75Sing,001,2022_Nov_14_1217,ProdSingRedoBetween,2021.2.3,59.87464643368695,
,,,,118,0,118,0,,,,,,,,,,,,,,,,,,,,,,906.4233568999916,None,,,,,,,,,,,,,,,,,nation,65,119,sing,old,red,904.1829027002677,None,904.1829027002677,None,6,1.413523799739778,904.1829027002677,None,1.413523799739778,905.6223099008203,None,906.1231791004539,None,906.1231791004539,None,r,0.27333369944244623,906.1231791004539,None,0.27333369944244623,,,75Sing,001,2022_Nov_14_1217,ProdSingRedoBetween,2021.2.3,59.87464643368695,
,,,,119,0,119,0,,,,,,,,,,,,,,,,,,,,,,908.9925933005288,None,,,,,,,,,,,,,,,,,pattern,76,120,sing,old,red,906.9425244005397,None,906.9425244005397,None,1,1.0780306998640299,906.9425244005397,None,1.0780306998640299,908.0482331002131,None,908.5604206006974,None,908.5604206006974,None,n,0.4121086001396179,908.5604206006974,None,0.4121086001396179,,,75Sing,001,2022_Nov_14_1217,ProdSingRedoBetween,2021.2.3,59.87464643368695,
,,,,120,0,120,0,,,,,,,,,,,,,,,,,,,,,,911.3282701000571,None,,,,,,,,,,,,,,,,,smooth,165,121,sing,new,null,909.5044293003157,None,909.5044293003157,None,1,1.0360296005383134,909.5044293003157,None,1.0360296005383134,910.5638904999942,None,911.0852870000526,None,911.0852870000526,None,n,0.22318360023200512,911.0852870000526,None,0.22318360023200512,,,75Sing,001,2022_Nov_14_1217,ProdSingRedoBetween,2021.2.3,59.87464643368695,
,,,,121,0,121,0,,,,,,,,,,,,,,,,,,,,,,913.4303379002959,None,,,,,,,,,,,,,,,,,measure,53,122,sing,old,blue,911.8353573000059,None,911.8353573000059,None,1,0.7131481003016233,911.8353573000059,None,0.7131481003016233,912.5805976008996,None,913.080094200559,None,913.080094200559,None,n,0.3244502004235983,913.080094200559,None,0.3244502004235983,,,75Sing,001,2022_Nov_14_1217,ProdSingRedoBetween,2021.2.3,59.87464643368695,
,,,,122,0,122,0,,,,,,,,,,,,,,,,,,,,,,915.4323072005063,None,,,,,,,,,,,,,,,,,curve,101,123,sing,new,null,913.9407237004489,None,913.9407237004489,None,1,0.7598968995735049,913.9407237004489,None,0.7598968995735049,914.7410087008029,None,915.2489854004234,None,915.2489854004234,None,n,0.16347039956599474,915.2489854004234,None,0.16347039956599474,,,75Sing,001,2022_Nov_14_1217,ProdSingRedoBetween,2021.2.3,59.87464643368695,
,,,,123,0,123,0,,,,,,,,,,,,,,,,,,,,,,917.4009591005743,None,,,,,,,,,,,,,,,,,place,47,124,sing,old,blue,915.9362843008712,None,915.9362843008712,None,1,0.8842706000432372,915.9362843008712,None,0.8842706000432372,916.8506469000131,None,917.3546278001741,None,917.3546278001741,None,n,0.026008800603449345,917.3546278001741,None,0.026008800603449345,,,75Sing,001,2022_Nov_14_1217,ProdSingRedoBetween,2021.2.3,59.87464643368695,
,,,,124,0,124,0,,,,,,,,,,,,,,,,,,,,,,919.6867549000308,None,,,,,,,,,,,,,,,,,foundation,175,125,sing,new,null,917.9088073000312,None,917.9088073000312,None,1,0.7356456005945802,917.9088073000312,None,0.7356456005945802,918.6723917005584,None,919.1862813001499,None,919.1862813001499,None,n,0.4821124002337456,919.1862813001499,None,0.4821124002337456,,,75Sing,001,2022_Nov_14_1217,ProdSingRedoBetween,2021.2.3,59.87464643368695,
,,,,125,0,125,0,,,,,,,,,,,,,,,,,,,,,,923.723995600827,None,,,,,,,,,,,,,,,,,breath,41,126,sing,old,blue,920.2012174008414,None,920.2012174008414,None,6,2.259291199967265,920.2012174008414,None,2.259291199967265,922.5119477007538,None,923.0066101001576,None,923.0066101001576,None,r,0.7019722005352378,923.0066101001576,None,0.7019722005352378,,,75Sing,001,2022_Nov_14_1217,ProdSingRedoBetween,2021.2.3,59.87464643368695,
,,,,126,0,126,0,,,,,,,,,,,,,,,,,,,,,,926.326546500437,None,,,,,,,,,,,,,,,,,fashion,43,127,sing,old,blue,924.2335549006239,None,924.2335549006239,None,6,1.0188875999301672,924.2335549006239,None,1.0188875999301672,925.2777209002525,None,925.7927351007238,None,925.7927351007238,None,r,0.5076647000387311,925.7927351007238,None,0.5076647000387311,,,75Sing,001,2022_Nov_14_1217,ProdSingRedoBetween,2021.2.3,59.87464643368695,
,,,,127,0,127,0,,,,,,,,,,,,,,,,,,,,,,929.5323818000033,None,,,,,,,,,,,,,,,,,power,61,128,sing,old,red,926.8346445001662,None,926.8346445001662,None,1,1.4898108998313546,926.8346445001662,None,1.4898108998313546,928.3465915005654,None,928.8508167006075,None,928.8508167006075,None,n,0.6498331008478999,928.8508167006075,None,0.6498331008478999,,,75Sing,001,2022_Nov_14_1217,ProdSingRedoBetween,2021.2.3,59.87464643368695,
,,,,128,0,128,0,,,,,,,,,,,,,,,,,,,,,,932.6495074005798,None,,,,,,,,,,,,,,,,,conference,160,129,sing,new,null,930.064293300733,None,930.064293300733,None,6,1.8201868003234267,930.064293300733,None,1.8201868003234267,931.9201114000753,None,932.4371900008991,None,932.4371900008991,None,r,0.1912239994853735,932.4371900008991,None,0.1912239994853735,,,75Sing,001,2022_Nov_14_1217,ProdSingRedoBetween,2021.2.3,59.87464643368695,
,,,,129,0,129,0,,,,,,,,,,,,,,,,,,,,,,935.0554468007758,None,,,,,,,,,,,,,,,,,estate,151,130,sing,new,null,933.1581715000793,None,933.1581715000793,None,1,1.1662964997813106,933.1581715000793,None,1.1662964997813106,934.3577300002798,None,934.8774843001738,None,934.8774843001738,None,n,0.15913920011371374,934.8774843001738,None,0.15913920011371374,,,75Sing,001,2022_Nov_14_1217,ProdSingRedoBetween,2021.2.3,59.87464643368695,
,,,,130,0,130,0,,,,,,,,,,,,,,,,,,,,,,937.6044906005263,None,,,,,,,,,,,,,,,,,touch,67,131,sing,old,red,935.5749855004251,None,935.5749855004251,None,6,1.3254421995952725,935.5749855004251,None,1.3254421995952725,936.9207160007209,None,937.4248236007988,None,937.4248236007988,None,r,0.15566899999976158,937.4248236007988,None,0.15566899999976158,,,75Sing,001,2022_Nov_14_1217,ProdSingRedoBetween,2021.2.3,59.87464643368695,
,,,,131,0,131,0,,,,,,,,,,,,,,,,,,,,,,940.3238274008036,None,,,,,,,,,,,,,,,,,block,163,132,sing,new,null,938.1085527008399,None,938.1085527008399,None,6,1.0957908006384969,938.1085527008399,None,1.0957908006384969,939.225028000772,None,939.7406731005758,None,939.7406731005758,None,r,0.5677428999915719,939.7406731005758,None,0.5677428999915719,,,75Sing,001,2022_Nov_14_1217,ProdSingRedoBetween,2021.2.3,59.87464643368695,
,,,,132,0,132,0,,,,,,,,,,,,,,,,,,,,,,944.2110028006136,None,,,,,,,,,,,,,,,,,question,10,133,sing,old,yellow,940.8311811005697,None,940.8311811005697,None,3,2.0853463001549244,940.8311811005697,None,2.0853463001549244,942.9520314000547,None,943.4690555008128,None,943.4690555008128,None,n,0.711451300419867,943.4690555008128,None,0.711451300419867,,,75Sing,001,2022_Nov_14_1217,ProdSingRedoBetween,2021.2.3,59.87464643368695,
,,,,133,0,133,0,,,,,,,,,,,,,,,,,,,,,,947.9478793004528,None,,,,,,,,,,,,,,,,,space,49,134,sing,old,blue,944.7141813002527,None,944.7141813002527,None,1,2.5462413001805544,944.7141813002527,None,2.5462413001805544,947.28096890077,None,947.7815474001691,None,947.7815474001691,None,n,0.15092150028795004,947.7815474001691,None,0.15092150028795004,,,75Sing,001,2022_Nov_14_1217,ProdSingRedoBetween,2021.2.3,59.87464643368695,
,,,,134,0,134,0,,,,,,,,,,,,,,,,,,,,,,950.9525852007791,None,,,,,,,,,,,,,,,,,region,83,135,sing,old,red,948.4551545009017,None,948.4551545009017,None,6,1.821254700422287,948.4551545009017,None,1.821254700422287,950.3006109008566,None,950.8071524007246,None,950.8071524007246,None,r,0.1253388999029994,950.8071524007246,None,0.1253388999029994,,,75Sing,001,2022_Nov_14_1217,ProdSingRedoBetween,2021.2.3,59.87464643368695,
,,,,135,0,135,0,,,,,,,,,,,,,,,,,,,,,,953.9040453005582,None,,,,,,,,,,,,,,,,,surprise,55,136,sing,old,blue,951.469318700023,None,951.469318700023,None,6,1.2791051995009184,951.469318700023,None,1.2791051995009184,952.7693923003972,None,953.270215600729,None,953.270215600729,None,r,0.6141850994899869,953.270215600729,None,0.6141850994899869,,,75Sing,001,2022_Nov_14_1217,ProdSingRedoBetween,2021.2.3,59.87464643368695,
,,,,136,0,136,0,,,,,,,,,,,,,,,,,,,,,,956.0558956004679,None,,,,,,,,,,,,,,,,,emergency,24,137,sing,old,yellow,954.417957900092,None,954.417957900092,None,6,1.066461800597608,954.417957900092,None,1.066461800597608,955.5138080008328,None,956.0257113007829,None,956.0257113007829,None,r,0.010720400139689445,956.0257113007829,None,0.010720400139689445,,,75Sing,001,2022_Nov_14_1217,ProdSingRedoBetween,2021.2.3,59.87464643368695,
,,,,137,0,137,0,,,,,,,,,,,,,,,,,,,,,,959.709878500551,None,,,,,,,,,,,,,,,,,general,20,138,sing,old,yellow,956.5638100001961,None,956.5638100001961,None,6,1.4967491002753377,956.5638100001961,None,1.4967491002753377,958.0929853999987,None,958.5949721001089,None,958.5949721001089,None,r,1.0974721992388368,958.5949721001089,None,1.0974721992388368,,,75Sing,001,2022_Nov_14_1217,ProdSingRedoBetween,2021.2.3,59.87464643368695,
,,,,138,0,138,0,,,,,,,,,,,,,,,,,,,,,,961.9954962003976,None,,,,,,,,,,,,,,,,,suspect,87,139,sing,old,red,960.2248640004545,None,960.2248640004545,None,6,1.1154611995443702,960.2248640004545,None,1.1154611995443702,961.3626056006178,None,961.8662668000907,None,961.8662668000907,None,r,0.10612150002270937,961.8662668000907,None,0.10612150002270937,,,75Sing,001,2022_Nov_14_1217,ProdSingRedoBetween,2021.2.3,59.87464643368695,
,,,,139,0,139,0,,,,,,,,,,,,,,,,,,,,,,964.4979755003005,None,,,,,,,,,,,,,,,,,dispute,110,140,sing,new,null,962.5048716003075,None,962.5048716003075,None,1,1.3555182004347444,962.5048716003075,None,1.3555182004347444,963.8816613005474,None,964.3843772001565,None,964.3843772001565,None,n,0.09200070053339005,964.3843772001565,None,0.09200070053339005,,,75Sing,001,2022_Nov_14_1217,ProdSingRedoBetween,2021.2.3,59.87464643368695,
,,,,140,0,140,0,,,,,,,,,,,,,,,,,,,,,,967.1799473008141,None,,,,,,,,,,,,,,,,,order,138,141,sing,new,null,965.0075311008841,None,965.0075311008841,None,1,1.596913400106132,965.0075311008841,None,1.596913400106132,966.6357607003301,None,967.1541782002896,None,967.1541782002896,None,n,0.0025461995974183083,967.1541782002896,None,0.0025461995974183083,,,75Sing,001,2022_Nov_14_1217,ProdSingRedoBetween,2021.2.3,59.87464643368695,
,,,,141,0,141,0,,,,,,,,,,,,,,,,,,,,,,969.2527250004932,None,,,,,,,,,,,,,,,,,tragedy,109,142,sing,new,null,967.6945901000872,None,967.6945901000872,None,1,0.8779327999800444,967.6945901000872,None,0.8779327999800444,968.6132733002305,None,969.1243689004332,None,969.1243689004332,None,n,0.10408269986510277,969.1243689004332,None,0.10408269986510277,,,75Sing,001,2022_Nov_14_1217,ProdSingRedoBetween,2021.2.3,59.87464643368695,
,,,,142,0,142,0,,,,,,,,,,,,,,,,,,,,,,972.0221860008314,None,,,,,,,,,,,,,,,,,rough,0,143,sing,old,yellow,969.762807900086,None,969.762807900086,None,6,1.6655873004347086,969.762807900086,None,1.6655873004347086,971.4624700006098,None,971.9735623002052,None,971.9735623002052,None,r,0.02290160022675991,971.9735623002052,None,0.02290160022675991,,,75Sing,001,2022_Nov_14_1217,ProdSingRedoBetween,2021.2.3,59.87464643368695,
,,,,143,0,143,0,,,,,,,,,,,,,,,,,,,,,,974.6963277002797,None,,,,,,,,,,,,,,,,,beauty,134,144,sing,new,null,972.5241911001503,None,972.5241911001503,None,1,1.0885425005108118,972.5241911001503,None,1.0885425005108118,973.6470099007711,None,974.1652047000825,None,974.1652047000825,None,n,0.5032286001369357,974.1652047000825,None,0.5032286001369357,,,75Sing,001,2022_Nov_14_1217,ProdSingRedoBetween,2021.2.3,59.87464643368695,
,,,,144,0,144,0,,,,,,,,,,,,,,,,,,,,,,976.9103213008493,None,,,,,,,,,,,,,,,,,universal,176,145,sing,new,null,975.2127849999815,None,975.2127849999815,None,1,0.8237240994349122,975.2127849999815,None,0.8237240994349122,976.0648899003863,None,976.5791696002707,None,976.5791696002707,None,n,0.3131459001451731,976.5791696002707,None,0.3131459001451731,,,75Sing,001,2022_Nov_14_1217,ProdSingRedoBetween,2021.2.3,59.87464643368695,
,,,,145,0,145,0,,,,,,,,,,,,,,,,,,,,,,979.4460540004075,None,,,,,,,,,,,,,,,,,length,60,146,sing,old,red,977.4180582007393,None,977.4180582007393,None,1,1.1062919003888965,977.4180582007393,None,1.1062919003888965,978.5479364003986,None,979.0652438001707,None,979.0652438001707,None,n,0.3552430998533964,979.0652438001707,None,0.3552430998533964,,,75Sing,001,2022_Nov_14_1217,ProdSingRedoBetween,2021.2.3,59.87464643368695,
,,,,146,0,146,0,,,,,,,,,,,,,,,,,,,,,,981.7151581002399,None,,,,,,,,,,,,,,,,,husband,113,147,sing,new,null,979.951653400436,None,979.951653400436,None,1,0.8846270004287362,979.951653400436,None,0.8846270004287362,980.8656993005425,None,981.3713880004361,None,981.3713880004361,None,n,0.3210265999659896,981.3713880004361,None,0.3210265999659896,,,75Sing,001,2022_Nov_14_1217,ProdSingRedoBetween,2021.2.3,59.87464643368695,
,,,,147,0,147,0,,,,,,,,,,,,,,,,,,,,,,983.7505388008431,None,,,,,,,,,,,,,,,,,health,150,148,sing,new,null,982.2174570001662,None,982.2174570001662,None,1,0.6588404001668096,982.2174570001662,None,0.6588404001668096,982.9046855000779,None,983.4194121006876,None,983.4194121006876,None,n,0.3128384007140994,983.4194121006876,None,0.3128384007140994,,,75Sing,001,2022_Nov_14_1217,ProdSingRedoBetween,2021.2.3,59.87464643368695,
,,,,148,0,148,0,,,,,,,,,,,,,,,,,,,,,,986.0027018003166,None,,,,,,,,,,,,,,,,,junior,86,149,sing,old,red,984.2655514003709,None,984.2655514003709,None,1,0.8667927999049425,984.2655514003709,None,0.8667927999049425,985.153307900764,None,985.6586582008749,None,985.6586582008749,None,n,0.3136211996898055,985.6586582008749,None,0.3136211996898055,,,75Sing,001,2022_Nov_14_1217,ProdSingRedoBetween,2021.2.3,59.87464643368695,
,,,,149,0,149,0,,,,,,,,,,,,,,,,,,,,,,988.1549374004826,None,,,,,,,,,,,,,,,,,clear,16,150,sing,old,yellow,986.5113205006346,None,986.5113205006346,None,1,0.9170103995129466,986.5113205006346,None,0.9170103995129466,987.4540144000202,None,987.9545293999836,None,987.9545293999836,None,n,0.16982380021363497,987.9545293999836,None,0.16982380021363497,,,75Sing,001,2022_Nov_14_1217,ProdSingRedoBetween,2021.2.3,59.87464643368695,
,,,,150,0,150,0,,,,,,,,,,,,,,,,,,,,,,990.7240926008672,None,,,,,,,,,,,,,,,,,danger,9,151,sing,old,yellow,988.6652330001816,None,988.6652330001816,None,6,1.4271772000938654,988.6652330001816,None,1.4271772000938654,990.124890900217,None,990.6298454999924,None,990.6298454999924,None,r,0.07850609999150038,990.6298454999924,None,0.07850609999150038,,,75Sing,001,2022_Nov_14_1217,ProdSingRedoBetween,2021.2.3,59.87464643368695,
,,,,151,0,151,0,,,,,,,,,,,,,,,,,,,,,,992.693451100029,None,,,,,,,,,,,,,,,,,people,18,152,sing,old,yellow,991.236049500294,None,991.236049500294,None,1,0.8881987994536757,991.236049500294,None,0.8881987994536757,992.1432765005156,None,992.6503079002723,None,992.6503079002723,None,n,0.01800499949604273,992.6503079002723,None,0.01800499949604273,,,75Sing,001,2022_Nov_14_1217,ProdSingRedoBetween,2021.2.3,59.87464643368695,
,,,,152,0,152,0,,,,,,,,,,,,,,,,,,,,,,995.1299768006429,None,,,,,,,,,,,,,,,,,property,21,153,sing,old,yellow,993.2015951005742,None,993.2015951005742,None,1,0.8747162995859981,993.2015951005742,None,0.8747162995859981,994.0979235004634,None,994.6129714008421,None,994.6129714008421,None,n,0.48743460047990084,994.6129714008421,None,0.48743460047990084,,,75Sing,001,2022_Nov_14_1217,ProdSingRedoBetween,2021.2.3,59.87464643368695,
,,,,153,0,153,0,,,,,,,,,,,,,,,,,,,,,,997.3640561001375,None,,,,,,,,,,,,,,,,,center,158,154,sing,new,null,995.6457849005237,None,995.6457849005237,None,1,0.9265430001541972,995.6457849005237,None,0.9265430001541972,996.597734500654,None,997.1025886004791,None,997.1025886004791,None,n,0.2456996999680996,997.1025886004791,None,0.2456996999680996,,,75Sing,001,2022_Nov_14_1217,ProdSingRedoBetween,2021.2.3,59.87464643368695,
,,,,154,0,154,0,,,,,,,,,,,,,,,,,,,,,,1000.066810999997,None,,,,,,,,,,,,,,,,,vision,140,155,sing,new,null,997.875489000231,None,997.875489000231,None,1,1.5849208999425173,997.875489000231,None,1.5849208999425173,999.4898935006931,None,1000.0002415003255,None,1000.0002415003255,None,n,0.03614840004593134,1000.0002415003255,None,0.03614840004593134,,,75Sing,001,2022_Nov_14_1217,ProdSingRedoBetween,2021.2.3,59.87464643368695,
,,,,155,0,155,0,,,,,,,,,,,,,,,,,,,,,,1002.2690070001408,None,,,,,,,,,,,,,,,,,narrow,105,156,sing,new,null,1000.5771049000323,None,1000.5771049000323,None,1,0.9391626995056868,1000.5771049000323,None,0.9391626995056868,1001.5385921001434,None,1002.0522502008826,None,1002.0522502008826,None,n,0.20024879928678274,1002.0522502008826,None,0.20024879928678274,,,75Sing,001,2022_Nov_14_1217,ProdSingRedoBetween,2021.2.3,59.87464643368695,
,,,,156,0,156,0,,,,,,,,,,,,,,,,,,,,,,1005.0050705000758,None,,,,,,,,,,,,,,,,,agency,155,157,sing,new,null,1002.771943400614,None,1002.771943400614,None,6,1.2965812999755144,1002.771943400614,None,1.2965812999755144,1004.0903529999778,None,1004.6089793005958,None,1004.6089793005958,None,r,0.37135359924286604,1004.6089793005958,None,0.37135359924286604,,,75Sing,001,2022_Nov_14_1217,ProdSingRedoBetween,2021.2.3,59.87464643368695,
,,,,157,0,157,0,,,,,,,,,,,,,,,,,,,,,,1007.2587582003325,None,,,,,,,,,,,,,,,,,contract,34,158,sing,old,blue,1005.5141788003966,None,1005.5141788003966,None,1,1.1141496999189258,1005.5141788003966,None,1.1141496999189258,1006.6566163003445,None,1007.1651551006362,None,1007.1651551006362,None,n,0.06324099935591221,1007.1651551006362,None,0.06324099935591221,,,75Sing,001,2022_Nov_14_1217,ProdSingRedoBetween,2021.2.3,59.87464643368695,
,,,,158,0,158,0,,,,,,,,,,,,,,,,,,,,,,1011.5449025006965,None,,,,,,,,,,,,,,,,,suggestion,68,159,sing,old,red,1007.7767763007432,None,1007.7767763007432,None,1,1.515489000827074,1007.7767763007432,None,1.515489000827074,1009.3168637007475,None,1009.829000800848,None,1009.829000800848,None,r,1.6952941995114088,1009.829000800848,None,1.6952941995114088,,,75Sing,001,2022_Nov_14_1217,ProdSingRedoBetween,2021.2.3,59.87464643368695,
,,,,159,0,159,0,,,,,,,,,,,,,,,,,,,,,,1015.3500406006351,None,,,,,,,,,,,,,,,,,silence,92,160,sing,new,null,1012.056368900463,None,1012.056368900463,None,1,2.6281062001362443,1012.056368900463,None,2.6281062001362443,1014.7168018007651,None,1015.2332490002736,None,1015.2332490002736,None,n,0.09110449999570847,1015.2332490002736,None,0.09110449999570847,,,75Sing,001,2022_Nov_14_1217,ProdSingRedoBetween,2021.2.3,59.87464643368695,
,,,,160,0,160,0,,,,,,,,,,,,,,,,,,,,,,1017.6009038006887,None,,,,,,,,,,,,,,,,,swift,139,161,sing,new,null,1015.8713247003034,None,1015.8713247003034,None,1,0.9170057000592351,1015.8713247003034,None,0.9170057000592351,1016.8196445005015,None,1017.3393188007176,None,1017.3393188007176,None,n,0.23300370015203953,1017.3393188007176,None,0.23300370015203953,,,75Sing,001,2022_Nov_14_1217,ProdSingRedoBetween,2021.2.3,59.87464643368695,
,,,,161,0,161,0,,,,,,,,,,,,,,,,,,,,,,1020.8875874001533,None,,,,,,,,,,,,,,,,,problem,135,162,sing,new,null,1018.1111693000421,None,1018.1111693000421,None,1,2.0132147995755076,1018.1111693000421,None,2.0132147995755076,1020.1549372002482,None,1020.6621944000944,None,1020.6621944000944,None,n,0.20608319994062185,1020.6621944000944,None,0.20608319994062185,,,75Sing,001,2022_Nov_14_1217,ProdSingRedoBetween,2021.2.3,59.87464643368695,
,,,,162,0,162,0,,,,,,,,,,,,,,,,,,,,,,1024.8581268005073,None,,,,,,,,,,,,,,,,,empty,145,163,sing,new,null,1021.3951530000195,None,1021.3951530000195,None,1,2.6731402995064855,1021.3951530000195,None,2.6731402995064855,1024.0920661007985,None,1024.598934800364,None,1024.598934800364,None,n,0.2293641995638609,1024.598934800364,None,0.2293641995638609,,,75Sing,001,2022_Nov_14_1217,ProdSingRedoBetween,2021.2.3,59.87464643368695,
,,,,163,0,163,0,,,,,,,,,,,,,,,,,,,,,,1027.3105725003406,None,,,,,,,,,,,,,,,,,state,143,164,sing,new,null,1025.3592385007069,None,1025.3592385007069,None,1,1.109235799871385,1025.3592385007069,None,1.109235799871385,1026.4932161001489,None,1026.99374490045,None,1026.99374490045,None,n,0.2985292002558708,1026.99374490045,None,0.2985292002558708,,,75Sing,001,2022_Nov_14_1217,ProdSingRedoBetween,2021.2.3,59.87464643368695,
,,,,164,0,164,0,,,,,,,,,,,,,,,,,,,,,,1029.4627455007285,None,,,,,,,,,,,,,,,,,goose,112,165,sing,new,null,1027.8188393004239,None,1027.8188393004239,None,1,0.9214369002729654,1027.8188393004239,None,0.9214369002729654,1028.7641475005075,None,1029.279209700413,None,1029.279209700413,None,n,0.1650744006037712,1029.279209700413,None,0.1650744006037712,,,75Sing,001,2022_Nov_14_1217,ProdSingRedoBetween,2021.2.3,59.87464643368695,
,,,,165,0,165,0,,,,,,,,,,,,,,,,,,,,,,1031.798344200477,None,,,,,,,,,,,,,,,,,dozen,127,166,sing,new,null,1029.9766750000417,None,1029.9766750000417,None,1,1.0915262000635266,1029.9766750000417,None,1.0915262000635266,1031.1119207004085,None,1031.624934100546,None,1031.624934100546,None,n,0.13966319989413023,1031.624934100546,None,0.13966319989413023,,,75Sing,001,2022_Nov_14_1217,ProdSingRedoBetween,2021.2.3,59.87464643368695,
,,,,166,0,166,0,,,,,,,,,,,,,,,,,,,,,,1034.6844643000513,None,,,,,,,,,,,,,,,,,quarter,69,167,sing,old,red,1032.3036228008568,None,1032.3036228008568,None,6,1.3489373000338674,1032.3036228008568,None,1.3489373000338674,1033.689389500767,None,1034.201542600058,None,1034.201542600058,None,r,0.45871050003916025,1034.201542600058,None,0.45871050003916025,,,75Sing,001,2022_Nov_14_1217,ProdSingRedoBetween,2021.2.3,59.87464643368695,
,,,,167,0,167,0,,,,,,,,,,,,,,,,,,,,,,1037.2371316002682,None,,,,,,,,,,,,,,,,,salary,13,168,sing,old,yellow,1035.1898086005822,None,1035.1898086005822,None,6,1.1665222002193332,1035.1898086005822,None,1.1665222002193332,1036.3950076000765,None,1036.909815300256,None,1036.909815300256,None,r,0.30236619990319014,1036.909815300256,None,0.30236619990319014,,,75Sing,001,2022_Nov_14_1217,ProdSingRedoBetween,2021.2.3,59.87464643368695,
,,,,168,0,168,0,,,,,,,,,,,,,,,,,,,,,,1040.1231350004673,None,,,,,,,,,,,,,,,,,ground,122,169,sing,new,null,1037.7447590008378,None,1037.7447590008378,None,1,1.2035098997876048,1037.7447590008378,None,1.2035098997876048,1038.972149300389,None,1039.4772006003186,None,1039.4772006003186,None,n,0.631143500097096,1039.4772006003186,None,0.631143500097096,,,75Sing,001,2022_Nov_14_1217,ProdSingRedoBetween,2021.2.3,59.87464643368695,
,,,,169,0,169,0,,,,,,,,,,,,,,,,,,,,,,1042.7256907001138,None,,,,,,,,,,,,,,,,,fight,74,170,sing,old,red,1040.6339012002572,None,1040.6339012002572,None,6,1.170371999964118,1040.6339012002572,None,1.170371999964118,1041.829509000294,None,1042.3429663004354,None,1042.3429663004354,None,r,0.3652234999462962,1042.3429663004354,None,0.3652234999462962,,,75Sing,001,2022_Nov_14_1217,ProdSingRedoBetween,2021.2.3,59.87464643368695,
,,,,170,0,170,0,,,,,,,,,,,,,,,,,,,,,,1045.2294564004987,None,,,,,,,,,,,,,,,,,watch,172,171,sing,new,null,1043.2264879001305,None,1043.2264879001305,None,1,1.2657934995368123,1043.2264879001305,None,1.2657934995368123,1044.5144222006202,None,1045.0310214003548,None,1045.0310214003548,None,n,0.18154930043965578,1045.0310214003548,None,0.18154930043965578,,,75Sing,001,2022_Nov_14_1217,ProdSingRedoBetween,2021.2.3,59.87464643368695,
,,,,171,0,171,0,,,,,,,,,,,,,,,,,,,,,,1047.2137554008514,None,,,,,,,,,,,,,,,,,smell,162,172,sing,new,null,1045.7316252002493,None,1045.7316252002493,None,1,0.7366100000217557,1045.7316252002493,None,0.7366100000217557,1046.4985113004223,None,1047.0149543005973,None,1047.0149543005973,None,n,0.17325490061193705,1047.0149543005973,None,0.17325490061193705,,,75Sing,001,2022_Nov_14_1217,ProdSingRedoBetween,2021.2.3,59.87464643368695,
,,,,172,0,172,0,,,,,,,,,,,,,,,,,,,,,,1049.2009635008872,None,,,,,,,,,,,,,,,,,appeal,17,173,sing,old,yellow,1047.728989400901,None,1047.728989400901,None,1,0.8031671000644565,1047.728989400901,None,0.8031671000644565,1048.54968690034,None,1049.05610260088,None,1049.05610260088,None,n,0.12424689996987581,1049.05610260088,None,0.12424689996987581,,,75Sing,001,2022_Nov_14_1217,ProdSingRedoBetween,2021.2.3,59.87464643368695,
,,,,173,0,173,0,,,,,,,,,,,,,,,,,,,,,,1051.718234400265,None,,,,,,,,,,,,,,,,,oxygen,27,174,sing,old,yellow,1049.7177856005728,None,1049.7177856005728,None,1,0.7424671007320285,1049.7177856005728,None,0.7424671007320285,1050.4903304008767,None,1051.0026312004775,None,1051.0026312004775,None,n,0.6896374002099037,1051.0026312004775,None,0.6896374002099037,,,75Sing,001,2022_Nov_14_1217,ProdSingRedoBetween,2021.2.3,59.87464643368695,
,,,,174,0,174,0,,,,,,,,,,,,,,,,,,,,,,1054.1873831003904,None,,,,,,,,,,,,,,,,,surface,25,175,sing,old,yellow,1052.2268067002296,None,1052.2268067002296,None,1,1.017428700812161,1052.2268067002296,None,1.017428700812161,1053.271228200756,None,1053.7742512002587,None,1053.7742512002587,None,n,0.39798959996551275,1053.7742512002587,None,0.39798959996551275,,,75Sing,001,2022_Nov_14_1217,ProdSingRedoBetween,2021.2.3,59.87464643368695,
,,,,175,0,175,0,,,,,,,,,,,,,,,,,,,,,,1056.573155700229,None,,,,,,,,,,,,,,,,,staff,152,176,sing,new,null,1054.6952204005793,None,1054.6952204005793,None,1,1.0930885998532176,1054.6952204005793,None,1.0930885998532176,1055.807048600167,None,1056.313910400495,None,1056.313910400495,None,n,0.23431560024619102,1056.313910400495,None,0.23431560024619102,,,75Sing,001,2022_Nov_14_1217,ProdSingRedoBetween,2021.2.3,59.87464643368695,
,,,,176,0,176,0,,,,,,,,,,,,,,,,,,,,,,1059.0754616009071,None,,,,,,,,,,,,,,,,,community,19,177,sing,old,yellow,1057.0769188003615,None,1057.0769188003615,None,5,1.3193387994542718,1057.0769188003615,None,1.3193387994542718,1058.4263179004192,None,1058.9256152007729,None,1058.9256152007729,None,f,0.1267635002732277,1058.9256152007729,None,0.1267635002732277,,,75Sing,001,2022_Nov_14_1217,ProdSingRedoBetween,2021.2.3,59.87464643368695,
,,,,177,0,177,0,,,,,,,,,,,,,,,,,,,,,,1063.3239730000496,None,,,,,,,,,,,,,,,,,article,58,178,sing,old,blue,1059.586450200528,None,1059.586450200528,None,3,2.849763099104166,1059.586450200528,None,2.849763099104166,1062.4668123004958,None,1062.9810311002657,None,1062.9810311002657,None,n,0.30309689976274967,1062.9810311002657,None,0.30309689976274967,,,75Sing,001,2022_Nov_14_1217,ProdSingRedoBetween,2021.2.3,59.87464643368695,
,,,,178,0,178,0,,,,,,,,,,,,,,,,,,,,,,1066.0825893003494,None,,,,,,,,,,,,,,,,,platform,130,179,sing,new,null,1063.837696700357,None,1063.837696700357,None,1,1.5185961993411183,1063.837696700357,None,1.5185961993411183,1065.3922369005159,None,1065.901842600666,None,1065.901842600666,None,n,0.15036000031977892,1065.901842600666,None,0.15036000031977892,,,75Sing,001,2022_Nov_14_1217,ProdSingRedoBetween,2021.2.3,59.87464643368695,
