StudyLoop.thisRepN,StudyLoop.thisTrialN,StudyLoop.thisN,StudyLoop.thisIndex,TestLoop.thisRepN,TestLoop.thisTrialN,TestLoop.thisN,TestLoop.thisIndex,textCondition.started,textCondition.stopped,keyCondition.keys,keyCondition.rt,keyCondition.started,keyCondition.stopped,Condition,textWelcome.started,textWelcome.stopped,keyWelcome.keys,keyWelcome.rt,keyWelcome.started,keyWelcome.stopped,textAloud.started,textAloud.stopped,textSilent.started,textSilent.stopped,textSing.started,textSing.stopped,conditional_text.started,conditional_text.stopped,textBlank500.started,textBlank500.stopped,study_word,study_num,study_order,study_type,word_color,textStudy.started,textStudy.stopped,keyStudy.keys,keyStudy.started,keyStudy.stopped,textTestInstructions.started,textTestInstructions.stopped,key_resp_3.keys,key_resp_3.rt,key_resp_3.started,key_resp_3.stopped,test_word,test_num,test_order,test_condition,old_new_test,test_word_original_color,textConf.started,textConf.stopped,textConfScale.started,textConfScale.stopped,keyConf.keys,keyConf.rt,keyConf.started,keyConf.stopped,confidence response time,textTestBlank.started,textTestBlank.stopped,textRKN.started,textRKN.stopped,textRKNScale.started,textRKNScale.stopped,keyRKN.keys,keyRKN.rt,keyRKN.started,keyRKN.stopped,rkn response time,textEnd.started,textEnd.stopped,participant,session,date,expName,psychopyVersion,frameRate,
,,,,,,,,35.939442600123584,None,a,3.7074907002970576,35.939442600123584,None,,,,,,,,,,,,,,,,,,,,,,,,,,,,,,,,,,,,,,,,,,,,,,,,,,,,,,,,,,,,,,76Silent,001,2022_Nov_14_1252,ProdSingRedoBetween,2021.2.3,59.96134869013011,
,,,,,,,,,,,,,,SilentTest,39.70010660029948,None,space,1803.271420199424,39.70010660029948,None,,,,,,,,,,,,,,,,,,,,,,,,,,,,,,,,,,,,,,,,,,,,,,,,,,,,,,,76Silent,001,2022_Nov_14_1252,ProdSingRedoBetween,2021.2.3,59.96134869013011,
0,0,0,0,,,,,,,,,,,,,,,,,,39.70010660029948,None,39.70010660029948,None,39.70010660029948,None,39.70010660029948,None,1845.517032400705,None,general,62,1,silent,red,1843.504427799955,None,None,1843.504427799955,None,,,,,,,,,,,,,,,,,,,,,,,,,,,,,,,,,,,76Silent,001,2022_Nov_14_1252,ProdSingRedoBetween,2021.2.3,59.96134869013011,
1,0,1,0,,,,,,,,,,,,,,,,,,,,,,,,,,1848.0362096000463,None,review,72,2,silent,red,1846.0268008001149,None,None,1846.0268008001149,None,,,,,,,,,,,,,,,,,,,,,,,,,,,,,,,,,,,76Silent,001,2022_Nov_14_1252,ProdSingRedoBetween,2021.2.3,59.96134869013011,
2,0,2,0,,,,,,,,,,,,,,,,,,,,,,,,,,1850.538566400297,None,right,79,3,silent,red,1848.53902020026,None,None,1848.53902020026,None,,,,,,,,,,,,,,,,,,,,,,,,,,,,,,,,,,,76Silent,001,2022_Nov_14_1252,ProdSingRedoBetween,2021.2.3,59.96134869013011,
3,0,3,0,,,,,,,,,,,,,,,,,,,,,,,,,,1853.057911700569,None,foundation,59,4,silent,yellow,1851.0434866007417,None,None,1851.0434866007417,None,,,,,,,,,,,,,,,,,,,,,,,,,,,,,,,,,,,76Silent,001,2022_Nov_14_1252,ProdSingRedoBetween,2021.2.3,59.96134869013011,
4,0,4,0,,,,,,,,,,,,,,,,,,,,,,,,,,1855.5603904007003,None,nature,38,5,silent,blue,1853.558854999952,None,None,1853.558854999952,None,,,,,,,,,,,,,,,,,,,,,,,,,,,,,,,,,,,76Silent,001,2022_Nov_14_1252,ProdSingRedoBetween,2021.2.3,59.96134869013011,
5,0,5,0,,,,,,,,,,,,,,,,,,,,,,,,,,1858.0628776000813,None,style,7,6,silent,yellow,1856.0636066999286,None,None,1856.0636066999286,None,,,,,,,,,,,,,,,,,,,,,,,,,,,,,,,,,,,76Silent,001,2022_Nov_14_1252,ProdSingRedoBetween,2021.2.3,59.96134869013011,
6,0,6,0,,,,,,,,,,,,,,,,,,,,,,,,,,1860.581867100671,None,taste,78,7,silent,red,1858.5666995001957,None,None,1858.5666995001957,None,,,,,,,,,,,,,,,,,,,,,,,,,,,,,,,,,,,76Silent,001,2022_Nov_14_1252,ProdSingRedoBetween,2021.2.3,59.96134869013011,
7,0,7,0,,,,,,,,,,,,,,,,,,,,,,,,,,1863.0845837006345,None,household,46,8,silent,blue,1861.083766900003,None,None,1861.083766900003,None,,,,,,,,,,,,,,,,,,,,,,,,,,,,,,,,,,,76Silent,001,2022_Nov_14_1252,ProdSingRedoBetween,2021.2.3,59.96134869013011,
8,0,8,0,,,,,,,,,,,,,,,,,,,,,,,,,,1865.6037384001538,None,birth,64,9,silent,red,1863.593055699952,None,None,1863.593055699952,None,,,,,,,,,,,,,,,,,,,,,,,,,,,,,,,,,,,76Silent,001,2022_Nov_14_1252,ProdSingRedoBetween,2021.2.3,59.96134869013011,
9,0,9,0,,,,,,,,,,,,,,,,,,,,,,,,,,1868.1061241002753,None,group,12,10,silent,yellow,1866.1060414006934,None,None,1866.1060414006934,None,,,,,,,,,,,,,,,,,,,,,,,,,,,,,,,,,,,76Silent,001,2022_Nov_14_1252,ProdSingRedoBetween,2021.2.3,59.96134869013011,
10,0,10,0,,,,,,,,,,,,,,,,,,,,,,,,,,1870.6252387007698,None,concern,61,11,silent,red,1868.6109873000532,None,None,1868.6109873000532,None,,,,,,,,,,,,,,,,,,,,,,,,,,,,,,,,,,,76Silent,001,2022_Nov_14_1252,ProdSingRedoBetween,2021.2.3,59.96134869013011,
11,0,11,0,,,,,,,,,,,,,,,,,,,,,,,,,,1873.12790240068,None,space,71,12,silent,red,1871.1282299002632,None,None,1871.1282299002632,None,,,,,,,,,,,,,,,,,,,,,,,,,,,,,,,,,,,76Silent,001,2022_Nov_14_1252,ProdSingRedoBetween,2021.2.3,59.96134869013011,
12,0,12,0,,,,,,,,,,,,,,,,,,,,,,,,,,1875.6305861007422,None,relation,2,13,silent,yellow,1873.6312512001023,None,None,1873.6312512001023,None,,,,,,,,,,,,,,,,,,,,,,,,,,,,,,,,,,,76Silent,001,2022_Nov_14_1252,ProdSingRedoBetween,2021.2.3,59.96134869013011,
13,0,13,0,,,,,,,,,,,,,,,,,,,,,,,,,,1878.1328292004764,None,marriage,37,14,silent,blue,1876.133748500608,None,None,1876.133748500608,None,,,,,,,,,,,,,,,,,,,,,,,,,,,,,,,,,,,76Silent,001,2022_Nov_14_1252,ProdSingRedoBetween,2021.2.3,59.96134869013011,
14,0,14,0,,,,,,,,,,,,,,,,,,,,,,,,,,1880.6516750007868,None,quiet,67,15,silent,red,1878.6443549999967,None,None,1878.6443549999967,None,,,,,,,,,,,,,,,,,,,,,,,,,,,,,,,,,,,76Silent,001,2022_Nov_14_1252,ProdSingRedoBetween,2021.2.3,59.96134869013011,
15,0,15,0,,,,,,,,,,,,,,,,,,,,,,,,,,1883.1545380000025,None,platform,70,16,silent,red,1881.1550120003521,None,None,1881.1550120003521,None,,,,,,,,,,,,,,,,,,,,,,,,,,,,,,,,,,,76Silent,001,2022_Nov_14_1252,ProdSingRedoBetween,2021.2.3,59.96134869013011,
16,0,16,0,,,,,,,,,,,,,,,,,,,,,,,,,,1885.6569565003738,None,length,56,17,silent,blue,1883.6556778000668,None,None,1883.6556778000668,None,,,,,,,,,,,,,,,,,,,,,,,,,,,,,,,,,,,76Silent,001,2022_Nov_14_1252,ProdSingRedoBetween,2021.2.3,59.96134869013011,
17,0,17,0,,,,,,,,,,,,,,,,,,,,,,,,,,1888.1591900000349,None,entrance,33,18,silent,blue,1886.1582710007206,None,None,1886.1582710007206,None,,,,,,,,,,,,,,,,,,,,,,,,,,,,,,,,,,,76Silent,001,2022_Nov_14_1252,ProdSingRedoBetween,2021.2.3,59.96134869013011,
18,0,18,0,,,,,,,,,,,,,,,,,,,,,,,,,,1890.6618076004088,None,court,28,19,silent,yellow,1888.6609327001497,None,None,1888.6609327001497,None,,,,,,,,,,,,,,,,,,,,,,,,,,,,,,,,,,,76Silent,001,2022_Nov_14_1252,ProdSingRedoBetween,2021.2.3,59.96134869013011,
19,0,19,0,,,,,,,,,,,,,,,,,,,,,,,,,,1893.1643758006394,None,character,52,20,silent,blue,1891.1625206004828,None,None,1891.1625206004828,None,,,,,,,,,,,,,,,,,,,,,,,,,,,,,,,,,,,76Silent,001,2022_Nov_14_1252,ProdSingRedoBetween,2021.2.3,59.96134869013011,
20,0,20,0,,,,,,,,,,,,,,,,,,,,,,,,,,1895.6670430004597,None,bureau,9,21,silent,yellow,1893.6647493001074,None,None,1893.6647493001074,None,,,,,,,,,,,,,,,,,,,,,,,,,,,,,,,,,,,76Silent,001,2022_Nov_14_1252,ProdSingRedoBetween,2021.2.3,59.96134869013011,
21,0,21,0,,,,,,,,,,,,,,,,,,,,,,,,,,1898.1861800001934,None,stand,27,22,silent,yellow,1896.1724493000656,None,None,1896.1724493000656,None,,,,,,,,,,,,,,,,,,,,,,,,,,,,,,,,,,,76Silent,001,2022_Nov_14_1252,ProdSingRedoBetween,2021.2.3,59.96134869013011,
22,0,22,0,,,,,,,,,,,,,,,,,,,,,,,,,,1900.6886434005573,None,distance,73,23,silent,red,1898.6882841000333,None,None,1898.6882841000333,None,,,,,,,,,,,,,,,,,,,,,,,,,,,,,,,,,,,76Silent,001,2022_Nov_14_1252,ProdSingRedoBetween,2021.2.3,59.96134869013011,
23,0,23,0,,,,,,,,,,,,,,,,,,,,,,,,,,1903.2079993002117,None,design,88,24,silent,red,1901.1946975002065,None,None,1901.1946975002065,None,,,,,,,,,,,,,,,,,,,,,,,,,,,,,,,,,,,76Silent,001,2022_Nov_14_1252,ProdSingRedoBetween,2021.2.3,59.96134869013011,
24,0,24,0,,,,,,,,,,,,,,,,,,,,,,,,,,1905.7103465003893,None,sweet,29,25,silent,blue,1903.710454100743,None,None,1903.710454100743,None,,,,,,,,,,,,,,,,,,,,,,,,,,,,,,,,,,,76Silent,001,2022_Nov_14_1252,ProdSingRedoBetween,2021.2.3,59.96134869013011,
25,0,25,0,,,,,,,,,,,,,,,,,,,,,,,,,,1908.212876200676,None,cross,32,26,silent,blue,1906.2106681000441,None,None,1906.2106681000441,None,,,,,,,,,,,,,,,,,,,,,,,,,,,,,,,,,,,76Silent,001,2022_Nov_14_1252,ProdSingRedoBetween,2021.2.3,59.96134869013011,
26,0,26,0,,,,,,,,,,,,,,,,,,,,,,,,,,1910.731924599968,None,government,86,27,silent,red,1908.7190030999482,None,None,1908.7190030999482,None,,,,,,,,,,,,,,,,,,,,,,,,,,,,,,,,,,,76Silent,001,2022_Nov_14_1252,ProdSingRedoBetween,2021.2.3,59.96134869013011,
27,0,27,0,,,,,,,,,,,,,,,,,,,,,,,,,,1913.234375900589,None,theme,5,28,silent,yellow,1911.23258229997,None,None,1911.23258229997,None,,,,,,,,,,,,,,,,,,,,,,,,,,,,,,,,,,,76Silent,001,2022_Nov_14_1252,ProdSingRedoBetween,2021.2.3,59.96134869013011,
28,0,28,0,,,,,,,,,,,,,,,,,,,,,,,,,,1915.753763500601,None,rough,36,29,silent,blue,1913.7421890003607,None,None,1913.7421890003607,None,,,,,,,,,,,,,,,,,,,,,,,,,,,,,,,,,,,76Silent,001,2022_Nov_14_1252,ProdSingRedoBetween,2021.2.3,59.96134869013011,
29,0,29,0,,,,,,,,,,,,,,,,,,,,,,,,,,1918.2562489006668,None,figure,48,30,silent,blue,1916.2569628003985,None,None,1916.2569628003985,None,,,,,,,,,,,,,,,,,,,,,,,,,,,,,,,,,,,76Silent,001,2022_Nov_14_1252,ProdSingRedoBetween,2021.2.3,59.96134869013011,
30,0,30,0,,,,,,,,,,,,,,,,,,,,,,,,,,1920.7754482002929,None,tragedy,49,31,silent,blue,1918.7599837007,None,None,1918.7599837007,None,,,,,,,,,,,,,,,,,,,,,,,,,,,,,,,,,,,76Silent,001,2022_Nov_14_1252,ProdSingRedoBetween,2021.2.3,59.96134869013011,
31,0,31,0,,,,,,,,,,,,,,,,,,,,,,,,,,1923.2778665004298,None,month,66,32,silent,red,1921.2758827004582,None,None,1921.2758827004582,None,,,,,,,,,,,,,,,,,,,,,,,,,,,,,,,,,,,76Silent,001,2022_Nov_14_1252,ProdSingRedoBetween,2021.2.3,59.96134869013011,
32,0,32,0,,,,,,,,,,,,,,,,,,,,,,,,,,1925.780405100435,None,article,39,33,silent,blue,1923.7784592006356,None,None,1923.7784592006356,None,,,,,,,,,,,,,,,,,,,,,,,,,,,,,,,,,,,76Silent,001,2022_Nov_14_1252,ProdSingRedoBetween,2021.2.3,59.96134869013011,
33,0,33,0,,,,,,,,,,,,,,,,,,,,,,,,,,1928.2996056005359,None,society,21,34,silent,yellow,1926.2845791000873,None,None,1926.2845791000873,None,,,,,,,,,,,,,,,,,,,,,,,,,,,,,,,,,,,76Silent,001,2022_Nov_14_1252,ProdSingRedoBetween,2021.2.3,59.96134869013011,
34,0,34,0,,,,,,,,,,,,,,,,,,,,,,,,,,1930.8188674002886,None,finance,11,35,silent,yellow,1928.8048756001517,None,None,1928.8048756001517,None,,,,,,,,,,,,,,,,,,,,,,,,,,,,,,,,,,,76Silent,001,2022_Nov_14_1252,ProdSingRedoBetween,2021.2.3,59.96134869013011,
35,0,35,0,,,,,,,,,,,,,,,,,,,,,,,,,,1933.3378947004676,None,impact,82,36,silent,red,1931.322348200716,None,None,1931.322348200716,None,,,,,,,,,,,,,,,,,,,,,,,,,,,,,,,,,,,76Silent,001,2022_Nov_14_1252,ProdSingRedoBetween,2021.2.3,59.96134869013011,
36,0,36,0,,,,,,,,,,,,,,,,,,,,,,,,,,1935.8404569001868,None,employment,83,37,silent,red,1933.8383055999875,None,None,1933.8383055999875,None,,,,,,,,,,,,,,,,,,,,,,,,,,,,,,,,,,,76Silent,001,2022_Nov_14_1252,ProdSingRedoBetween,2021.2.3,59.96134869013011,
37,0,37,0,,,,,,,,,,,,,,,,,,,,,,,,,,1938.342880900018,None,course,31,38,silent,blue,1936.341628400609,None,None,1936.341628400609,None,,,,,,,,,,,,,,,,,,,,,,,,,,,,,,,,,,,76Silent,001,2022_Nov_14_1252,ProdSingRedoBetween,2021.2.3,59.96134869013011,
38,0,38,0,,,,,,,,,,,,,,,,,,,,,,,,,,1940.8455126006156,None,fellow,8,39,silent,yellow,1938.8442327007651,None,None,1938.8442327007651,None,,,,,,,,,,,,,,,,,,,,,,,,,,,,,,,,,,,76Silent,001,2022_Nov_14_1252,ProdSingRedoBetween,2021.2.3,59.96134869013011,
39,0,39,0,,,,,,,,,,,,,,,,,,,,,,,,,,1943.3479484999552,None,profession,4,40,silent,yellow,1941.3459906000644,None,None,1941.3459906000644,None,,,,,,,,,,,,,,,,,,,,,,,,,,,,,,,,,,,76Silent,001,2022_Nov_14_1252,ProdSingRedoBetween,2021.2.3,59.96134869013011,
40,0,40,0,,,,,,,,,,,,,,,,,,,,,,,,,,1945.867124600336,None,junior,51,41,silent,blue,1943.8580221002921,None,None,1943.8580221002921,None,,,,,,,,,,,,,,,,,,,,,,,,,,,,,,,,,,,76Silent,001,2022_Nov_14_1252,ProdSingRedoBetween,2021.2.3,59.96134869013011,
41,0,41,0,,,,,,,,,,,,,,,,,,,,,,,,,,1948.386193900369,None,heavy,76,42,silent,red,1946.371025500819,None,None,1946.371025500819,None,,,,,,,,,,,,,,,,,,,,,,,,,,,,,,,,,,,76Silent,001,2022_Nov_14_1252,ProdSingRedoBetween,2021.2.3,59.96134869013011,
42,0,42,0,,,,,,,,,,,,,,,,,,,,,,,,,,1950.9054780006409,None,growth,80,43,silent,red,1948.8923920001835,None,None,1948.8923920001835,None,,,,,,,,,,,,,,,,,,,,,,,,,,,,,,,,,,,76Silent,001,2022_Nov_14_1252,ProdSingRedoBetween,2021.2.3,59.96134869013011,
43,0,43,0,,,,,,,,,,,,,,,,,,,,,,,,,,1953.4076243005693,None,couch,26,44,silent,yellow,1951.4059152007103,None,None,1951.4059152007103,None,,,,,,,,,,,,,,,,,,,,,,,,,,,,,,,,,,,76Silent,001,2022_Nov_14_1252,ProdSingRedoBetween,2021.2.3,59.96134869013011,
44,0,44,0,,,,,,,,,,,,,,,,,,,,,,,,,,1955.9102322002873,None,charter,1,45,silent,yellow,1953.9083249000832,None,None,1953.9083249000832,None,,,,,,,,,,,,,,,,,,,,,,,,,,,,,,,,,,,76Silent,001,2022_Nov_14_1252,ProdSingRedoBetween,2021.2.3,59.96134869013011,
45,0,45,0,,,,,,,,,,,,,,,,,,,,,,,,,,1958.4127639001235,None,object,55,46,silent,blue,1956.411645100452,None,None,1956.411645100452,None,,,,,,,,,,,,,,,,,,,,,,,,,,,,,,,,,,,76Silent,001,2022_Nov_14_1252,ProdSingRedoBetween,2021.2.3,59.96134869013011,
46,0,46,0,,,,,,,,,,,,,,,,,,,,,,,,,,1960.9321837006137,None,company,3,47,silent,yellow,1958.921612800099,None,None,1958.921612800099,None,,,,,,,,,,,,,,,,,,,,,,,,,,,,,,,,,,,76Silent,001,2022_Nov_14_1252,ProdSingRedoBetween,2021.2.3,59.96134869013011,
47,0,47,0,,,,,,,,,,,,,,,,,,,,,,,,,,1963.4513682005927,None,majority,75,48,silent,red,1961.436313699931,None,None,1961.436313699931,None,,,,,,,,,,,,,,,,,,,,,,,,,,,,,,,,,,,76Silent,001,2022_Nov_14_1252,ProdSingRedoBetween,2021.2.3,59.96134869013011,
48,0,48,0,,,,,,,,,,,,,,,,,,,,,,,,,,1965.95363930054,None,department,16,49,silent,yellow,1963.9541791006923,None,None,1963.9541791006923,None,,,,,,,,,,,,,,,,,,,,,,,,,,,,,,,,,,,76Silent,001,2022_Nov_14_1252,ProdSingRedoBetween,2021.2.3,59.96134869013011,
49,0,49,0,,,,,,,,,,,,,,,,,,,,,,,,,,1968.4729571007192,None,threat,53,50,silent,blue,1966.4573357999325,None,None,1966.4573357999325,None,,,,,,,,,,,,,,,,,,,,,,,,,,,,,,,,,,,76Silent,001,2022_Nov_14_1252,ProdSingRedoBetween,2021.2.3,59.96134869013011,
50,0,50,0,,,,,,,,,,,,,,,,,,,,,,,,,,1970.9754293002188,None,agreement,87,51,silent,red,1968.9734863005579,None,None,1968.9734863005579,None,,,,,,,,,,,,,,,,,,,,,,,,,,,,,,,,,,,76Silent,001,2022_Nov_14_1252,ProdSingRedoBetween,2021.2.3,59.96134869013011,
51,0,51,0,,,,,,,,,,,,,,,,,,,,,,,,,,1973.4947514003143,None,plane,25,52,silent,yellow,1971.479519000277,None,None,1971.479519000277,None,,,,,,,,,,,,,,,,,,,,,,,,,,,,,,,,,,,76Silent,001,2022_Nov_14_1252,ProdSingRedoBetween,2021.2.3,59.96134869013011,
52,0,52,0,,,,,,,,,,,,,,,,,,,,,,,,,,1976.0137816006318,None,pattern,42,53,silent,blue,1973.9985418999568,None,None,1973.9985418999568,None,,,,,,,,,,,,,,,,,,,,,,,,,,,,,,,,,,,76Silent,001,2022_Nov_14_1252,ProdSingRedoBetween,2021.2.3,59.96134869013011,
53,0,53,0,,,,,,,,,,,,,,,,,,,,,,,,,,1978.516420500353,None,material,44,54,silent,blue,1976.5143726002425,None,None,1976.5143726002425,None,,,,,,,,,,,,,,,,,,,,,,,,,,,,,,,,,,,76Silent,001,2022_Nov_14_1252,ProdSingRedoBetween,2021.2.3,59.96134869013011,
54,0,54,0,,,,,,,,,,,,,,,,,,,,,,,,,,1981.0353842005134,None,brief,35,55,silent,blue,1979.0202457001433,None,None,1979.0202457001433,None,,,,,,,,,,,,,,,,,,,,,,,,,,,,,,,,,,,76Silent,001,2022_Nov_14_1252,ProdSingRedoBetween,2021.2.3,59.96134869013011,
55,0,55,0,,,,,,,,,,,,,,,,,,,,,,,,,,1983.5548592004925,None,error,40,56,silent,blue,1981.5394672006369,None,None,1981.5394672006369,None,,,,,,,,,,,,,,,,,,,,,,,,,,,,,,,,,,,76Silent,001,2022_Nov_14_1252,ProdSingRedoBetween,2021.2.3,59.96134869013011,
56,0,56,0,,,,,,,,,,,,,,,,,,,,,,,,,,1986.057152500376,None,addition,74,57,silent,red,1984.0552440006286,None,None,1984.0552440006286,None,,,,,,,,,,,,,,,,,,,,,,,,,,,,,,,,,,,76Silent,001,2022_Nov_14_1252,ProdSingRedoBetween,2021.2.3,59.96134869013011,
57,0,57,0,,,,,,,,,,,,,,,,,,,,,,,,,,1988.5597485005856,None,symbol,17,58,silent,yellow,1986.5576277999207,None,None,1986.5576277999207,None,,,,,,,,,,,,,,,,,,,,,,,,,,,,,,,,,,,76Silent,001,2022_Nov_14_1252,ProdSingRedoBetween,2021.2.3,59.96134869013011,
58,0,58,0,,,,,,,,,,,,,,,,,,,,,,,,,,1991.0620785001665,None,force,10,59,silent,yellow,1989.0608236007392,None,None,1989.0608236007392,None,,,,,,,,,,,,,,,,,,,,,,,,,,,,,,,,,,,76Silent,001,2022_Nov_14_1252,ProdSingRedoBetween,2021.2.3,59.96134869013011,
59,0,59,0,,,,,,,,,,,,,,,,,,,,,,,,,,1993.581364100799,None,universal,60,60,silent,red,1991.569264500402,None,None,1991.569264500402,None,,,,,,,,,,,,,,,,,,,,,,,,,,,,,,,,,,,76Silent,001,2022_Nov_14_1252,ProdSingRedoBetween,2021.2.3,59.96134869013011,
60,0,60,0,,,,,,,,,,,,,,,,,,,,,,,,,,1996.1004842007533,None,congress,30,61,silent,blue,1994.0853876005858,None,None,1994.0853876005858,None,,,,,,,,,,,,,,,,,,,,,,,,,,,,,,,,,,,76Silent,001,2022_Nov_14_1252,ProdSingRedoBetween,2021.2.3,59.96134869013011,
61,0,61,0,,,,,,,,,,,,,,,,,,,,,,,,,,1998.6031395001337,None,pretty,13,62,silent,yellow,1996.6025682007894,None,None,1996.6025682007894,None,,,,,,,,,,,,,,,,,,,,,,,,,,,,,,,,,,,76Silent,001,2022_Nov_14_1252,ProdSingRedoBetween,2021.2.3,59.96134869013011,
62,0,62,0,,,,,,,,,,,,,,,,,,,,,,,,,,2001.1221339004114,None,instrument,69,63,silent,red,1999.1067587006837,None,None,1999.1067587006837,None,,,,,,,,,,,,,,,,,,,,,,,,,,,,,,,,,,,76Silent,001,2022_Nov_14_1252,ProdSingRedoBetween,2021.2.3,59.96134869013011,
63,0,63,0,,,,,,,,,,,,,,,,,,,,,,,,,,2003.641268200241,None,shock,65,64,silent,red,2001.627871000208,None,None,2001.627871000208,None,,,,,,,,,,,,,,,,,,,,,,,,,,,,,,,,,,,76Silent,001,2022_Nov_14_1252,ProdSingRedoBetween,2021.2.3,59.96134869013011,
64,0,64,0,,,,,,,,,,,,,,,,,,,,,,,,,,2006.1605956004933,None,turkey,50,65,silent,blue,2004.1500436002389,None,None,2004.1500436002389,None,,,,,,,,,,,,,,,,,,,,,,,,,,,,,,,,,,,76Silent,001,2022_Nov_14_1252,ProdSingRedoBetween,2021.2.3,59.96134869013011,
65,0,65,0,,,,,,,,,,,,,,,,,,,,,,,,,,2008.679822999984,None,clear,19,66,silent,yellow,2006.6644181003794,None,None,2006.6644181003794,None,,,,,,,,,,,,,,,,,,,,,,,,,,,,,,,,,,,76Silent,001,2022_Nov_14_1252,ProdSingRedoBetween,2021.2.3,59.96134869013011,
66,0,66,0,,,,,,,,,,,,,,,,,,,,,,,,,,2011.1823682002723,None,murder,24,67,silent,yellow,2009.1824880000204,None,None,2009.1824880000204,None,,,,,,,,,,,,,,,,,,,,,,,,,,,,,,,,,,,76Silent,001,2022_Nov_14_1252,ProdSingRedoBetween,2021.2.3,59.96134869013011,
67,0,67,0,,,,,,,,,,,,,,,,,,,,,,,,,,2013.6846636002883,None,cover,89,68,silent,red,2011.6835388001055,None,None,2011.6835388001055,None,,,,,,,,,,,,,,,,,,,,,,,,,,,,,,,,,,,76Silent,001,2022_Nov_14_1252,ProdSingRedoBetween,2021.2.3,59.96134869013011,
68,0,68,0,,,,,,,,,,,,,,,,,,,,,,,,,,2016.187260299921,None,resistance,81,69,silent,red,2014.1873946003616,None,None,2014.1873946003616,None,,,,,,,,,,,,,,,,,,,,,,,,,,,,,,,,,,,76Silent,001,2022_Nov_14_1252,ProdSingRedoBetween,2021.2.3,59.96134869013011,
69,0,69,0,,,,,,,,,,,,,,,,,,,,,,,,,,2018.7063466003165,None,match,23,70,silent,yellow,2016.694959600456,None,None,2016.694959600456,None,,,,,,,,,,,,,,,,,,,,,,,,,,,,,,,,,,,76Silent,001,2022_Nov_14_1252,ProdSingRedoBetween,2021.2.3,59.96134869013011,
70,0,70,0,,,,,,,,,,,,,,,,,,,,,,,,,,2021.208926600404,None,balance,63,71,silent,red,2019.2069178000093,None,None,2019.2069178000093,None,,,,,,,,,,,,,,,,,,,,,,,,,,,,,,,,,,,76Silent,001,2022_Nov_14_1252,ProdSingRedoBetween,2021.2.3,59.96134869013011,
71,0,71,0,,,,,,,,,,,,,,,,,,,,,,,,,,2023.7281714007258,None,block,6,72,silent,yellow,2021.719038600102,None,None,2021.719038600102,None,,,,,,,,,,,,,,,,,,,,,,,,,,,,,,,,,,,76Silent,001,2022_Nov_14_1252,ProdSingRedoBetween,2021.2.3,59.96134869013011,
72,0,72,0,,,,,,,,,,,,,,,,,,,,,,,,,,2026.230274300091,None,device,0,73,silent,yellow,2024.2311708005145,None,None,2024.2311708005145,None,,,,,,,,,,,,,,,,,,,,,,,,,,,,,,,,,,,76Silent,001,2022_Nov_14_1252,ProdSingRedoBetween,2021.2.3,59.96134869013011,
73,0,73,0,,,,,,,,,,,,,,,,,,,,,,,,,,2028.7496899003163,None,present,45,74,silent,blue,2026.73468340002,None,None,2026.73468340002,None,,,,,,,,,,,,,,,,,,,,,,,,,,,,,,,,,,,76Silent,001,2022_Nov_14_1252,ProdSingRedoBetween,2021.2.3,59.96134869013011,
74,0,74,0,,,,,,,,,,,,,,,,,,,,,,,,,,2031.2522121006623,None,pressure,14,75,silent,yellow,2029.2500573005527,None,None,2029.2500573005527,None,,,,,,,,,,,,,,,,,,,,,,,,,,,,,,,,,,,76Silent,001,2022_Nov_14_1252,ProdSingRedoBetween,2021.2.3,59.96134869013011,
75,0,75,0,,,,,,,,,,,,,,,,,,,,,,,,,,2033.7548004006967,None,orchestra,54,76,silent,blue,2031.7524453001097,None,None,2031.7524453001097,None,,,,,,,,,,,,,,,,,,,,,,,,,,,,,,,,,,,76Silent,001,2022_Nov_14_1252,ProdSingRedoBetween,2021.2.3,59.96134869013011,
76,0,76,0,,,,,,,,,,,,,,,,,,,,,,,,,,2036.2738800002262,None,clean,18,77,silent,yellow,2034.2585370000452,None,None,2034.2585370000452,None,,,,,,,,,,,,,,,,,,,,,,,,,,,,,,,,,,,76Silent,001,2022_Nov_14_1252,ProdSingRedoBetween,2021.2.3,59.96134869013011,
77,0,77,0,,,,,,,,,,,,,,,,,,,,,,,,,,2038.7764573004097,None,direction,43,78,silent,blue,2036.7744173007086,None,None,2036.7744173007086,None,,,,,,,,,,,,,,,,,,,,,,,,,,,,,,,,,,,76Silent,001,2022_Nov_14_1252,ProdSingRedoBetween,2021.2.3,59.96134869013011,
78,0,78,0,,,,,,,,,,,,,,,,,,,,,,,,,,2041.2954454999417,None,permit,84,79,silent,red,2039.28293720074,None,None,2039.28293720074,None,,,,,,,,,,,,,,,,,,,,,,,,,,,,,,,,,,,76Silent,001,2022_Nov_14_1252,ProdSingRedoBetween,2021.2.3,59.96134869013011,
79,0,79,0,,,,,,,,,,,,,,,,,,,,,,,,,,2043.7978978008032,None,waste,20,80,silent,yellow,2041.7961734002456,None,None,2041.7961734002456,None,,,,,,,,,,,,,,,,,,,,,,,,,,,,,,,,,,,76Silent,001,2022_Nov_14_1252,ProdSingRedoBetween,2021.2.3,59.96134869013011,
80,0,80,0,,,,,,,,,,,,,,,,,,,,,,,,,,2046.3005455005914,None,country,15,81,silent,yellow,2044.2986139003187,None,None,2044.2986139003187,None,,,,,,,,,,,,,,,,,,,,,,,,,,,,,,,,,,,76Silent,001,2022_Nov_14_1252,ProdSingRedoBetween,2021.2.3,59.96134869013011,
81,0,81,0,,,,,,,,,,,,,,,,,,,,,,,,,,2048.803095499985,None,brilliant,41,82,silent,blue,2046.8029107004404,None,None,2046.8029107004404,None,,,,,,,,,,,,,,,,,,,,,,,,,,,,,,,,,,,76Silent,001,2022_Nov_14_1252,ProdSingRedoBetween,2021.2.3,59.96134869013011,
82,0,82,0,,,,,,,,,,,,,,,,,,,,,,,,,,2051.305512100458,None,evidence,85,83,silent,red,2049.3054054006934,None,None,2049.3054054006934,None,,,,,,,,,,,,,,,,,,,,,,,,,,,,,,,,,,,76Silent,001,2022_Nov_14_1252,ProdSingRedoBetween,2021.2.3,59.96134869013011,
83,0,83,0,,,,,,,,,,,,,,,,,,,,,,,,,,2053.8247454008088,None,strain,58,84,silent,blue,2051.8095434000716,None,None,2051.8095434000716,None,,,,,,,,,,,,,,,,,,,,,,,,,,,,,,,,,,,76Silent,001,2022_Nov_14_1252,ProdSingRedoBetween,2021.2.3,59.96134869013011,
84,0,84,0,,,,,,,,,,,,,,,,,,,,,,,,,,2056.327272100374,None,audience,57,85,silent,blue,2054.3252922007814,None,None,2054.3252922007814,None,,,,,,,,,,,,,,,,,,,,,,,,,,,,,,,,,,,76Silent,001,2022_Nov_14_1252,ProdSingRedoBetween,2021.2.3,59.96134869013011,
85,0,85,0,,,,,,,,,,,,,,,,,,,,,,,,,,2058.829828900285,None,south,68,86,silent,red,2056.8298275005072,None,None,2056.8298275005072,None,,,,,,,,,,,,,,,,,,,,,,,,,,,,,,,,,,,76Silent,001,2022_Nov_14_1252,ProdSingRedoBetween,2021.2.3,59.96134869013011,
86,0,86,0,,,,,,,,,,,,,,,,,,,,,,,,,,2061.3488607006148,None,trial,47,87,silent,blue,2059.3352691000327,None,None,2059.3352691000327,None,,,,,,,,,,,,,,,,,,,,,,,,,,,,,,,,,,,76Silent,001,2022_Nov_14_1252,ProdSingRedoBetween,2021.2.3,59.96134869013011,
87,0,87,0,,,,,,,,,,,,,,,,,,,,,,,,,,2063.851481700316,None,little,77,88,silent,red,2061.849268500693,None,None,2061.849268500693,None,,,,,,,,,,,,,,,,,,,,,,,,,,,,,,,,,,,76Silent,001,2022_Nov_14_1252,ProdSingRedoBetween,2021.2.3,59.96134869013011,
88,0,88,0,,,,,,,,,,,,,,,,,,,,,,,,,,2066.3536324007437,None,principal,22,89,silent,yellow,2064.351914400235,None,None,2064.351914400235,None,,,,,,,,,,,,,,,,,,,,,,,,,,,,,,,,,,,76Silent,001,2022_Nov_14_1252,ProdSingRedoBetween,2021.2.3,59.96134869013011,
89,0,89,0,,,,,,,,,,,,,,,,,,,,,,,,,,2068.8563230000436,None,benefit,34,90,silent,blue,2066.8544012000784,None,None,2066.8544012000784,None,,,,,,,,,,,,,,,,,,,,,,,,,,,,,,,,,,,76Silent,001,2022_Nov_14_1252,ProdSingRedoBetween,2021.2.3,59.96134869013011,
,,,,,,,,,,,,,,,,,,,,,,,,,,,,,,,,,,,,,,,,,2069.357141500339,None,k,57.2141835000366,2069.357141500339,None,,,,,,,,,,,,,,,,,,,,,,,,,,,,,76Silent,001,2022_Nov_14_1252,ProdSingRedoBetween,2021.2.3,59.96134869013011,
,,,,0,0,0,0,,,,,,,,,,,,,,,,,,,,,,2146.7006729999557,None,,,,,,,,,,,,,,,,,congress,30,1,silent,old,blue,2127.1100104004145,None,2127.1100104004145,None,6,8.013097499497235,2127.1100104004145,None,8.013097499497235,2135.1460895007476,None,2135.6630583005026,None,2135.6630583005026,None,r,11.01993879955262,2135.6630583005026,None,11.01993879955262,,,76Silent,001,2022_Nov_14_1252,ProdSingRedoBetween,2021.2.3,59.96134869013011,
,,,,1,0,1,0,,,,,,,,,,,,,,,,,,,,,,2155.626217599958,None,,,,,,,,,,,,,,,,,express,117,2,silent,new,null,2147.209722700529,None,2147.209722700529,None,6,6.289696499705315,2147.209722700529,None,6.289696499705315,2153.5284281000495,None,2154.0444677006453,None,2154.0444677006453,None,r,1.5665397001430392,2154.0444677006453,None,1.5665397001430392,,,76Silent,001,2022_Nov_14_1252,ProdSingRedoBetween,2021.2.3,59.96134869013011,
,,,,2,0,2,0,,,,,,,,,,,,,,,,,,,,,,2161.4826635001227,None,,,,,,,,,,,,,,,,,hearing,95,3,silent,new,null,2156.133111100644,None,2156.133111100644,None,2,3.1660524997860193,2156.133111100644,None,3.1660524997860193,2159.332718499936,None,2159.847189400345,None,2159.847189400345,None,n,1.6198773002251983,2159.847189400345,None,1.6198773002251983,,,76Silent,001,2022_Nov_14_1252,ProdSingRedoBetween,2021.2.3,59.96134869013011,
,,,,3,0,3,0,,,,,,,,,,,,,,,,,,,,,,2166.053329400718,None,,,,,,,,,,,,,,,,,tragedy,49,4,silent,old,blue,2161.9929160000756,None,2161.9929160000756,None,6,2.3861119002103806,2161.9929160000756,None,2.3861119002103806,2164.4028171002865,None,2164.9022377002984,None,2164.9022377002984,None,r,1.1247350005432963,2164.9022377002984,None,1.1247350005432963,,,76Silent,001,2022_Nov_14_1252,ProdSingRedoBetween,2021.2.3,59.96134869013011,
,,,,4,0,4,0,,,,,,,,,,,,,,,,,,,,,,2171.275144200772,None,,,,,,,,,,,,,,,,,strength,120,5,silent,new,null,2166.5612967005,None,2166.5612967005,None,5,2.8418050007894635,2166.5612967005,None,2.8418050007894635,2169.432537900284,None,2169.9420803003013,None,2169.9420803003013,None,f,1.3089445997029543,2169.9420803003013,None,1.3089445997029543,,,76Silent,001,2022_Nov_14_1252,ProdSingRedoBetween,2021.2.3,59.96134869013011,
,,,,5,0,5,0,,,,,,,,,,,,,,,,,,,,,,2177.1976433005184,None,,,,,,,,,,,,,,,,,match,23,6,silent,old,yellow,2171.775645200163,None,2171.775645200163,None,4,3.1155735002830625,2171.775645200163,None,3.1155735002830625,2174.9135525003076,None,2175.4151306999847,None,2175.4151306999847,None,f,1.7558489004150033,2175.4151306999847,None,1.7558489004150033,,,76Silent,001,2022_Nov_14_1252,ProdSingRedoBetween,2021.2.3,59.96134869013011,
,,,,6,0,6,0,,,,,,,,,,,,,,,,,,,,,,2182.920126300305,None,,,,,,,,,,,,,,,,,reach,132,7,silent,new,null,2177.7053253008053,None,2177.7053253008053,None,1,2.76171309966594,2177.7053253008053,None,2.76171309966594,2180.4854103000835,None,2180.9902982003987,None,2180.9902982003987,None,n,1.9006268000230193,2180.9902982003987,None,1.9006268000230193,,,76Silent,001,2022_Nov_14_1252,ProdSingRedoBetween,2021.2.3,59.96134869013011,
,,,,7,0,7,0,,,,,,,,,,,,,,,,,,,,,,2186.6571712000296,None,,,,,,,,,,,,,,,,,length,56,8,silent,old,blue,2183.4288389002904,None,2183.4288389002904,None,6,1.8303501000627875,2183.4288389002904,None,1.8303501000627875,2185.2901079999283,None,2185.794916400686,None,2185.794916400686,None,r,0.8322272002696991,2185.794916400686,None,0.8322272002696991,,,76Silent,001,2022_Nov_14_1252,ProdSingRedoBetween,2021.2.3,59.96134869013011,
,,,,8,0,8,0,,,,,,,,,,,,,,,,,,,,,,2190.4302121000364,None,,,,,,,,,,,,,,,,,suggestion,141,9,silent,new,null,2187.166153500788,None,2187.166153500788,None,6,1.7968217004090548,2187.166153500788,None,1.7968217004090548,2188.9939694004133,None,2189.507416700013,None,2189.507416700013,None,r,0.903639399446547,2189.507416700013,None,0.903639399446547,,,76Silent,001,2022_Nov_14_1252,ProdSingRedoBetween,2021.2.3,59.96134869013011,
,,,,9,0,9,0,,,,,,,,,,,,,,,,,,,,,,2195.582507800311,None,,,,,,,,,,,,,,,,,edition,119,10,silent,new,null,2190.950637999922,None,2190.950637999922,None,1,3.1963199004530907,2190.950637999922,None,3.1963199004530907,2194.1646679006517,None,2194.665285100229,None,2194.665285100229,None,n,0.8977683000266552,2194.665285100229,None,0.8977683000266552,,,76Silent,001,2022_Nov_14_1252,ProdSingRedoBetween,2021.2.3,59.96134869013011,
,,,,10,0,10,0,,,,,,,,,,,,,,,,,,,,,,2199.620102500543,None,,,,,,,,,,,,,,,,,sight,173,11,silent,new,null,2196.092626900412,None,2196.092626900412,None,1,1.56634739972651,2196.092626900412,None,1.56634739972651,2197.6864919001237,None,2198.2050897004083,None,2198.2050897004083,None,n,1.3899053996428847,2198.2050897004083,None,1.3899053996428847,,,76Silent,001,2022_Nov_14_1252,ProdSingRedoBetween,2021.2.3,59.96134869013011,
,,,,11,0,11,0,,,,,,,,,,,,,,,,,,,,,,2204.2913726000115,None,,,,,,,,,,,,,,,,,review,72,12,silent,old,red,2200.1238291999325,None,2200.1238291999325,None,6,2.6872105998918414,2200.1238291999325,None,2.6872105998918414,2202.8627475006506,None,2203.3775323005393,None,2203.3775323005393,None,r,0.897426700219512,2203.3775323005393,None,0.897426700219512,,,76Silent,001,2022_Nov_14_1252,ProdSingRedoBetween,2021.2.3,59.96134869013011,
,,,,12,0,12,0,,,,,,,,,,,,,,,,,,,,,,2208.4622428007424,None,,,,,,,,,,,,,,,,,force,10,13,silent,old,yellow,2204.800086500123,None,2204.800086500123,None,4,2.0668329000473022,2204.800086500123,None,2.0668329000473022,2206.894881499931,None,2207.398370400071,None,2207.398370400071,None,f,1.036641700193286,2207.398370400071,None,1.036641700193286,,,76Silent,001,2022_Nov_14_1252,ProdSingRedoBetween,2021.2.3,59.96134869013011,
,,,,13,0,13,0,,,,,,,,,,,,,,,,,,,,,,2211.9155232999474,None,,,,,,,,,,,,,,,,,nation,139,14,silent,new,null,2208.973150600679,None,2208.973150600679,None,6,1.789700299501419,2208.973150600679,None,1.789700299501419,2210.7815674003214,None,2211.2854631002992,None,2211.2854631002992,None,r,0.6134324995800853,2211.2854631002992,None,0.6134324995800853,,,76Silent,001,2022_Nov_14_1252,ProdSingRedoBetween,2021.2.3,59.96134869013011,
,,,,14,0,14,0,,,,,,,,,,,,,,,,,,,,,,2215.20230920054,None,,,,,,,,,,,,,,,,,company,3,15,silent,old,yellow,2212.417254500091,None,2212.417254500091,None,6,1.7056917995214462,2212.417254500091,None,1.7056917995214462,2214.1522925999016,None,2214.6519389003515,None,2214.6519389003515,None,r,0.5270512001588941,2214.6519389003515,None,0.5270512001588941,,,76Silent,001,2022_Nov_14_1252,ProdSingRedoBetween,2021.2.3,59.96134869013011,
,,,,15,0,15,0,,,,,,,,,,,,,,,,,,,,,,2219.4563128007576,None,,,,,,,,,,,,,,,,,vision,123,16,silent,new,null,2215.7151126004755,None,2215.7151126004755,None,5,2.151823000051081,2215.7151126004755,None,2.151823000051081,2217.8917582007125,None,2218.4082335000858,None,2218.4082335000858,None,f,1.0187738994136453,2218.4082335000858,None,1.0187738994136453,,,76Silent,001,2022_Nov_14_1252,ProdSingRedoBetween,2021.2.3,59.96134869013011,
,,,,16,0,16,0,,,,,,,,,,,,,,,,,,,,,,2225.595817000605,None,,,,,,,,,,,,,,,,,birth,64,17,silent,old,red,2219.9593935003504,None,2219.9593935003504,None,3,3.61954740062356,2219.9593935003504,None,3.61954740062356,2223.5966857001185,None,2224.111957400106,None,2224.111957400106,None,n,1.4590793000534177,2224.111957400106,None,1.4590793000534177,,,76Silent,001,2022_Nov_14_1252,ProdSingRedoBetween,2021.2.3,59.96134869013011,
,,,,17,0,17,0,,,,,,,,,,,,,,,,,,,,,,2228.9660458005965,None,,,,,,,,,,,,,,,,,couch,26,18,silent,old,yellow,2226.101619100198,None,2226.101619100198,None,6,1.8133252002298832,2226.101619100198,None,1.8133252002298832,2227.9316832004115,None,2228.4365881001577,None,2228.4365881001577,None,r,0.5022909007966518,2228.4365881001577,None,0.5022909007966518,,,76Silent,001,2022_Nov_14_1252,ProdSingRedoBetween,2021.2.3,59.96134869013011,
,,,,18,0,18,0,,,,,,,,,,,,,,,,,,,,,,2234.621680000797,None,,,,,,,,,,,,,,,,,signal,154,19,silent,new,null,2229.473553299904,None,2229.473553299904,None,3,3.017388199456036,2229.473553299904,None,3.017388199456036,2232.5205709999427,None,2233.0256943004206,None,2233.0256943004206,None,n,1.5692139007151127,2233.0256943004206,None,1.5692139007151127,,,76Silent,001,2022_Nov_14_1252,ProdSingRedoBetween,2021.2.3,59.96134869013011,
,,,,19,0,19,0,,,,,,,,,,,,,,,,,,,,,,2239.1259294999763,None,,,,,,,,,,,,,,,,,household,46,20,silent,old,blue,2235.126782200299,None,2235.126782200299,None,4,2.4921971997246146,2235.126782200299,None,2.4921971997246146,2237.642541900277,None,2238.1419536005706,None,2238.1419536005706,None,f,0.9569348003715277,2238.1419536005706,None,0.9569348003715277,,,76Silent,001,2022_Nov_14_1252,ProdSingRedoBetween,2021.2.3,59.96134869013011,
,,,,20,0,20,0,,,,,,,,,,,,,,,,,,,,,,2242.779755100608,None,,,,,,,,,,,,,,,,,piece,104,21,silent,new,null,2239.6265922002494,None,2239.6265922002494,None,5,1.8082811003550887,2239.6265922002494,None,1.8082811003550887,2241.4616264002398,None,2241.962545200251,None,2241.962545200251,None,f,0.8002977995201945,2241.962545200251,None,0.8002977995201945,,,76Silent,001,2022_Nov_14_1252,ProdSingRedoBetween,2021.2.3,59.96134869013011,
,,,,21,0,21,0,,,,,,,,,,,,,,,,,,,,,,2252.0224093999714,None,,,,,,,,,,,,,,,,,trash,171,22,silent,new,null,2243.2869188999757,None,2243.2869188999757,None,3,4.691970499232411,2243.2869188999757,None,4.691970499232411,2248.002776500769,None,2248.5062657007948,None,2248.5062657007948,None,n,3.4885382000356913,2248.5062657007948,None,3.4885382000356913,,,76Silent,001,2022_Nov_14_1252,ProdSingRedoBetween,2021.2.3,59.96134869013011,
,,,,22,0,22,0,,,,,,,,,,,,,,,,,,,,,,2255.6594083001837,None,,,,,,,,,,,,,,,,,thing,133,23,silent,new,null,2252.5290647000074,None,2252.5290647000074,None,1,1.7379938997328281,2252.5290647000074,None,1.7379938997328281,2254.3026339001954,None,2254.813050800003,None,2254.813050800003,None,n,0.8298891000449657,2254.813050800003,None,0.8298891000449657,,,76Silent,001,2022_Nov_14_1252,ProdSingRedoBetween,2021.2.3,59.96134869013011,
,,,,23,0,23,0,,,,,,,,,,,,,,,,,,,,,,2260.6142718000337,None,,,,,,,,,,,,,,,,,expansion,134,24,silent,new,null,2256.175090400502,None,2256.175090400502,None,1,2.9317835001274943,2256.175090400502,None,2.9317835001274943,2259.1317404005677,None,2259.6527792001143,None,2259.6527792001143,None,n,0.9421339994296432,2259.6527792001143,None,0.9421339994296432,,,76Silent,001,2022_Nov_14_1252,ProdSingRedoBetween,2021.2.3,59.96134869013011,
,,,,24,0,24,0,,,,,,,,,,,,,,,,,,,,,,2264.067786199972,None,,,,,,,,,,,,,,,,,question,130,25,silent,new,null,2261.125914300792,None,2261.125914300792,None,6,2.028890600427985,2261.125914300792,None,2.028890600427985,2263.1874040002003,None,2263.7008549999446,None,2263.7008549999446,None,r,0.34208779968321323,2263.7008549999446,None,0.34208779968321323,,,76Silent,001,2022_Nov_14_1252,ProdSingRedoBetween,2021.2.3,59.96134869013011,
,,,,25,0,25,0,,,,,,,,,,,,,,,,,,,,,,2269.639884999953,None,,,,,,,,,,,,,,,,,number,126,26,silent,new,null,2264.5738189006224,None,2264.5738189006224,None,3,2.581017700023949,2264.5738189006224,None,2.581017700023949,2267.170636200346,None,2267.671438000165,None,2267.671438000165,None,f,1.939555300399661,2267.671438000165,None,1.939555300399661,,,76Silent,001,2022_Nov_14_1252,ProdSingRedoBetween,2021.2.3,59.96134869013011,
,,,,26,0,26,0,,,,,,,,,,,,,,,,,,,,,,2273.460434300825,None,,,,,,,,,,,,,,,,,taste,78,27,silent,old,red,2270.142446800135,None,2270.142446800135,None,5,2.252326600253582,2270.142446800135,None,2.252326600253582,2272.4281402006745,None,2272.94333820045,None,2272.94333820045,None,f,0.4915423998609185,2272.94333820045,None,0.4915423998609185,,,76Silent,001,2022_Nov_14_1252,ProdSingRedoBetween,2021.2.3,59.96134869013011,
,,,,27,0,27,0,,,,,,,,,,,,,,,,,,,,,,2276.2298707002774,None,,,,,,,,,,,,,,,,,pretty,13,28,silent,old,yellow,2273.963794800453,None,2273.963794800453,None,6,1.3910908997058868,2273.963794800453,None,1.3910908997058868,2275.3826810000464,None,2275.9049459006637,None,2275.9049459006637,None,r,0.30591849982738495,2275.9049459006637,None,0.30591849982738495,,,76Silent,001,2022_Nov_14_1252,ProdSingRedoBetween,2021.2.3,59.96134869013011,
,,,,28,0,28,0,,,,,,,,,,,,,,,,,,,,,,2280.217157999985,None,,,,,,,,,,,,,,,,,member,114,29,silent,new,null,2276.7320790002123,None,2276.7320790002123,None,6,2.6148009998723865,2276.7320790002123,None,2.6148009998723865,2279.369467300363,None,2279.888113900088,None,2279.888113900088,None,r,0.2987235002219677,2279.888113900088,None,0.2987235002219677,,,76Silent,001,2022_Nov_14_1252,ProdSingRedoBetween,2021.2.3,59.96134869013011,
,,,,29,0,29,0,,,,,,,,,,,,,,,,,,,,,,2283.6538880001754,None,,,,,,,,,,,,,,,,,weight,162,30,silent,new,null,2280.725601600483,None,2280.725601600483,None,1,1.6132543003186584,2280.725601600483,None,1.6132543003186584,2282.3725275006145,None,2282.8866570005193,None,2282.8866570005193,None,n,0.7481792001053691,2282.8866570005193,None,0.7481792001053691,,,76Silent,001,2022_Nov_14_1252,ProdSingRedoBetween,2021.2.3,59.96134869013011,
,,,,30,0,30,0,,,,,,,,,,,,,,,,,,,,,,2291.645341699943,None,,,,,,,,,,,,,,,,,title,107,31,silent,new,null,2284.1647132001817,None,2284.1647132001817,None,2,4.054121499881148,2284.1647132001817,None,4.054121499881148,2288.2418680004776,None,2288.7471911003813,None,2288.7471911003813,None,n,2.879568099975586,2288.7471911003813,None,2.879568099975586,,,76Silent,001,2022_Nov_14_1252,ProdSingRedoBetween,2021.2.3,59.96134869013011,
,,,,31,0,31,0,,,,,,,,,,,,,,,,,,,,,,2294.6653056005016,None,,,,,,,,,,,,,,,,,generation,92,32,silent,new,null,2292.1514741005376,None,2292.1514741005376,None,6,1.6595518002286553,2292.1514741005376,None,1.6595518002286553,2293.8376691006124,None,2294.3515148004517,None,2294.3515148004517,None,r,0.28332879953086376,2294.3515148004517,None,0.28332879953086376,,,76Silent,001,2022_Nov_14_1252,ProdSingRedoBetween,2021.2.3,59.96134869013011,
,,,,32,0,32,0,,,,,,,,,,,,,,,,,,,,,,2299.1027251007035,None,,,,,,,,,,,,,,,,,debate,137,33,silent,new,null,2295.1834039008245,None,2295.1834039008245,None,2,2.3634210005402565,2295.1834039008245,None,2.3634210005402565,2297.567616100423,None,2298.08080360014,None,2298.08080360014,None,n,1.0020780004560947,2298.08080360014,None,1.0020780004560947,,,76Silent,001,2022_Nov_14_1252,ProdSingRedoBetween,2021.2.3,59.96134869013011,
,,,,33,0,33,0,,,,,,,,,,,,,,,,,,,,,,2302.656232500449,None,,,,,,,,,,,,,,,,,addition,74,34,silent,old,red,2299.611361999996,None,2299.611361999996,None,6,2.0313098998740315,2299.611361999996,None,2.0313098998740315,2301.6859598001465,None,2302.189273500815,None,2302.189273500815,None,r,0.4375612000003457,2302.189273500815,None,0.4375612000003457,,,76Silent,001,2022_Nov_14_1252,ProdSingRedoBetween,2021.2.3,59.96134869013011,
,,,,34,0,34,0,,,,,,,,,,,,,,,,,,,,,,2306.5955129005015,None,,,,,,,,,,,,,,,,,attack,152,35,silent,new,null,2303.170564699918,None,2303.170564699918,None,1,1.9526094999164343,2303.170564699918,None,1.9526094999164343,2305.1524358000606,None,2305.6608351999894,None,2305.6608351999894,None,n,0.9021792998537421,2305.6608351999894,None,0.9021792998537421,,,76Silent,001,2022_Nov_14_1252,ProdSingRedoBetween,2021.2.3,59.96134869013011,
,,,,35,0,35,0,,,,,,,,,,,,,,,,,,,,,,2310.113619199954,None,,,,,,,,,,,,,,,,,light,165,36,silent,new,null,2307.11641350016,None,2307.11641350016,None,2,1.9824688006192446,2307.11641350016,None,1.9824688006192446,2309.1347681004554,None,2309.649496600032,None,2309.649496600032,None,n,0.44128850009292364,2309.649496600032,None,0.44128850009292364,,,76Silent,001,2022_Nov_14_1252,ProdSingRedoBetween,2021.2.3,59.96134869013011,
,,,,36,0,36,0,,,,,,,,,,,,,,,,,,,,,,2313.2832759004086,None,,,,,,,,,,,,,,,,,column,142,37,silent,new,null,2310.6201172005385,None,2310.6201172005385,None,2,1.8068899000063539,2310.6201172005385,None,1.8068899000063539,2312.4550482006744,None,2312.966594500467,None,2312.966594500467,None,n,0.3002681005746126,2312.966594500467,None,0.3002681005746126,,,76Silent,001,2022_Nov_14_1252,ProdSingRedoBetween,2021.2.3,59.96134869013011,
,,,,37,0,37,0,,,,,,,,,,,,,,,,,,,,,,2316.5901248008013,None,,,,,,,,,,,,,,,,,audience,57,38,silent,old,blue,2313.785863700323,None,2313.785863700323,None,5,1.7529233004897833,2313.785863700323,None,1.7529233004897833,2315.5697657000273,None,2316.0737246004865,None,2316.0737246004865,None,f,0.4891448002308607,2316.0737246004865,None,0.4891448002308607,,,76Silent,001,2022_Nov_14_1252,ProdSingRedoBetween,2021.2.3,59.96134869013011,
,,,,38,0,38,0,,,,,,,,,,,,,,,,,,,,,,2319.3061309000477,None,,,,,,,,,,,,,,,,,government,86,39,silent,old,red,2317.10850400012,None,2317.10850400012,None,6,1.3343992000445724,2317.10850400012,None,1.3343992000445724,2318.479594900273,None,2318.9903466003016,None,2318.9903466003016,None,r,0.2924689995124936,2318.9903466003016,None,0.2924689995124936,,,76Silent,001,2022_Nov_14_1252,ProdSingRedoBetween,2021.2.3,59.96134869013011,
,,,,39,0,39,0,,,,,,,,,,,,,,,,,,,,,,2322.447931200266,None,,,,,,,,,,,,,,,,,captain,143,40,silent,new,null,2319.817227100022,None,2319.817227100022,None,4,1.5456536998972297,2319.817227100022,None,1.5456536998972297,2321.3996208999306,None,2321.9087019003928,None,2321.9087019003928,None,f,0.5102762002497911,2321.9087019003928,None,0.5102762002497911,,,76Silent,001,2022_Nov_14_1252,ProdSingRedoBetween,2021.2.3,59.96134869013011,
,,,,40,0,40,0,,,,,,,,,,,,,,,,,,,,,,2327.8313394002616,None,,,,,,,,,,,,,,,,,stand,27,41,silent,old,yellow,2322.9628257006407,None,2322.9628257006407,None,3,1.8878699000924826,2322.9628257006407,None,1.8878699000924826,2324.889172100462,None,2325.3957023005933,None,2325.3957023005933,None,f,2.4150662003085017,2325.3957023005933,None,2.4150662003085017,,,76Silent,001,2022_Nov_14_1252,ProdSingRedoBetween,2021.2.3,59.96134869013011,
,,,,41,0,41,0,,,,,,,,,,,,,,,,,,,,,,2331.3014806006104,None,,,,,,,,,,,,,,,,,space,71,42,silent,old,red,2328.342246300541,None,2328.342246300541,None,3,1.7564379004761577,2328.342246300541,None,1.7564379004761577,2330.119179200381,None,2330.636669100262,None,2330.636669100262,None,f,0.6460544997826219,2330.636669100262,None,0.6460544997826219,,,76Silent,001,2022_Nov_14_1252,ProdSingRedoBetween,2021.2.3,59.96134869013011,
,,,,42,0,42,0,,,,,,,,,,,,,,,,,,,,,,2338.909016000107,None,,,,,,,,,,,,,,,,,resistance,81,43,silent,old,red,2331.8062506001443,None,2331.8062506001443,None,4,4.516426700167358,2331.8062506001443,None,4.516426700167358,2336.341112400405,None,2336.8403858002275,None,2336.8403858002275,None,f,2.0424338998273015,2336.8403858002275,None,2.0424338998273015,,,76Silent,001,2022_Nov_14_1252,ProdSingRedoBetween,2021.2.3,59.96134869013011,
,,,,43,0,43,0,,,,,,,,,,,,,,,,,,,,,,2342.2957276003435,None,,,,,,,,,,,,,,,,,balance,63,44,silent,old,red,2339.415752599947,None,2339.415752599947,None,4,1.7789549995213747,2339.415752599947,None,1.7789549995213747,2341.2122392002493,None,2341.716293800622,None,2341.716293800622,None,f,0.5584268998354673,2341.716293800622,None,0.5584268998354673,,,76Silent,001,2022_Nov_14_1252,ProdSingRedoBetween,2021.2.3,59.96134869013011,
,,,,44,0,44,0,,,,,,,,,,,,,,,,,,,,,,2345.467719600536,None,,,,,,,,,,,,,,,,,impact,82,45,silent,old,red,2342.8001010008156,None,2342.8001010008156,None,6,1.7786277998238802,2342.8001010008156,None,1.7786277998238802,2344.5992923006415,None,2345.1011896003038,None,2345.1011896003038,None,r,0.3416005000472069,2345.1011896003038,None,0.3416005000472069,,,76Silent,001,2022_Nov_14_1252,ProdSingRedoBetween,2021.2.3,59.96134869013011,
,,,,45,0,45,0,,,,,,,,,,,,,,,,,,,,,,2348.4184779003263,None,,,,,,,,,,,,,,,,,growth,80,46,silent,old,red,2345.9862341005355,None,2345.9862341005355,None,5,1.5845118993893266,2345.9862341005355,None,1.5845118993893266,2347.6019326001406,None,2348.1076806001365,None,2348.1076806001365,None,r,0.29505200032144785,2348.1076806001365,None,0.29505200032144785,,,76Silent,001,2022_Nov_14_1252,ProdSingRedoBetween,2021.2.3,59.96134869013011,
,,,,46,0,46,0,,,,,,,,,,,,,,,,,,,,,,2351.756277900189,None,,,,,,,,,,,,,,,,,shock,65,47,silent,old,red,2348.9223967008293,None,2348.9223967008293,None,4,2.072374500334263,2348.9223967008293,None,2.072374500334263,2351.0235954001546,None,2351.5444195000455,None,2351.5444195000455,None,f,0.18628880009055138,2351.5444195000455,None,0.18628880009055138,,,76Silent,001,2022_Nov_14_1252,ProdSingRedoBetween,2021.2.3,59.96134869013011,
,,,,47,0,47,0,,,,,,,,,,,,,,,,,,,,,,2355.67572350055,None,,,,,,,,,,,,,,,,,figure,48,48,silent,old,blue,2352.256234800443,None,2352.256234800443,None,6,2.5544171007350087,2352.256234800443,None,2.5544171007350087,2354.8434248007834,None,2355.3588968999684,None,2355.3588968999684,None,r,0.29182650055736303,2355.3588968999684,None,0.29182650055736303,,,76Silent,001,2022_Nov_14_1252,ProdSingRedoBetween,2021.2.3,59.96134869013011,
,,,,48,0,48,0,,,,,,,,,,,,,,,,,,,,,,2359.9633364006877,None,,,,,,,,,,,,,,,,,foundation,59,49,silent,old,yellow,2356.1882774000987,None,2356.1882774000987,None,1,2.6223400002345443,2356.1882774000987,None,2.6223400002345443,2358.829940300435,None,2359.3295553000644,None,2359.3295553000644,None,n,0.6091860001906753,2359.3295553000644,None,0.6091860001906753,,,76Silent,001,2022_Nov_14_1252,ProdSingRedoBetween,2021.2.3,59.96134869013011,
,,,,49,0,49,0,,,,,,,,,,,,,,,,,,,,,,2363.350046900101,None,,,,,,,,,,,,,,,,,mechanical,112,50,silent,new,null,2360.4662277000025,None,2360.4662277000025,None,1,1.816486000083387,2360.4662277000025,None,1.816486000083387,2362.3011626005173,None,2362.8188108000904,None,2362.8188108000904,None,n,0.5038096001371741,2362.8188108000904,None,0.5038096001371741,,,76Silent,001,2022_Nov_14_1252,ProdSingRedoBetween,2021.2.3,59.96134869013011,
,,,,50,0,50,0,,,,,,,,,,,,,,,,,,,,,,2369.7731630001217,None,,,,,,,,,,,,,,,,,empty,135,51,silent,new,null,2363.86365929991,None,2363.86365929991,None,2,4.258993400260806,2363.86365929991,None,4.258993400260806,2368.1403215005994,None,2368.660411800258,None,2368.660411800258,None,n,1.0941813001409173,2368.660411800258,None,1.0941813001409173,,,76Silent,001,2022_Nov_14_1252,ProdSingRedoBetween,2021.2.3,59.96134869013011,
,,,,51,0,51,0,,,,,,,,,,,,,,,,,,,,,,2372.8096127007157,None,,,,,,,,,,,,,,,,,payment,151,52,silent,new,null,2370.2847947999835,None,2370.2847947999835,None,6,1.6540563004091382,2370.2847947999835,None,1.6540563004091382,2371.963805200532,None,2372.4817727003247,None,2372.4817727003247,None,r,0.2969912001863122,2372.4817727003247,None,0.2969912001863122,,,76Silent,001,2022_Nov_14_1252,ProdSingRedoBetween,2021.2.3,59.96134869013011,
,,,,52,0,52,0,,,,,,,,,,,,,,,,,,,,,,2375.7791887000203,None,,,,,,,,,,,,,,,,,country,15,53,silent,old,yellow,2373.3192866006866,None,2373.3192866006866,None,6,1.3473132997751236,2373.3192866006866,None,1.3473132997751236,2374.697803700343,None,2375.2169522000477,None,2375.2169522000477,None,r,0.5458249002695084,2375.2169522000477,None,0.5458249002695084,,,76Silent,001,2022_Nov_14_1252,ProdSingRedoBetween,2021.2.3,59.96134869013011,
,,,,53,0,53,0,,,,,,,,,,,,,,,,,,,,,,2381.2539770007133,None,,,,,,,,,,,,,,,,,leader,116,54,silent,new,null,2376.2918853005394,None,2376.2918853005394,None,3,2.534919999539852,2376.2918853005394,None,2.534919999539852,2378.849873200059,None,2379.3522228999063,None,2379.3522228999063,None,f,1.8824110003188252,2379.3522228999063,None,1.8824110003188252,,,76Silent,001,2022_Nov_14_1252,ProdSingRedoBetween,2021.2.3,59.96134869013011,
,,,,54,0,54,0,,,,,,,,,,,,,,,,,,,,,,2384.3376986999065,None,,,,,,,,,,,,,,,,,junior,51,55,silent,old,blue,2381.7794717000797,None,2381.7794717000797,None,6,1.7352420995011926,2381.7794717000797,None,1.7352420995011926,2383.543964200653,None,2384.056430800818,None,2384.056430800818,None,r,0.2502554003149271,2384.056430800818,None,0.2502554003149271,,,76Silent,001,2022_Nov_14_1252,ProdSingRedoBetween,2021.2.3,59.96134869013011,
,,,,55,0,55,0,,,,,,,,,,,,,,,,,,,,,,2386.6733067007735,None,,,,,,,,,,,,,,,,,trial,47,56,silent,old,blue,2384.8448268007487,None,2384.8448268007487,None,6,1.2698255004361272,2384.8448268007487,None,1.2698255004361272,2386.1487648002803,None,2386.656728300266,None,2386.656728300266,None,r,0.0020174002274870872,2386.656728300266,None,0.0020174002274870872,,,76Silent,001,2022_Nov_14_1252,ProdSingRedoBetween,2021.2.3,59.96134869013011,
,,,,56,0,56,0,,,,,,,,,,,,,,,,,,,,,,2390.29363430012,None,,,,,,,,,,,,,,,,,strain,58,57,silent,old,blue,2387.1760550001636,None,2387.1760550001636,None,6,1.4025558000430465,2387.1760550001636,None,1.4025558000430465,2388.6111351000145,None,2389.1259209001437,None,2389.1259209001437,None,r,1.1487858006730676,2389.1259209001437,None,1.1487858006730676,,,76Silent,001,2022_Nov_14_1252,ProdSingRedoBetween,2021.2.3,59.96134869013011,
,,,,57,0,57,0,,,,,,,,,,,,,,,,,,,,,,2394.4477430004627,None,,,,,,,,,,,,,,,,,entrance,33,58,silent,old,blue,2390.8004356008023,None,2390.8004356008023,None,5,1.8181892996653914,2390.8004356008023,None,1.8181892996653914,2392.6466926001012,None,2393.148891800083,None,2393.148891800083,None,r,1.2698314003646374,2393.148891800083,None,1.2698314003646374,,,76Silent,001,2022_Nov_14_1252,ProdSingRedoBetween,2021.2.3,59.96134869013011,
,,,,58,0,58,0,,,,,,,,,,,,,,,,,,,,,,2397.467681400478,None,,,,,,,,,,,,,,,,,permit,84,59,silent,old,red,2394.9554676003754,None,2394.9554676003754,None,6,1.6552251996472478,2394.9554676003754,None,1.6552251996472478,2396.640085200779,None,2397.150582000613,None,2397.150582000613,None,r,0.3002927005290985,2397.150582000613,None,0.3002927005290985,,,76Silent,001,2022_Nov_14_1252,ProdSingRedoBetween,2021.2.3,59.96134869013011,
,,,,59,0,59,0,,,,,,,,,,,,,,,,,,,,,,2400.8874694006518,None,,,,,,,,,,,,,,,,,message,156,60,silent,new,null,2397.977903900668,None,2397.977903900668,None,4,2.0087078008800745,2397.977903900668,None,2.0087078008800745,2400.0044448003173,None,2400.5036061005667,None,2400.5036061005667,None,f,0.36312420014292,2400.5036061005667,None,0.36312420014292,,,76Silent,001,2022_Nov_14_1252,ProdSingRedoBetween,2021.2.3,59.96134869013011,
,,,,60,0,60,0,,,,,,,,,,,,,,,,,,,,,,2403.506752400659,None,,,,,,,,,,,,,,,,,production,144,61,silent,new,null,2401.3983487999067,None,2401.3983487999067,None,6,1.3244634000584483,2401.3983487999067,None,1.3244634000584483,2402.7393134003505,None,2403.239947200753,None,2403.239947200753,None,r,0.2506895000115037,2403.239947200753,None,0.2506895000115037,,,76Silent,001,2022_Nov_14_1252,ProdSingRedoBetween,2021.2.3,59.96134869013011,
,,,,61,0,61,0,,,,,,,,,,,,,,,,,,,,,,2407.9972839001566,None,,,,,,,,,,,,,,,,,right,79,62,silent,old,red,2404.0155333001167,None,2404.0155333001167,None,6,1.8750085001811385,2404.0155333001167,None,1.8750085001811385,2405.909068500623,None,2406.4141440000385,None,2406.4141440000385,None,r,1.5564462998881936,2406.4141440000385,None,1.5564462998881936,,,76Silent,001,2022_Nov_14_1252,ProdSingRedoBetween,2021.2.3,59.96134869013011,
,,,,62,0,62,0,,,,,,,,,,,,,,,,,,,,,,2411.981856100261,None,,,,,,,,,,,,,,,,,smooth,161,63,silent,new,null,2408.5130299003795,None,2408.5130299003795,None,3,2.2175133004784584,2408.5130299003795,None,2.2175133004784584,2410.7485445002094,None,2411.2539827004075,None,2411.2539827004075,None,f,0.708674400113523,2411.2539827004075,None,0.708674400113523,,,76Silent,001,2022_Nov_14_1252,ProdSingRedoBetween,2021.2.3,59.96134869013011,
,,,,63,0,63,0,,,,,,,,,,,,,,,,,,,,,,2414.901476500556,None,,,,,,,,,,,,,,,,,spoke,115,64,silent,new,null,2412.4862327007577,None,2412.4862327007577,None,1,1.748454499989748,2412.4862327007577,None,1.748454499989748,2414.2566439006478,None,2414.7728558005765,None,2414.7728558005765,None,n,0.10984469950199127,2414.7728558005765,None,0.10984469950199127,,,76Silent,001,2022_Nov_14_1252,ProdSingRedoBetween,2021.2.3,59.96134869013011,
,,,,64,0,64,0,,,,,,,,,,,,,,,,,,,,,,2419.1896540001035,None,,,,,,,,,,,,,,,,,material,44,65,silent,old,blue,2415.4022038001567,None,2415.4022038001567,None,5,1.984439899213612,2415.4022038001567,None,1.984439899213612,2417.4124247003347,None,2417.9235153002664,None,2417.9235153002664,None,r,1.246989999897778,2417.9235153002664,None,1.246989999897778,,,76Silent,001,2022_Nov_14_1252,ProdSingRedoBetween,2021.2.3,59.96134869013011,
,,,,65,0,65,0,,,,,,,,,,,,,,,,,,,,,,2425.031382000074,None,,,,,,,,,,,,,,,,,error,40,66,silent,old,blue,2419.6981985000893,None,2419.6981985000893,None,3,4.080377199687064,2419.6981985000893,None,4.080377199687064,2423.7963225999847,None,2424.31274520047,None,2424.31274520047,None,f,0.6900019999593496,2424.31274520047,None,0.6900019999593496,,,76Silent,001,2022_Nov_14_1252,ProdSingRedoBetween,2021.2.3,59.96134869013011,
,,,,66,0,66,0,,,,,,,,,,,,,,,,,,,,,,2428.2812664005905,None,,,,,,,,,,,,,,,,,death,124,67,silent,new,null,2425.5501554002985,None,2425.5501554002985,None,5,1.9884491004049778,2425.5501554002985,None,1.9884491004049778,2427.5663400003687,None,2428.08429600019,None,2428.08429600019,None,r,0.18230449967086315,2428.08429600019,None,0.18230449967086315,,,76Silent,001,2022_Nov_14_1252,ProdSingRedoBetween,2021.2.3,59.96134869013011,
,,,,67,0,67,0,,,,,,,,,,,,,,,,,,,,,,2432.23543599993,None,,,,,,,,,,,,,,,,,quantity,138,68,silent,new,null,2428.7898722002283,None,2428.7898722002283,None,2,2.236707800067961,2428.7898722002283,None,2.236707800067961,2431.0533059006557,None,2431.5681891003624,None,2431.5681891003624,None,n,0.6424345998093486,2431.5681891003624,None,0.6424345998093486,,,76Silent,001,2022_Nov_14_1252,ProdSingRedoBetween,2021.2.3,59.96134869013011,
,,,,68,0,68,0,,,,,,,,,,,,,,,,,,,,,,2436.241946800612,None,,,,,,,,,,,,,,,,,incident,175,69,silent,new,null,2432.7417061002925,None,2432.7417061002925,None,3,2.3488989006727934,2432.7417061002925,None,2.3488989006727934,2435.1223206007853,None,2435.6225347006693,None,2435.6225347006693,None,f,0.5962775005027652,2435.6225347006693,None,0.5962775005027652,,,76Silent,001,2022_Nov_14_1252,ProdSingRedoBetween,2021.2.3,59.96134869013011,
,,,,69,0,69,0,,,,,,,,,,,,,,,,,,,,,,2439.0265838000923,None,,,,,,,,,,,,,,,,,general,62,70,silent,old,red,2436.7595526007935,None,2436.7595526007935,None,6,1.4832477001473308,2436.7595526007935,None,1.4832477001473308,2438.2652179999277,None,2438.7754290001467,None,2438.7754290001467,None,r,0.21922220010310411,2438.7754290001467,None,0.21922220010310411,,,76Silent,001,2022_Nov_14_1252,ProdSingRedoBetween,2021.2.3,59.96134869013011,
,,,,70,0,70,0,,,,,,,,,,,,,,,,,,,,,,2442.245343199931,None,,,,,,,,,,,,,,,,,majority,75,71,silent,old,red,2439.533615500666,None,2439.533615500666,None,5,1.9168596006929874,2439.533615500666,None,1.9168596006929874,2441.488173200749,None,2441.9981630006805,None,2441.9981630006805,None,r,0.22852970007807016,2441.9981630006805,None,0.22852970007807016,,,76Silent,001,2022_Nov_14_1252,ProdSingRedoBetween,2021.2.3,59.96134869013011,
,,,,71,0,71,0,,,,,,,,,,,,,,,,,,,,,,2446.2659806003794,None,,,,,,,,,,,,,,,,,opening,148,72,silent,new,null,2442.7586614005268,None,2442.7586614005268,None,3,2.5398682998493314,2442.7586614005268,None,2.5398682998493314,2445.3162345001474,None,2445.826969000511,None,2445.826969000511,None,f,0.41575600020587444,2445.826969000511,None,0.41575600020587444,,,76Silent,001,2022_Nov_14_1252,ProdSingRedoBetween,2021.2.3,59.96134869013011,
,,,,72,0,72,0,,,,,,,,,,,,,,,,,,,,,,2449.6027172999457,None,,,,,,,,,,,,,,,,,sweet,29,73,silent,old,blue,2446.76974910032,None,2446.76974910032,None,5,2.1527850003913045,2446.76974910032,None,2.1527850003913045,2448.9520479002967,None,2449.4528347002342,None,2449.4528347002342,None,r,0.12576579954475164,2449.4528347002342,None,0.12576579954475164,,,76Silent,001,2022_Nov_14_1252,ProdSingRedoBetween,2021.2.3,59.96134869013011,
,,,,73,0,73,0,,,,,,,,,,,,,,,,,,,,,,2454.607711000368,None,,,,,,,,,,,,,,,,,concern,61,74,silent,old,red,2450.112995000556,None,2450.112995000556,None,5,3.8495879992842674,2450.112995000556,None,3.8495879992842674,2453.9959434000775,None,2454.5084331007674,None,2454.5084331007674,None,r,0.07018059957772493,2454.5084331007674,None,0.07018059957772493,,,76Silent,001,2022_Nov_14_1252,ProdSingRedoBetween,2021.2.3,59.96134869013011,
,,,,74,0,74,0,,,,,,,,,,,,,,,,,,,,,,2458.7118111001328,None,,,,,,,,,,,,,,,,,charter,1,75,silent,old,yellow,2455.1115727005526,None,2455.1115727005526,None,5,1.8589663999155164,2455.1115727005526,None,1.8589663999155164,2456.9952691001818,None,2457.510878900066,None,2457.510878900066,None,r,1.1797385001555085,2457.510878900066,None,1.1797385001555085,,,76Silent,001,2022_Nov_14_1252,ProdSingRedoBetween,2021.2.3,59.96134869013011,
,,,,75,0,75,0,,,,,,,,,,,,,,,,,,,,,,2462.4376255003735,None,,,,,,,,,,,,,,,,,defeat,158,76,silent,new,null,2459.2200751006603,None,2459.2200751006603,None,4,2.2306367000564933,2459.2200751006603,None,2.2306367000564933,2461.4889825005084,None,2461.999363400042,None,2461.999363400042,None,f,0.41126079950481653,2461.999363400042,None,0.41126079950481653,,,76Silent,001,2022_Nov_14_1252,ProdSingRedoBetween,2021.2.3,59.96134869013011,
,,,,76,0,76,0,,,,,,,,,,,,,,,,,,,,,,2465.568592800759,None,,,,,,,,,,,,,,,,,fashion,153,77,silent,new,null,2462.9594130003825,None,2462.9594130003825,None,4,1.9551091995090246,2462.9594130003825,None,1.9551091995090246,2464.935812100768,None,2465.441176299937,None,2465.441176299937,None,f,0.09737249929457903,2465.441176299937,None,0.09737249929457903,,,76Silent,001,2022_Nov_14_1252,ProdSingRedoBetween,2021.2.3,59.96134869013011,
,,,,77,0,77,0,,,,,,,,,,,,,,,,,,,,,,2468.638435200788,None,,,,,,,,,,,,,,,,,heavy,76,78,silent,old,red,2466.0801353007555,None,2466.0801353007555,None,2,1.6423949003219604,2466.0801353007555,None,1.6423949003219604,2467.740883900784,None,2468.25477720052,None,2468.25477720052,None,n,0.3637725003063679,2468.25477720052,None,0.3637725003063679,,,76Silent,001,2022_Nov_14_1252,ProdSingRedoBetween,2021.2.3,59.96134869013011,
,,,,78,0,78,0,,,,,,,,,,,,,,,,,,,,,,2472.7925369003788,None,,,,,,,,,,,,,,,,,murder,24,79,silent,old,yellow,2469.1461591003463,None,2469.1461591003463,None,5,2.928299800492823,2469.1461591003463,None,2.928299800492823,2472.0934896003455,None,2472.611494200304,None,2472.611494200304,None,r,0.15901449974626303,2472.611494200304,None,0.15901449974626303,,,76Silent,001,2022_Nov_14_1252,ProdSingRedoBetween,2021.2.3,59.96134869013011,
,,,,79,0,79,0,,,,,,,,,,,,,,,,,,,,,,2476.779879000038,None,,,,,,,,,,,,,,,,,instrument,69,80,silent,old,red,2473.3015899006277,None,2473.3015899006277,None,3,2.7249369993805885,2473.3015899006277,None,2.7249369993805885,2476.0515845008194,None,2476.5692167002708,None,2476.5692167002708,None,f,0.18532059993594885,2476.5692167002708,None,0.18532059993594885,,,76Silent,001,2022_Nov_14_1252,ProdSingRedoBetween,2021.2.3,59.96134869013011,
,,,,80,0,80,0,,,,,,,,,,,,,,,,,,,,,,2479.4990063002333,None,,,,,,,,,,,,,,,,,employment,83,81,silent,old,red,2477.2934685004875,None,2477.2934685004875,None,6,1.4610277004539967,2477.2934685004875,None,1.4610277004539967,2478.784509399906,None,2479.3068806007504,None,2479.3068806007504,None,r,0.16759830061346292,2479.3068806007504,None,0.16759830061346292,,,76Silent,001,2022_Nov_14_1252,ProdSingRedoBetween,2021.2.3,59.96134869013011,
,,,,81,0,81,0,,,,,,,,,,,,,,,,,,,,,,2482.153710000217,None,,,,,,,,,,,,,,,,,article,39,82,silent,old,blue,2480.005770300515,None,2480.005770300515,None,6,1.3486775001510978,2480.005770300515,None,1.3486775001510978,2481.385090600699,None,2481.884855400771,None,2481.884855400771,None,r,0.24554989952594042,2481.884855400771,None,0.24554989952594042,,,76Silent,001,2022_Nov_14_1252,ProdSingRedoBetween,2021.2.3,59.96134869013011,
,,,,82,0,82,0,,,,,,,,,,,,,,,,,,,,,,2485.238057200797,None,,,,,,,,,,,,,,,,,principal,22,83,silent,old,yellow,2482.66888200026,None,2482.66888200026,None,6,1.4375943997874856,2482.66888200026,None,1.4375943997874856,2484.1411636006087,None,2484.6546285003424,None,2484.6546285003424,None,r,0.555825600400567,2484.6546285003424,None,0.555825600400567,,,76Silent,001,2022_Nov_14_1252,ProdSingRedoBetween,2021.2.3,59.96134869013011,
,,,,83,0,83,0,,,,,,,,,,,,,,,,,,,,,,2488.42484060023,None,,,,,,,,,,,,,,,,,marriage,37,84,silent,old,blue,2485.741522100754,None,2485.741522100754,None,6,1.7650445997714996,2485.741522100754,None,1.7650445997714996,2487.523711600341,None,2488.024584900588,None,2488.024584900588,None,r,0.36989580001682043,2488.024584900588,None,0.36989580001682043,,,76Silent,001,2022_Nov_14_1252,ProdSingRedoBetween,2021.2.3,59.96134869013011,
,,,,84,0,84,0,,,,,,,,,,,,,,,,,,,,,,2491.49449150078,None,,,,,,,,,,,,,,,,,society,21,85,silent,old,yellow,2488.935536100529,None,2488.935536100529,None,6,1.6268832003697753,2488.935536100529,None,1.6268832003697753,2490.599941600114,None,2491.1140350000933,None,2491.1140350000933,None,r,0.3524567000567913,2491.1140350000933,None,0.3524567000567913,,,76Silent,001,2022_Nov_14_1252,ProdSingRedoBetween,2021.2.3,59.96134869013011,
,,,,85,0,85,0,,,,,,,,,,,,,,,,,,,,,,2494.5807705000043,None,,,,,,,,,,,,,,,,,goose,163,86,silent,new,null,2492.000861200504,None,2492.000861200504,None,1,1.601557600311935,2492.000861200504,None,1.601557600311935,2493.6310587003827,None,2494.130467700772,None,2494.130467700772,None,n,0.4240077994763851,2494.130467700772,None,0.4240077994763851,,,76Silent,001,2022_Nov_14_1252,ProdSingRedoBetween,2021.2.3,59.96134869013011,
,,,,86,0,86,0,,,,,,,,,,,,,,,,,,,,,,2497.617351400666,None,,,,,,,,,,,,,,,,,frank,167,87,silent,new,null,2495.0912533001974,None,2495.0912533001974,None,1,1.335224200040102,2495.0912533001974,None,1.335224200040102,2496.4511115001515,None,2496.9554539006203,None,2496.9554539006203,None,n,0.6389464996755123,2496.9554539006203,None,0.6389464996755123,,,76Silent,001,2022_Nov_14_1252,ProdSingRedoBetween,2021.2.3,59.96134869013011,
,,,,87,0,87,0,,,,,,,,,,,,,,,,,,,,,,2501.921287300065,None,,,,,,,,,,,,,,,,,science,118,88,silent,new,null,2498.1233724001795,None,2498.1233724001795,None,2,2.911091299727559,2498.1233724001795,None,2.911091299727559,2501.05759890005,None,2501.572471400723,None,2501.572471400723,None,n,0.33386570028960705,2501.572471400723,None,0.33386570028960705,,,76Silent,001,2022_Nov_14_1252,ProdSingRedoBetween,2021.2.3,59.96134869013011,
,,,,88,0,88,0,,,,,,,,,,,,,,,,,,,,,,2505.2082462003455,None,,,,,,,,,,,,,,,,,running,90,89,silent,new,null,2502.429898300208,None,2502.429898300208,None,1,1.8525474993512034,2502.429898300208,None,1.8525474993512034,2504.309112000279,None,2504.82742710039,None,2504.82742710039,None,n,0.35103970021009445,2504.82742710039,None,0.35103970021009445,,,76Silent,001,2022_Nov_14_1252,ProdSingRedoBetween,2021.2.3,59.96134869013011,
,,,,89,0,89,0,,,,,,,,,,,,,,,,,,,,,,2511.236680299975,None,,,,,,,,,,,,,,,,,orchestra,54,90,silent,old,blue,2505.7166098002344,None,2505.7166098002344,None,3,3.669827500358224,2505.7166098002344,None,3.669827500358224,2509.413579599932,None,2509.913035100326,None,2509.913035100326,None,f,1.2893310002982616,2509.913035100326,None,1.2893310002982616,,,76Silent,001,2022_Nov_14_1252,ProdSingRedoBetween,2021.2.3,59.96134869013011,
,,,,90,0,90,0,,,,,,,,,,,,,,,,,,,,,,2516.271285400726,None,,,,,,,,,,,,,,,,,build,166,91,silent,new,null,2511.748013100587,None,2511.748013100587,None,3,3.350507599301636,2511.748013100587,None,3.350507599301636,2515.127451000735,None,2515.6355086006224,None,2515.6355086006224,None,f,0.6150076994672418,2515.6355086006224,None,0.6150076994672418,,,76Silent,001,2022_Nov_14_1252,ProdSingRedoBetween,2021.2.3,59.96134869013011,
,,,,91,0,91,0,,,,,,,,,,,,,,,,,,,,,,2520.1564205000177,None,,,,,,,,,,,,,,,,,portion,129,92,silent,new,null,2516.7886110004038,None,2516.7886110004038,None,2,2.4537779996171594,2516.7886110004038,None,2.4537779996171594,2519.273013100028,None,2519.7728929007426,None,2519.7728929007426,None,n,0.35754780005663633,2519.7728929007426,None,0.35754780005663633,,,76Silent,001,2022_Nov_14_1252,ProdSingRedoBetween,2021.2.3,59.96134869013011,
,,,,92,0,92,0,,,,,,,,,,,,,,,,,,,,,,2523.126023000106,None,,,,,,,,,,,,,,,,,industry,147,93,silent,new,null,2520.6691221008077,None,2520.6691221008077,None,2,1.5653136996552348,2520.6691221008077,None,1.5653136996552348,2522.2635452002287,None,2522.784309300594,None,2522.784309300594,None,n,0.314087700098753,2522.784309300594,None,0.314087700098753,,,76Silent,001,2022_Nov_14_1252,ProdSingRedoBetween,2021.2.3,59.96134869013011,
,,,,93,0,93,0,,,,,,,,,,,,,,,,,,,,,,2527.9323530001566,None,,,,,,,,,,,,,,,,,ground,150,94,silent,new,null,2523.632735500112,None,2523.632735500112,None,4,3.1456418996676803,2523.632735500112,None,3.1456418996676803,2526.7963925004005,None,2527.3009726004675,None,2527.3009726004675,None,f,0.6135619003325701,2527.3009726004675,None,0.6135619003325701,,,76Silent,001,2022_Nov_14_1252,ProdSingRedoBetween,2021.2.3,59.96134869013011,
,,,,94,0,94,0,,,,,,,,,,,,,,,,,,,,,,2531.1080124005675,None,,,,,,,,,,,,,,,,,finance,11,95,silent,old,yellow,2528.436115000397,None,2528.436115000397,None,5,1.7823090003803372,2528.436115000397,None,1.7823090003803372,2530.2341483999044,None,2530.7384398002177,None,2530.7384398002177,None,r,0.3360311994329095,2530.7384398002177,None,0.3360311994329095,,,76Silent,001,2022_Nov_14_1252,ProdSingRedoBetween,2021.2.3,59.96134869013011,
,,,,95,0,95,0,,,,,,,,,,,,,,,,,,,,,,2534.5546089001,None,,,,,,,,,,,,,,,,,income,179,96,silent,new,null,2531.622772200033,None,2531.622772200033,None,2,2.1875166995450854,2531.622772200033,None,2.1875166995450854,2533.836633699946,None,2534.33741580043,None,2534.33741580043,None,n,0.20088330004364252,2534.33741580043,None,0.20088330004364252,,,76Silent,001,2022_Nov_14_1252,ProdSingRedoBetween,2021.2.3,59.96134869013011,
,,,,96,0,96,0,,,,,,,,,,,,,,,,,,,,,,2537.611118300818,None,,,,,,,,,,,,,,,,,pancakes,178,97,silent,new,null,2535.055853200145,None,2535.055853200145,None,2,1.6425371002405882,2535.055853200145,None,1.6425371002405882,2536.7274959003553,None,2537.243685000576,None,2537.243685000576,None,n,0.33484380040317774,2537.243685000576,None,0.33484380040317774,,,76Silent,001,2022_Nov_14_1252,ProdSingRedoBetween,2021.2.3,59.96134869013011,
,,,,97,0,97,0,,,,,,,,,,,,,,,,,,,,,,2540.82701870054,None,,,,,,,,,,,,,,,,,staff,109,98,silent,new,null,2538.130846899934,None,2538.130846899934,None,2,1.7354669999331236,2538.130846899934,None,1.7354669999331236,2539.894241100177,None,2540.394388500601,None,2540.394388500601,None,n,0.4159617004916072,2540.394388500601,None,0.4159617004916072,,,76Silent,001,2022_Nov_14_1252,ProdSingRedoBetween,2021.2.3,59.96134869013011,
,,,,98,0,98,0,,,,,,,,,,,,,,,,,,,,,,2545.0813290001824,None,,,,,,,,,,,,,,,,,quarter,106,99,silent,new,null,2541.3448021002114,None,2541.3448021002114,None,1,2.6655735997483134,2541.3448021002114,None,2.6655735997483134,2544.0302686002105,None,2544.5323576005176,None,2544.5323576005176,None,n,0.5340422997251153,2544.5323576005176,None,0.5340422997251153,,,76Silent,001,2022_Nov_14_1252,ProdSingRedoBetween,2021.2.3,59.96134869013011,
,,,,99,0,99,0,,,,,,,,,,,,,,,,,,,,,,2548.53446680028,None,,,,,,,,,,,,,,,,,threat,53,100,silent,old,blue,2545.5818612007424,None,2545.5818612007424,None,5,1.820689800195396,2545.5818612007424,None,1.820689800195396,2547.434301400557,None,2547.9367835000157,None,2547.9367835000157,None,r,0.5695932004600763,2547.9367835000157,None,0.5695932004600763,,,76Silent,001,2022_Nov_14_1252,ProdSingRedoBetween,2021.2.3,59.96134869013011,
,,,,100,0,100,0,,,,,,,,,,,,,,,,,,,,,,2552.121840200387,None,,,,,,,,,,,,,,,,,turkey,50,101,silent,old,blue,2549.044801699929,None,2549.044801699929,None,5,1.9976157005876303,2549.044801699929,None,1.9976157005876303,2551.076332400553,None,2551.5879007000476,None,2551.5879007000476,None,r,0.5025714002549648,2551.5879007000476,None,0.5025714002549648,,,76Silent,001,2022_Nov_14_1252,ProdSingRedoBetween,2021.2.3,59.96134869013011,
,,,,101,0,101,0,,,,,,,,,,,,,,,,,,,,,,2555.5417635003105,None,,,,,,,,,,,,,,,,,childhood,128,102,silent,new,null,2552.6246733004227,None,2552.6246733004227,None,3,1.8577004000544548,2552.6246733004227,None,1.8577004000544548,2554.5091945007443,None,2555.0269087003544,None,2555.0269087003544,None,f,0.4954914003610611,2555.0269087003544,None,0.4954914003610611,,,76Silent,001,2022_Nov_14_1252,ProdSingRedoBetween,2021.2.3,59.96134869013011,
,,,,102,0,102,0,,,,,,,,,,,,,,,,,,,,,,2561.5310333007947,None,,,,,,,,,,,,,,,,,benefit,34,103,silent,old,blue,2556.0519377002493,None,2556.0519377002493,None,3,4.518579400144517,2556.0519377002493,None,4.518579400144517,2560.599025300704,None,2561.118038500659,None,2561.118038500659,None,f,0.3883159998804331,2561.118038500659,None,0.3883159998804331,,,76Silent,001,2022_Nov_14_1252,ProdSingRedoBetween,2021.2.3,59.96134869013011,
,,,,103,0,103,0,,,,,,,,,,,,,,,,,,,,,,2565.986481100321,None,,,,,,,,,,,,,,,,,enemy,174,104,silent,new,null,2562.0353438006714,None,2562.0353438006714,None,1,2.9270066004246473,2562.0353438006714,None,2.9270066004246473,2564.9858897002414,None,2565.4918501004577,None,2565.4918501004577,None,n,0.47845880035310984,2565.4918501004577,None,0.47845880035310984,,,76Silent,001,2022_Nov_14_1252,ProdSingRedoBetween,2021.2.3,59.96134869013011,
,,,,104,0,104,0,,,,,,,,,,,,,,,,,,,,,,2569.4597719004378,None,,,,,,,,,,,,,,,,,husband,131,105,silent,new,null,2566.488952900283,None,2566.488952900283,None,5,1.8734436994418502,2566.488952900283,None,1.8734436994418502,2568.393894500099,None,2568.908583600074,None,2568.908583600074,None,r,0.5258633997291327,2568.908583600074,None,0.5258633997291327,,,76Silent,001,2022_Nov_14_1252,ProdSingRedoBetween,2021.2.3,59.96134869013011,
,,,,105,0,105,0,,,,,,,,,,,,,,,,,,,,,,2575.1611933000386,None,,,,,,,,,,,,,,,,,provision,136,106,silent,new,null,2569.9810513006523,None,2569.9810513006523,None,3,4.469208599999547,2569.9810513006523,None,4.469208599999547,2574.479349700734,None,2574.9943619007245,None,2574.9943619007245,None,f,0.15200450085103512,2574.9943619007245,None,0.15200450085103512,,,76Silent,001,2022_Nov_14_1252,ProdSingRedoBetween,2021.2.3,59.96134869013011,
,,,,106,0,106,0,,,,,,,,,,,,,,,,,,,,,,2579.0673384005204,None,,,,,,,,,,,,,,,,,prime,155,107,silent,new,null,2575.6716830004007,None,2575.6716830004007,None,2,2.434607700444758,2575.6716830004007,None,2.434607700444758,2578.133572600782,None,2578.655115100555,None,2578.655115100555,None,n,0.3872501002624631,2578.655115100555,None,0.3872501002624631,,,76Silent,001,2022_Nov_14_1252,ProdSingRedoBetween,2021.2.3,59.96134869013011,
,,,,107,0,107,0,,,,,,,,,,,,,,,,,,,,,,2582.268420900218,None,,,,,,,,,,,,,,,,,pattern,42,108,silent,old,blue,2579.588182100095,None,2579.588182100095,None,6,1.7501199999824166,2579.588182100095,None,1.7501199999824166,2581.3673644000664,None,2581.8700111005455,None,2581.8700111005455,None,r,0.3802572004497051,2581.8700111005455,None,0.3802572004497051,,,76Silent,001,2022_Nov_14_1252,ProdSingRedoBetween,2021.2.3,59.96134869013011,
,,,,108,0,108,0,,,,,,,,,,,,,,,,,,,,,,2585.2547718007118,None,,,,,,,,,,,,,,,,,shear,157,109,silent,new,null,2582.778430200182,None,2582.778430200182,None,1,1.6399183999747038,2582.778430200182,None,1.6399183999747038,2584.4393096007407,None,2584.9546166006476,None,2584.9546166006476,None,n,0.27171669993549585,2584.9546166006476,None,0.27171669993549585,,,76Silent,001,2022_Nov_14_1252,ProdSingRedoBetween,2021.2.3,59.96134869013011,
,,,,109,0,109,0,,,,,,,,,,,,,,,,,,,,,,2588.3243786999956,None,,,,,,,,,,,,,,,,,nature,38,110,silent,old,blue,2585.7645421000198,None,2585.7645421000198,None,6,1.493814100511372,2585.7645421000198,None,1.493814100511372,2587.27918220032,None,2587.790841700509,None,2587.790841700509,None,r,0.5154162999242544,2587.790841700509,None,0.5154162999242544,,,76Silent,001,2022_Nov_14_1252,ProdSingRedoBetween,2021.2.3,59.96134869013011,
,,,,110,0,110,0,,,,,,,,,,,,,,,,,,,,,,2591.6122767003253,None,,,,,,,,,,,,,,,,,background,168,111,silent,new,null,2588.835081300698,None,2588.835081300698,None,1,1.8153734002262354,2588.835081300698,None,1.8153734002262354,2590.6778837004676,None,2591.180899100378,None,2591.180899100378,None,n,0.41340050008147955,2591.180899100378,None,0.41340050008147955,,,76Silent,001,2022_Nov_14_1252,ProdSingRedoBetween,2021.2.3,59.96134869013011,
,,,,111,0,111,0,,,,,,,,,,,,,,,,,,,,,,2595.6997564006597,None,,,,,,,,,,,,,,,,,appearance,122,112,silent,new,null,2592.124045700766,None,2592.124045700766,None,6,2.566234099678695,2592.124045700766,None,2.566234099678695,2594.718724099919,None,2595.2397268004715,None,2595.2397268004715,None,r,0.4426453998312354,2595.2397268004715,None,0.4426453998312354,,,76Silent,001,2022_Nov_14_1252,ProdSingRedoBetween,2021.2.3,59.96134869013011,
,,,,112,0,112,0,,,,,,,,,,,,,,,,,,,,,,2599.702395000495,None,,,,,,,,,,,,,,,,,hunger,176,113,silent,new,null,2596.199001200497,None,2596.199001200497,None,6,2.5632897997274995,2596.199001200497,None,2.5632897997274995,2598.785874100402,None,2599.29078010004,None,2599.29078010004,None,r,0.3914880994707346,2599.29078010004,None,0.3914880994707346,,,76Silent,001,2022_Nov_14_1252,ProdSingRedoBetween,2021.2.3,59.96134869013011,
,,,,113,0,113,0,,,,,,,,,,,,,,,,,,,,,,2603.122497100383,None,,,,,,,,,,,,,,,,,cover,89,114,silent,old,red,2600.2131844004616,None,2600.2131844004616,None,5,1.7650082996115088,2600.2131844004616,None,1.7650082996115088,2602.007006400265,None,2602.5221942001954,None,2602.5221942001954,None,r,0.5842420998960733,2602.5221942001954,None,0.5842420998960733,,,76Silent,001,2022_Nov_14_1252,ProdSingRedoBetween,2021.2.3,59.96134869013011,
,,,,114,0,114,0,,,,,,,,,,,,,,,,,,,,,,2606.475829200819,None,,,,,,,,,,,,,,,,,voice,96,115,silent,new,null,2603.6298139002174,None,2603.6298139002174,None,4,1.732575399801135,2603.6298139002174,None,1.732575399801135,2605.3924597008154,None,2605.898854699917,None,2605.898854699917,None,f,0.551345999352634,2605.898854699917,None,0.551345999352634,,,76Silent,001,2022_Nov_14_1252,ProdSingRedoBetween,2021.2.3,59.96134869013011,
,,,,115,0,115,0,,,,,,,,,,,,,,,,,,,,,,2610.4464561007917,None,,,,,,,,,,,,,,,,,month,66,116,silent,old,red,2606.988990600221,None,2606.988990600221,None,6,2.397206699475646,2606.988990600221,None,2.397206699475646,2609.414756299928,None,2609.9313687002286,None,2609.9313687002286,None,r,0.4869187995791435,2609.9313687002286,None,0.4869187995791435,,,76Silent,001,2022_Nov_14_1252,ProdSingRedoBetween,2021.2.3,59.96134869013011,
,,,,116,0,116,0,,,,,,,,,,,,,,,,,,,,,,2613.8832692001015,None,,,,,,,,,,,,,,,,,style,7,117,silent,old,yellow,2610.95821959991,None,2610.95821959991,None,6,1.4602150991559029,2610.95821959991,None,1.4602150991559029,2612.4526698999107,None,2612.970287600532,None,2612.970287600532,None,r,0.887962500564754,2612.970287600532,None,0.887962500564754,,,76Silent,001,2022_Nov_14_1252,ProdSingRedoBetween,2021.2.3,59.96134869013011,
,,,,117,0,117,0,,,,,,,,,,,,,,,,,,,,,,2617.4377939999104,None,,,,,,,,,,,,,,,,,short,93,118,silent,new,null,2614.3923073001206,None,2614.3923073001206,None,3,1.8579221004620194,2614.3923073001206,None,1.8579221004620194,2616.2698990004137,None,2616.7757133003324,None,2616.7757133003324,None,f,0.6424821000546217,2616.7757133003324,None,0.6424821000546217,,,76Silent,001,2022_Nov_14_1252,ProdSingRedoBetween,2021.2.3,59.96134869013011,
,,,,118,0,118,0,,,,,,,,,,,,,,,,,,,,,,2621.0918962005526,None,,,,,,,,,,,,,,,,,victory,102,119,silent,new,null,2617.938735499978,None,2617.938735499978,None,5,1.8315603993833065,2617.938735499978,None,1.8315603993833065,2619.7906959000975,None,2620.2971394006163,None,2620.2971394006163,None,r,0.7691516997292638,2620.2971394006163,None,0.7691516997292638,,,76Silent,001,2022_Nov_14_1252,ProdSingRedoBetween,2021.2.3,59.96134869013011,
,,,,119,0,119,0,,,,,,,,,,,,,,,,,,,,,,2624.810805200599,None,,,,,,,,,,,,,,,,,symbol,17,120,silent,old,yellow,2621.595717499964,None,2621.595717499964,None,4,1.8065248997882009,2621.595717499964,None,1.8065248997882009,2623.4274082006887,None,2623.9313094001263,None,2623.9313094001263,None,f,0.86296690069139,2623.9313094001263,None,0.86296690069139,,,76Silent,001,2022_Nov_14_1252,ProdSingRedoBetween,2021.2.3,59.96134869013011,
,,,,120,0,120,0,,,,,,,,,,,,,,,,,,,,,,2629.7321303002536,None,,,,,,,,,,,,,,,,,angle,140,121,silent,new,null,2625.3184497999027,None,2625.3184497999027,None,2,2.6998689994215965,2625.3184497999027,None,2.6998689994215965,2628.047462699935,None,2628.550742700696,None,2628.550742700696,None,n,1.1634536003693938,2628.550742700696,None,1.1634536003693938,,,76Silent,001,2022_Nov_14_1252,ProdSingRedoBetween,2021.2.3,59.96134869013011,
,,,,121,0,121,0,,,,,,,,,,,,,,,,,,,,,,2635.1243094000965,None,,,,,,,,,,,,,,,,,disease,103,122,silent,new,null,2630.2376401005313,None,2630.2376401005313,None,3,4.1165169002488256,2630.2376401005313,None,4.1165169002488256,2634.377958900295,None,2634.887684300542,None,2634.887684300542,None,f,0.20257649943232536,2634.887684300542,None,0.20257649943232536,,,76Silent,001,2022_Nov_14_1252,ProdSingRedoBetween,2021.2.3,59.96134869013011,
,,,,122,0,122,0,,,,,,,,,,,,,,,,,,,,,,2640.426358900033,None,,,,,,,,,,,,,,,,,platform,70,123,silent,old,red,2635.6383166005835,None,2635.6383166005835,None,4,3.763920900411904,2635.6383166005835,None,3.763920900411904,2639.4267799006775,None,2639.931917000562,None,2639.931917000562,None,f,0.4703402006998658,2639.931917000562,None,0.4703402006998658,,,76Silent,001,2022_Nov_14_1252,ProdSingRedoBetween,2021.2.3,59.96134869013011,
,,,,123,0,123,0,,,,,,,,,,,,,,,,,,,,,,2643.7963634002954,None,,,,,,,,,,,,,,,,,people,111,124,silent,new,null,2640.929727700539,None,2640.929727700539,None,4,1.8004098003730178,2640.929727700539,None,1.8004098003730178,2642.746963100508,None,2643.2655793000013,None,2643.2655793000013,None,f,0.5045745996758342,2643.2655793000013,None,0.5045745996758342,,,76Silent,001,2022_Nov_14_1252,ProdSingRedoBetween,2021.2.3,59.96134869013011,
,,,,124,0,124,0,,,,,,,,,,,,,,,,,,,,,,2647.767032000236,None,,,,,,,,,,,,,,,,,device,0,125,silent,old,yellow,2644.311515000649,None,2644.311515000649,None,5,2.466679500415921,2644.311515000649,None,2.466679500415921,2646.8007483007386,None,2647.306276900694,None,2647.306276900694,None,r,0.4319329997524619,2647.306276900694,None,0.4319329997524619,,,76Silent,001,2022_Nov_14_1252,ProdSingRedoBetween,2021.2.3,59.96134869013011,
,,,,125,0,125,0,,,,,,,,,,,,,,,,,,,,,,2650.95463960059,None,,,,,,,,,,,,,,,,,design,88,126,silent,old,red,2648.2756913006306,None,2648.2756913006306,None,6,1.4545068992301822,2648.2756913006306,None,1.4545068992301822,2649.7536193002015,None,2650.2596396999434,None,2650.2596396999434,None,r,0.6785730998963118,2650.2596396999434,None,0.6785730998963118,,,76Silent,001,2022_Nov_14_1252,ProdSingRedoBetween,2021.2.3,59.96134869013011,
,,,,126,0,126,0,,,,,,,,,,,,,,,,,,,,,,2654.2569045005366,None,,,,,,,,,,,,,,,,,clean,18,127,silent,old,yellow,2651.4556693006307,None,2651.4556693006307,None,2,1.6185347000136971,2651.4556693006307,None,1.6185347000136971,2653.0888618007302,None,2653.593238300644,None,2653.593238300644,None,n,0.6411412004381418,2653.593238300644,None,0.6411412004381418,,,76Silent,001,2022_Nov_14_1252,ProdSingRedoBetween,2021.2.3,59.96134869013011,
,,,,127,0,127,0,,,,,,,,,,,,,,,,,,,,,,2658.0606210008264,None,,,,,,,,,,,,,,,,,group,12,128,silent,old,yellow,2654.7621121006086,None,2654.7621121006086,None,4,2.232166500762105,2654.7621121006086,None,2.232166500762105,2657.025641100481,None,2657.5270865000784,None,2657.5270865000784,None,f,0.5070517994463444,2657.5270865000784,None,0.5070517994463444,,,76Silent,001,2022_Nov_14_1252,ProdSingRedoBetween,2021.2.3,59.96134869013011,
,,,,128,0,128,0,,,,,,,,,,,,,,,,,,,,,,2661.1971391001716,None,,,,,,,,,,,,,,,,,brief,35,129,silent,old,blue,2658.569142400287,None,2658.569142400287,None,6,1.6570274997502565,2658.569142400287,None,1.6570274997502565,2660.2483106004074,None,2660.766706299968,None,2660.766706299968,None,r,0.4115268997848034,2660.766706299968,None,0.4115268997848034,,,76Silent,001,2022_Nov_14_1252,ProdSingRedoBetween,2021.2.3,59.96134869013011,
,,,,129,0,129,0,,,,,,,,,,,,,,,,,,,,,,2665.1207012003288,None,,,,,,,,,,,,,,,,,territory,113,130,silent,new,null,2661.697510300204,None,2661.697510300204,None,6,2.328669199720025,2661.697510300204,None,2.328669199720025,2664.0529489004984,None,2664.5716307004914,None,2664.5716307004914,None,r,0.5265055000782013,2664.5716307004914,None,0.5265055000782013,,,76Silent,001,2022_Nov_14_1252,ProdSingRedoBetween,2021.2.3,59.96134869013011,
,,,,130,0,130,0,,,,,,,,,,,,,,,,,,,,,,2669.905816799961,None,,,,,,,,,,,,,,,,,rough,36,131,silent,old,blue,2665.6425093999133,None,2665.6425093999133,None,5,2.3916986994445324,2665.6425093999133,None,2.3916986994445324,2668.059257500805,None,2668.5722718006,None,2668.5722718006,None,r,1.3099458999931812,2668.5722718006,None,1.3099458999931812,,,76Silent,001,2022_Nov_14_1252,ProdSingRedoBetween,2021.2.3,59.96134869013011,
,,,,131,0,131,0,,,,,,,,,,,,,,,,,,,,,,2674.076657500118,None,,,,,,,,,,,,,,,,,relation,2,132,silent,old,yellow,2670.41239660047,None,2670.41239660047,None,4,2.7977804001420736,2670.41239660047,None,2.7977804001420736,2673.230821000412,None,2673.7428806005046,None,2673.7428806005046,None,f,0.3153418004512787,2673.7428806005046,None,0.3153418004512787,,,76Silent,001,2022_Nov_14_1252,ProdSingRedoBetween,2021.2.3,59.96134869013011,
,,,,132,0,132,0,,,,,,,,,,,,,,,,,,,,,,2678.864756000228,None,,,,,,,,,,,,,,,,,candidate,146,133,silent,new,null,2674.5797883002087,None,2674.5797883002087,None,4,2.8544514002278447,2674.5797883002087,None,2.8544514002278447,2677.4639977002516,None,2677.966668800451,None,2677.966668800451,None,f,0.867501700296998,2677.966668800451,None,0.867501700296998,,,76Silent,001,2022_Nov_14_1252,ProdSingRedoBetween,2021.2.3,59.96134869013011,
,,,,133,0,133,0,,,,,,,,,,,,,,,,,,,,,,2681.934452000074,None,,,,,,,,,,,,,,,,,department,16,134,silent,old,yellow,2679.3776476001367,None,2679.3776476001367,None,6,1.544479800388217,2679.3776476001367,None,1.544479800388217,2680.952921700664,None,2681.4716316005215,None,2681.4716316005215,None,r,0.43452849984169006,2681.4716316005215,None,0.43452849984169006,,,76Silent,001,2022_Nov_14_1252,ProdSingRedoBetween,2021.2.3,59.96134869013011,
,,,,134,0,134,0,,,,,,,,,,,,,,,,,,,,,,2684.6872372999787,None,,,,,,,,,,,,,,,,,guard,160,135,silent,new,null,2682.438333700411,None,2682.438333700411,None,3,1.5238562999293208,2682.438333700411,None,1.5238562999293208,2683.9872896000743,None,2684.4871375001967,None,2684.4871375001967,None,f,0.1710922997444868,2684.4871375001967,None,0.1710922997444868,,,76Silent,001,2022_Nov_14_1252,ProdSingRedoBetween,2021.2.3,59.96134869013011,
,,,,135,0,135,0,,,,,,,,,,,,,,,,,,,,,,2687.757004200481,None,,,,,,,,,,,,,,,,,theme,5,136,silent,old,yellow,2685.195628900081,None,2685.195628900081,None,6,1.6784492004662752,2685.195628900081,None,1.6784492004662752,2686.8922184007242,None,2687.4089972004294,None,2687.4089972004294,None,r,0.321046500466764,2687.4089972004294,None,0.321046500466764,,,76Silent,001,2022_Nov_14_1252,ProdSingRedoBetween,2021.2.3,59.96134869013011,
,,,,136,0,136,0,,,,,,,,,,,,,,,,,,,,,,2690.426279300824,None,,,,,,,,,,,,,,,,,fellow,8,137,silent,old,yellow,2688.265826300718,None,2688.265826300718,None,6,1.2323185000568628,2688.265826300718,None,1.2323185000568628,2689.5307205002755,None,2690.044855900109,None,2690.044855900109,None,r,0.35727430041879416,2690.044855900109,None,0.35727430041879416,,,76Silent,001,2022_Nov_14_1252,ProdSingRedoBetween,2021.2.3,59.96134869013011,
,,,,137,0,137,0,,,,,,,,,,,,,,,,,,,,,,2693.0155809000134,None,,,,,,,,,,,,,,,,,cross,32,138,silent,old,blue,2690.941628500819,None,2690.941628500819,None,6,1.2043453995138407,2690.941628500819,None,1.2043453995138407,2692.1658575003967,None,2692.6786307999864,None,2692.6786307999864,None,r,0.31562709994614124,2692.6786307999864,None,0.31562709994614124,,,76Silent,001,2022_Nov_14_1252,ProdSingRedoBetween,2021.2.3,59.96134869013011,
,,,,138,0,138,0,,,,,,,,,,,,,,,,,,,,,,2696.0841882005334,None,,,,,,,,,,,,,,,,,brilliant,41,139,silent,old,blue,2693.54234299995,None,2693.54234299995,None,4,1.8117605997249484,2693.54234299995,None,1.8117605997249484,2695.381865100004,None,2695.881875799969,None,2695.881875799969,None,f,0.18414680007845163,2695.881875799969,None,0.18414680007845163,,,76Silent,001,2022_Nov_14_1252,ProdSingRedoBetween,2021.2.3,59.96134869013011,
,,,,139,0,139,0,,,,,,,,,,,,,,,,,,,,,,2699.301764300093,None,,,,,,,,,,,,,,,,,afternoon,100,140,silent,new,null,2696.599825900048,None,2696.599825900048,None,3,1.5223195003345609,2696.599825900048,None,1.5223195003345609,2698.1515951007605,None,2698.6511890999973,None,2698.6511890999973,None,f,0.6228971006348729,2698.6511890999973,None,0.6228971006348729,,,76Silent,001,2022_Nov_14_1252,ProdSingRedoBetween,2021.2.3,59.96134869013011,
,,,,140,0,140,0,,,,,,,,,,,,,,,,,,,,,,2702.1715934006497,None,,,,,,,,,,,,,,,,,measure,91,141,silent,new,null,2699.805410699919,None,2699.805410699919,None,3,1.4367233999073505,2699.805410699919,None,1.4367233999073505,2701.2721794005483,None,2701.7909722002223,None,2701.7909722002223,None,f,0.3551348000764847,2701.7909722002223,None,0.3551348000764847,,,76Silent,001,2022_Nov_14_1252,ProdSingRedoBetween,2021.2.3,59.96134869013011,
,,,,141,0,141,0,,,,,,,,,,,,,,,,,,,,,,2704.8906716005877,None,,,,,,,,,,,,,,,,,course,31,142,silent,old,blue,2702.6750445999205,None,2702.6750445999205,None,6,1.3191597005352378,2702.6750445999205,None,1.3191597005352378,2704.0260675000027,None,2704.5404595006257,None,2704.5404595006257,None,r,0.3336653998121619,2704.5404595006257,None,0.3336653998121619,,,76Silent,001,2022_Nov_14_1252,ProdSingRedoBetween,2021.2.3,59.96134869013011,
,,,,142,0,142,0,,,,,,,,,,,,,,,,,,,,,,2707.7116589006037,None,,,,,,,,,,,,,,,,,agreement,87,143,silent,old,red,2705.400656000711,None,2705.400656000711,None,6,1.161434699781239,2705.400656000711,None,1.161434699781239,2706.5930583002046,None,2707.099067600444,None,2707.099067600444,None,r,0.5911127999424934,2707.099067600444,None,0.5911127999424934,,,76Silent,001,2022_Nov_14_1252,ProdSingRedoBetween,2021.2.3,59.96134869013011,
,,,,143,0,143,0,,,,,,,,,,,,,,,,,,,,,,2710.512944499962,None,,,,,,,,,,,,,,,,,state,121,144,silent,new,null,2708.214229100384,None,2708.214229100384,None,3,1.3319654995575547,2708.214229100384,None,1.3319654995575547,2709.5620878003538,None,2710.07089890074,None,2710.07089890074,None,f,0.4272022005170584,2710.07089890074,None,0.4272022005170584,,,76Silent,001,2022_Nov_14_1252,ProdSingRedoBetween,2021.2.3,59.96134869013011,
,,,,144,0,144,0,,,,,,,,,,,,,,,,,,,,,,2715.2176224002615,None,,,,,,,,,,,,,,,,,route,94,145,silent,new,null,2711.0262104999274,None,2711.0262104999274,None,3,2.4158993996679783,2711.0262104999274,None,2.4158993996679783,2713.469252200797,None,2713.983187700622,None,2713.983187700622,None,f,1.2187997996807098,2713.983187700622,None,1.2187997996807098,,,76Silent,001,2022_Nov_14_1252,ProdSingRedoBetween,2021.2.3,59.96134869013011,
,,,,145,0,145,0,,,,,,,,,,,,,,,,,,,,,,2718.12052220013,None,,,,,,,,,,,,,,,,,property,164,146,silent,new,null,2715.729329400696,None,2715.729329400696,None,2,1.5607725996524096,2715.729329400696,None,1.5607725996524096,2717.325992099941,None,2717.839947000146,None,2717.839947000146,None,n,0.2581509994342923,2717.839947000146,None,0.2581509994342923,,,76Silent,001,2022_Nov_14_1252,ProdSingRedoBetween,2021.2.3,59.96134869013011,
,,,,146,0,146,0,,,,,,,,,,,,,,,,,,,,,,2720.7231557006016,None,,,,,,,,,,,,,,,,,novel,169,147,silent,new,null,2718.629110299982,None,2718.629110299982,None,1,1.4050956005230546,2718.629110299982,None,1.4050956005230546,2720.055843400769,None,2720.5602595005184,None,2720.5602595005184,None,n,0.14580469951033592,2720.5602595005184,None,0.14580469951033592,,,76Silent,001,2022_Nov_14_1252,ProdSingRedoBetween,2021.2.3,59.96134869013011,
,,,,147,0,147,0,,,,,,,,,,,,,,,,,,,,,,2723.609292300418,None,,,,,,,,,,,,,,,,,clear,19,148,silent,old,yellow,2721.234395400621,None,2721.234395400621,None,5,1.639602699317038,2721.234395400621,None,1.639602699317038,2722.8940074006096,None,2723.411617100239,None,2723.411617100239,None,r,0.17435390036553144,2723.411617100239,None,0.17435390036553144,,,76Silent,001,2022_Nov_14_1252,ProdSingRedoBetween,2021.2.3,59.96134869013011,
,,,,148,0,148,0,,,,,,,,,,,,,,,,,,,,,,2726.7290952000767,None,,,,,,,,,,,,,,,,,pressure,14,149,silent,old,yellow,2724.113477299921,None,2724.113477299921,None,4,1.86458919942379,2724.113477299921,None,1.86458919942379,2726.002081800252,None,2726.5123487999663,None,2726.5123487999663,None,f,0.19379319995641708,2726.5123487999663,None,0.19379319995641708,,,76Silent,001,2022_Nov_14_1252,ProdSingRedoBetween,2021.2.3,59.96134869013011,
,,,,149,0,149,0,,,,,,,,,,,,,,,,,,,,,,2729.9172039004043,None,,,,,,,,,,,,,,,,,guide,145,150,silent,new,null,2727.2382968999445,None,2727.2382968999445,None,5,1.6197581999003887,2727.2382968999445,None,1.6197581999003887,2728.881302400492,None,2729.3854959001765,None,2729.3854959001765,None,r,0.5047106994315982,2729.3854959001765,None,0.5047106994315982,,,76Silent,001,2022_Nov_14_1252,ProdSingRedoBetween,2021.2.3,59.96134869013011,
,,,,150,0,150,0,,,,,,,,,,,,,,,,,,,,,,2732.5849478999153,None,,,,,,,,,,,,,,,,,little,77,151,silent,old,red,2730.4345017001033,None,2730.4345017001033,None,5,1.2395089007914066,2730.4345017001033,None,1.2395089007914066,2731.7014028001577,None,2732.203698700294,None,2732.203698700294,None,r,0.36635159980505705,2732.203698700294,None,0.36635159980505705,,,76Silent,001,2022_Nov_14_1252,ProdSingRedoBetween,2021.2.3,59.96134869013011,
,,,,151,0,151,0,,,,,,,,,,,,,,,,,,,,,,2735.5892020007595,None,,,,,,,,,,,,,,,,,profession,4,152,silent,old,yellow,2733.0943269003183,None,2733.0943269003183,None,6,1.5717111006379128,2733.0943269003183,None,1.5717111006379128,2734.6889572003856,None,2735.2091186000034,None,2735.2091186000034,None,r,0.36103640031069517,2735.2091186000034,None,0.36103640031069517,,,76Silent,001,2022_Nov_14_1252,ProdSingRedoBetween,2021.2.3,59.96134869013011,
,,,,152,0,152,0,,,,,,,,,,,,,,,,,,,,,,2738.3406958002597,None,,,,,,,,,,,,,,,,,universal,60,153,silent,old,red,2736.105034600012,None,2736.105034600012,None,6,1.3371598003432155,2736.105034600012,None,1.3371598003432155,2737.4829127006233,None,2737.9960914999247,None,2737.9960914999247,None,r,0.3258509002625942,2737.9960914999247,None,0.3258509002625942,,,76Silent,001,2022_Nov_14_1252,ProdSingRedoBetween,2021.2.3,59.96134869013011,
,,,,153,0,153,0,,,,,,,,,,,,,,,,,,,,,,2741.296181300655,None,,,,,,,,,,,,,,,,,agency,99,154,silent,new,null,2738.86139450036,None,2738.86139450036,None,2,1.5485605001449585,2738.86139450036,None,1.5485605001449585,2740.4282562006265,None,2740.9457929003984,None,2740.9457929003984,None,n,0.3202889999374747,2740.9457929003984,None,0.3202889999374747,,,76Silent,001,2022_Nov_14_1252,ProdSingRedoBetween,2021.2.3,59.96134869013011,
,,,,154,0,154,0,,,,,,,,,,,,,,,,,,,,,,2744.0799294002354,None,,,,,,,,,,,,,,,,,south,68,155,silent,old,red,2741.8212705003098,None,2741.8212705003098,None,6,1.1487659998238087,2741.8212705003098,None,1.1487659998238087,2742.9984357003123,None,2743.5129595007747,None,2743.5129595007747,None,r,0.545151200145483,2743.5129595007747,None,0.545151200145483,,,76Silent,001,2022_Nov_14_1252,ProdSingRedoBetween,2021.2.3,59.96134869013011,
,,,,155,0,155,0,,,,,,,,,,,,,,,,,,,,,,2747.1161209000275,None,,,,,,,,,,,,,,,,,evidence,85,156,silent,old,red,2744.58635780029,None,2744.58635780029,None,6,1.1756700994446874,2744.58635780029,None,1.1756700994446874,2745.785716600716,None,2746.302575000562,None,2746.302575000562,None,r,0.7954058004543185,2746.302575000562,None,0.7954058004543185,,,76Silent,001,2022_Nov_14_1252,ProdSingRedoBetween,2021.2.3,59.96134869013011,
,,,,156,0,156,0,,,,,,,,,,,,,,,,,,,,,,2750.3027069000527,None,,,,,,,,,,,,,,,,,solution,170,157,silent,new,null,2747.6269213007763,None,2747.6269213007763,None,5,1.4470183998346329,2747.6269213007763,None,1.4470183998346329,2749.1030865004286,None,2749.6187978005037,None,2749.6187978005037,None,r,0.6552828997373581,2749.6187978005037,None,0.6552828997373581,,,76Silent,001,2022_Nov_14_1252,ProdSingRedoBetween,2021.2.3,59.96134869013011,
,,,,157,0,157,0,,,,,,,,,,,,,,,,,,,,,,2753.5389264002442,None,,,,,,,,,,,,,,,,,waste,20,158,silent,old,yellow,2750.8124590003863,None,2750.8124590003863,None,4,1.8294518003240228,2750.8124590003863,None,1.8294518003240228,2752.6715414999053,None,2753.1772590000182,None,2753.1772590000182,None,f,0.33665020018815994,2753.1772590000182,None,0.33665020018815994,,,76Silent,001,2022_Nov_14_1252,ProdSingRedoBetween,2021.2.3,59.96134869013011,
,,,,158,0,158,0,,,,,,,,,,,,,,,,,,,,,,2757.3276082007214,None,,,,,,,,,,,,,,,,,literature,172,159,silent,new,null,2754.0491172000766,None,2754.0491172000766,None,1,2.3928498001769185,2754.0491172000766,None,2.3928498001769185,2756.4588465001434,None,2756.9628675002605,None,2756.9628675002605,None,n,0.3432146003469825,2756.9628675002605,None,0.3432146003469825,,,76Silent,001,2022_Nov_14_1252,ProdSingRedoBetween,2021.2.3,59.96134869013011,
,,,,159,0,159,0,,,,,,,,,,,,,,,,,,,,,,2761.463743300177,None,,,,,,,,,,,,,,,,,machinery,159,160,silent,new,null,2757.8434289004654,None,2757.8434289004654,None,4,2.6065766997635365,2757.8434289004654,None,2.6065766997635365,2760.5003337999806,None,2761.0158978002146,None,2761.0158978002146,None,f,0.4261184995993972,2761.0158978002146,None,0.4261184995993972,,,76Silent,001,2022_Nov_14_1252,ProdSingRedoBetween,2021.2.3,59.96134869013011,
,,,,160,0,160,0,,,,,,,,,,,,,,,,,,,,,,2764.533271700144,None,,,,,,,,,,,,,,,,,present,45,161,silent,old,blue,2761.974087400362,None,2761.974087400362,None,5,1.6279638996347785,2761.974087400362,None,1.6279638996347785,2763.6368419006467,None,2764.1570741999894,None,2764.1570741999894,None,r,0.35697529930621386,2764.1570741999894,None,0.35697529930621386,,,76Silent,001,2022_Nov_14_1252,ProdSingRedoBetween,2021.2.3,59.96134869013011,
,,,,161,0,161,0,,,,,,,,,,,,,,,,,,,,,,2767.271221600473,None,,,,,,,,,,,,,,,,,problem,97,162,silent,new,null,2765.0366658000275,None,2765.0366658000275,None,5,1.2452803999185562,2765.0366658000275,None,1.2452803999185562,2766.3059416003525,None,2766.8208734001964,None,2766.8208734001964,None,r,0.4293229002505541,2766.8208734001964,None,0.4293229002505541,,,76Silent,001,2022_Nov_14_1252,ProdSingRedoBetween,2021.2.3,59.96134869013011,
,,,,162,0,162,0,,,,,,,,,,,,,,,,,,,,,,2770.5158998006955,None,,,,,,,,,,,,,,,,,block,6,163,silent,old,yellow,2767.790427000262,None,2767.790427000262,None,6,1.6596670001745224,2767.790427000262,None,1.6596670001745224,2769.4729848001152,None,2769.972412900068,None,2769.972412900068,None,r,0.5096899000927806,2769.972412900068,None,0.5096899000927806,,,76Silent,001,2022_Nov_14_1252,ProdSingRedoBetween,2021.2.3,59.96134869013011,
,,,,163,0,163,0,,,,,,,,,,,,,,,,,,,,,,2773.5758664999157,None,,,,,,,,,,,,,,,,,direction,43,164,silent,old,blue,2771.029503300786,None,2771.029503300786,None,6,1.5886856000870466,2771.029503300786,None,1.5886856000870466,2772.6507292008027,None,2773.1588441003114,None,2773.1588441003114,None,r,0.38734319992363453,2773.1588441003114,None,0.38734319992363453,,,76Silent,001,2022_Nov_14_1252,ProdSingRedoBetween,2021.2.3,59.96134869013011,
,,,,164,0,164,0,,,,,,,,,,,,,,,,,,,,,,2776.412043200806,None,,,,,,,,,,,,,,,,,height,101,165,silent,new,null,2774.0807825000957,None,2774.0807825000957,None,1,1.361337499693036,2774.0807825000957,None,1.361337499693036,2775.4635318005458,None,2775.979340100661,None,2775.979340100661,None,n,0.406704499386251,2775.979340100661,None,0.406704499386251,,,76Silent,001,2022_Nov_14_1252,ProdSingRedoBetween,2021.2.3,59.96134869013011,
,,,,165,0,165,0,,,,,,,,,,,,,,,,,,,,,,2780.5688823005185,None,,,,,,,,,,,,,,,,,quiet,67,166,silent,old,red,2776.9241867000237,None,2776.9241867000237,None,4,2.773729500360787,2776.9241867000237,None,2.773729500360787,2779.7173080006614,None,2780.2325638001785,None,2780.2325638001785,None,f,0.31356010027229786,2780.2325638001785,None,0.31356010027229786,,,76Silent,001,2022_Nov_14_1252,ProdSingRedoBetween,2021.2.3,59.96134869013011,
,,,,166,0,166,0,,,,,,,,,,,,,,,,,,,,,,2784.3548891004175,None,,,,,,,,,,,,,,,,,character,52,167,silent,old,blue,2781.091831699945,None,2781.091831699945,None,4,2.1981520000845194,2781.091831699945,None,2.1981520000845194,2783.321345500648,None,2783.842642100528,None,2783.842642100528,None,f,0.47934750001877546,2783.842642100528,None,0.47934750001877546,,,76Silent,001,2022_Nov_14_1252,ProdSingRedoBetween,2021.2.3,59.96134869013011,
,,,,167,0,167,0,,,,,,,,,,,,,,,,,,,,,,2789.1079802000895,None,,,,,,,,,,,,,,,,,object,55,168,silent,old,blue,2784.8735295999795,None,2784.8735295999795,None,5,3.3284381004050374,2784.8735295999795,None,3.3284381004050374,2788.2258717007935,None,2788.7440843004733,None,2788.7440843004733,None,r,0.34582099970430136,2788.7440843004733,None,0.34582099970430136,,,76Silent,001,2022_Nov_14_1252,ProdSingRedoBetween,2021.2.3,59.96134869013011,
,,,,168,0,168,0,,,,,,,,,,,,,,,,,,,,,,2792.5780617007986,None,,,,,,,,,,,,,,,,,election,177,169,silent,new,null,2789.611329900101,None,2789.611329900101,None,6,1.798700399696827,2789.611329900101,None,1.798700399696827,2791.4328765999526,None,2791.9442171007395,None,2791.9442171007395,None,r,0.6097687995061278,2791.9442171007395,None,0.6097687995061278,,,76Silent,001,2022_Nov_14_1252,ProdSingRedoBetween,2021.2.3,59.96134869013011,
,,,,169,0,169,0,,,,,,,,,,,,,,,,,,,,,,2795.9647532999516,None,,,,,,,,,,,,,,,,,council,108,170,silent,new,null,2793.0839084004983,None,2793.0839084004983,None,6,1.9740514997392893,2793.0839084004983,None,1.9740514997392893,2795.0833848007023,None,2795.5999469999224,None,2795.5999469999224,None,r,0.33795630000531673,2795.5999469999224,None,0.33795630000531673,,,76Silent,001,2022_Nov_14_1252,ProdSingRedoBetween,2021.2.3,59.96134869013011,
,,,,170,0,170,0,,,,,,,,,,,,,,,,,,,,,,2798.784425600432,None,,,,,,,,,,,,,,,,,place,125,171,silent,new,null,2796.4675050005317,None,2796.4675050005317,None,2,1.4624455999583006,2796.4675050005317,None,1.4624455999583006,2797.9512785999104,None,2798.450893900357,None,2798.450893900357,None,n,0.3029739996418357,2798.450893900357,None,0.3029739996418357,,,76Silent,001,2022_Nov_14_1252,ProdSingRedoBetween,2021.2.3,59.96134869013011,
,,,,171,0,171,0,,,,,,,,,,,,,,,,,,,,,,2801.470371800475,None,,,,,,,,,,,,,,,,,store,98,172,silent,new,null,2799.293347200379,None,2799.293347200379,None,6,1.4366442998871207,2799.293347200379,None,1.4366442998871207,2800.7565742004663,None,2801.2732907999307,None,2801.2732907999307,None,r,0.16879579983651638,2801.2732907999307,None,0.16879579983651638,,,76Silent,001,2022_Nov_14_1252,ProdSingRedoBetween,2021.2.3,59.96134869013011,
,,,,172,0,172,0,,,,,,,,,,,,,,,,,,,,,,2804.306311700493,None,,,,,,,,,,,,,,,,,plane,25,173,silent,old,yellow,2801.9806073000655,None,2801.9806073000655,None,1,1.4855657992884517,2801.9806073000655,None,1.4855657992884517,2803.4941275008023,None,2804.006237000227,None,2804.006237000227,None,n,0.2757334001362324,2804.006237000227,None,0.2757334001362324,,,76Silent,001,2022_Nov_14_1252,ProdSingRedoBetween,2021.2.3,59.96134869013011,
,,,,173,0,173,0,,,,,,,,,,,,,,,,,,,,,,2807.0592120001093,None,,,,,,,,,,,,,,,,,gesture,149,174,silent,new,null,2804.8147022007033,None,2804.8147022007033,None,1,1.3952916003763676,2804.8147022007033,None,1.3952916003763676,2806.2298300005496,None,2806.748584500514,None,2806.748584500514,None,n,0.29335980024188757,2806.748584500514,None,0.29335980024188757,,,76Silent,001,2022_Nov_14_1252,ProdSingRedoBetween,2021.2.3,59.96134869013011,
,,,,174,0,174,0,,,,,,,,,,,,,,,,,,,,,,2809.695171000436,None,,,,,,,,,,,,,,,,,court,28,175,silent,old,yellow,2807.559788200073,None,2807.559788200073,None,6,1.1941304998472333,2807.559788200073,None,1.1941304998472333,2808.7794382004067,None,2809.2965011000633,None,2809.2965011000633,None,r,0.3694315003231168,2809.2965011000633,None,0.3694315003231168,,,76Silent,001,2022_Nov_14_1252,ProdSingRedoBetween,2021.2.3,59.96134869013011,
