StudyLoop.thisRepN,StudyLoop.thisTrialN,StudyLoop.thisN,StudyLoop.thisIndex,TestLoop.thisRepN,TestLoop.thisTrialN,TestLoop.thisN,TestLoop.thisIndex,textCondition.started,textCondition.stopped,keyCondition.keys,keyCondition.rt,keyCondition.started,keyCondition.stopped,Condition,textWelcome.started,textWelcome.stopped,keyWelcome.keys,keyWelcome.rt,keyWelcome.started,keyWelcome.stopped,textAloud.started,textAloud.stopped,textSilent.started,textSilent.stopped,textSing.started,textSing.stopped,conditional_text.started,conditional_text.stopped,textBlank500.started,textBlank500.stopped,study_word,study_num,study_order,study_type,word_color,textStudy.started,textStudy.stopped,keyStudy.keys,keyStudy.started,keyStudy.stopped,textTestInstructions.started,textTestInstructions.stopped,key_resp_3.keys,key_resp_3.rt,key_resp_3.started,key_resp_3.stopped,test_word,test_num,test_order,test_condition,old_new_test,test_word_original_color,textConf.started,textConf.stopped,textConfScale.started,textConfScale.stopped,keyConf.keys,keyConf.rt,keyConf.started,keyConf.stopped,confidence response time,textTestBlank.started,textTestBlank.stopped,textRKN.started,textRKN.stopped,textRKNScale.started,textRKNScale.stopped,keyRKN.keys,keyRKN.rt,keyRKN.started,keyRKN.stopped,rkn response time,textEnd.started,textEnd.stopped,participant,session,date,expName,psychopyVersion,frameRate,
,,,,,,,,22.82317760027945,None,b,0.9027145998552442,22.82317760027945,None,,,,,,,,,,,,,,,,,,,,,,,,,,,,,,,,,,,,,,,,,,,,,,,,,,,,,,,,,,,,,,77Aloud,001,2022_Nov_14_1511,ProdSingRedoBetween,2021.2.3,59.99563256406808,
,,,,,,,,,,,,,,AloudTest,23.770960400812328,None,space,1270.0726022003219,23.770960400812328,None,,,,,,,,,,,,,,,,,,,,,,,,,,,,,,,,,,,,,,,,,,,,,,,,,,,,,,,77Aloud,001,2022_Nov_14_1511,ProdSingRedoBetween,2021.2.3,59.99563256406808,
0,0,0,0,,,,,,,,,,,,,,,,,,23.770960400812328,None,23.770960400812328,None,23.770960400812328,None,23.770960400812328,None,1296.3751923004165,None,nature,65,1,aloud,red,1294.3732087006792,None,None,1294.3732087006792,None,,,,,,,,,,,,,,,,,,,,,,,,,,,,,,,,,,,77Aloud,001,2022_Nov_14_1511,ProdSingRedoBetween,2021.2.3,59.99563256406808,
1,0,1,0,,,,,,,,,,,,,,,,,,,,,,,,,,1298.8944195006043,None,salary,36,2,aloud,blue,1296.8803647002205,None,None,1296.8803647002205,None,,,,,,,,,,,,,,,,,,,,,,,,,,,,,,,,,,,77Aloud,001,2022_Nov_14_1511,ProdSingRedoBetween,2021.2.3,59.99563256406808,
2,0,2,0,,,,,,,,,,,,,,,,,,,,,,,,,,1301.413504600525,None,drove,15,3,aloud,yellow,1299.410468400456,None,None,1299.410468400456,None,,,,,,,,,,,,,,,,,,,,,,,,,,,,,,,,,,,77Aloud,001,2022_Nov_14_1511,ProdSingRedoBetween,2021.2.3,59.99563256406808,
3,0,3,0,,,,,,,,,,,,,,,,,,,,,,,,,,1303.915787100792,None,gesture,71,4,aloud,red,1301.914952300489,None,None,1301.914952300489,None,,,,,,,,,,,,,,,,,,,,,,,,,,,,,,,,,,,77Aloud,001,2022_Nov_14_1511,ProdSingRedoBetween,2021.2.3,59.99563256406808,
4,0,4,0,,,,,,,,,,,,,,,,,,,,,,,,,,1306.418542300351,None,council,60,5,aloud,red,1304.4188405005261,None,None,1304.4188405005261,None,,,,,,,,,,,,,,,,,,,,,,,,,,,,,,,,,,,77Aloud,001,2022_Nov_14_1511,ProdSingRedoBetween,2021.2.3,59.99563256406808,
5,0,5,0,,,,,,,,,,,,,,,,,,,,,,,,,,1308.9207853004336,None,quantity,34,6,aloud,blue,1306.9217867003754,None,None,1306.9217867003754,None,,,,,,,,,,,,,,,,,,,,,,,,,,,,,,,,,,,77Aloud,001,2022_Nov_14_1511,ProdSingRedoBetween,2021.2.3,59.99563256406808,
6,0,6,0,,,,,,,,,,,,,,,,,,,,,,,,,,1311.4402414001524,None,message,56,7,aloud,blue,1309.4316488001496,None,None,1309.4316488001496,None,,,,,,,,,,,,,,,,,,,,,,,,,,,,,,,,,,,77Aloud,001,2022_Nov_14_1511,ProdSingRedoBetween,2021.2.3,59.99563256406808,
7,0,7,0,,,,,,,,,,,,,,,,,,,,,,,,,,1313.9427000004798,None,center,83,8,aloud,red,1311.9407141003758,None,None,1311.9407141003758,None,,,,,,,,,,,,,,,,,,,,,,,,,,,,,,,,,,,77Aloud,001,2022_Nov_14_1511,ProdSingRedoBetween,2021.2.3,59.99563256406808,
8,0,8,0,,,,,,,,,,,,,,,,,,,,,,,,,,1316.4451775001362,None,sight,38,9,aloud,blue,1314.443211200647,None,None,1314.443211200647,None,,,,,,,,,,,,,,,,,,,,,,,,,,,,,,,,,,,77Aloud,001,2022_Nov_14_1511,ProdSingRedoBetween,2021.2.3,59.99563256406808,
9,0,9,0,,,,,,,,,,,,,,,,,,,,,,,,,,1318.9476771000773,None,count,3,10,aloud,yellow,1316.9456840008497,None,None,1316.9456840008497,None,,,,,,,,,,,,,,,,,,,,,,,,,,,,,,,,,,,77Aloud,001,2022_Nov_14_1511,ProdSingRedoBetween,2021.2.3,59.99563256406808,
10,0,10,0,,,,,,,,,,,,,,,,,,,,,,,,,,1321.4667972000316,None,enemy,46,11,aloud,blue,1319.4532208004966,None,None,1319.4532208004966,None,,,,,,,,,,,,,,,,,,,,,,,,,,,,,,,,,,,77Aloud,001,2022_Nov_14_1511,ProdSingRedoBetween,2021.2.3,59.99563256406808,
11,0,11,0,,,,,,,,,,,,,,,,,,,,,,,,,,1323.9690900007263,None,captain,47,12,aloud,blue,1321.967210500501,None,None,1321.967210500501,None,,,,,,,,,,,,,,,,,,,,,,,,,,,,,,,,,,,77Aloud,001,2022_Nov_14_1511,ProdSingRedoBetween,2021.2.3,59.99563256406808,
12,0,12,0,,,,,,,,,,,,,,,,,,,,,,,,,,1326.4719168003649,None,point,86,13,aloud,red,1324.4698407007381,None,None,1324.4698407007381,None,,,,,,,,,,,,,,,,,,,,,,,,,,,,,,,,,,,77Aloud,001,2022_Nov_14_1511,ProdSingRedoBetween,2021.2.3,59.99563256406808,
13,0,13,0,,,,,,,,,,,,,,,,,,,,,,,,,,1328.9905176004395,None,business,35,14,aloud,blue,1326.9759198008105,None,None,1326.9759198008105,None,,,,,,,,,,,,,,,,,,,,,,,,,,,,,,,,,,,77Aloud,001,2022_Nov_14_1511,ProdSingRedoBetween,2021.2.3,59.99563256406808,
14,0,14,0,,,,,,,,,,,,,,,,,,,,,,,,,,1331.493574300781,None,defeat,67,15,aloud,red,1329.4945204006508,None,None,1329.4945204006508,None,,,,,,,,,,,,,,,,,,,,,,,,,,,,,,,,,,,77Aloud,001,2022_Nov_14_1511,ProdSingRedoBetween,2021.2.3,59.99563256406808,
15,0,15,0,,,,,,,,,,,,,,,,,,,,,,,,,,1334.0124911004677,None,second,66,16,aloud,red,1332.00273930002,None,None,1332.00273930002,None,,,,,,,,,,,,,,,,,,,,,,,,,,,,,,,,,,,77Aloud,001,2022_Nov_14_1511,ProdSingRedoBetween,2021.2.3,59.99563256406808,
16,0,16,0,,,,,,,,,,,,,,,,,,,,,,,,,,1336.515190500766,None,story,39,17,aloud,blue,1334.512922800146,None,None,1334.512922800146,None,,,,,,,,,,,,,,,,,,,,,,,,,,,,,,,,,,,77Aloud,001,2022_Nov_14_1511,ProdSingRedoBetween,2021.2.3,59.99563256406808,
17,0,17,0,,,,,,,,,,,,,,,,,,,,,,,,,,1339.0344282006845,None,country,88,18,aloud,red,1337.020321900025,None,None,1337.020321900025,None,,,,,,,,,,,,,,,,,,,,,,,,,,,,,,,,,,,77Aloud,001,2022_Nov_14_1511,ProdSingRedoBetween,2021.2.3,59.99563256406808,
18,0,18,0,,,,,,,,,,,,,,,,,,,,,,,,,,1341.5535946004093,None,split,68,19,aloud,red,1339.5379457008094,None,None,1339.5379457008094,None,,,,,,,,,,,,,,,,,,,,,,,,,,,,,,,,,,,77Aloud,001,2022_Nov_14_1511,ProdSingRedoBetween,2021.2.3,59.99563256406808,
19,0,19,0,,,,,,,,,,,,,,,,,,,,,,,,,,1344.0560689000413,None,bucket,2,20,aloud,yellow,1342.0539756007493,None,None,1342.0539756007493,None,,,,,,,,,,,,,,,,,,,,,,,,,,,,,,,,,,,77Aloud,001,2022_Nov_14_1511,ProdSingRedoBetween,2021.2.3,59.99563256406808,
20,0,20,0,,,,,,,,,,,,,,,,,,,,,,,,,,1346.5583961000666,None,piece,30,21,aloud,blue,1344.556624500081,None,None,1344.556624500081,None,,,,,,,,,,,,,,,,,,,,,,,,,,,,,,,,,,,77Aloud,001,2022_Nov_14_1511,ProdSingRedoBetween,2021.2.3,59.99563256406808,
21,0,21,0,,,,,,,,,,,,,,,,,,,,,,,,,,1349.061015500687,None,spoke,53,22,aloud,blue,1347.0601374004036,None,None,1347.0601374004036,None,,,,,,,,,,,,,,,,,,,,,,,,,,,,,,,,,,,77Aloud,001,2022_Nov_14_1511,ProdSingRedoBetween,2021.2.3,59.99563256406808,
22,0,22,0,,,,,,,,,,,,,,,,,,,,,,,,,,1351.5803728001192,None,disease,59,23,aloud,yellow,1349.5654196999967,None,None,1349.5654196999967,None,,,,,,,,,,,,,,,,,,,,,,,,,,,,,,,,,,,77Aloud,001,2022_Nov_14_1511,ProdSingRedoBetween,2021.2.3,59.99563256406808,
23,0,23,0,,,,,,,,,,,,,,,,,,,,,,,,,,1354.0827001007274,None,ground,72,24,aloud,red,1352.080825299956,None,None,1352.080825299956,None,,,,,,,,,,,,,,,,,,,,,,,,,,,,,,,,,,,77Aloud,001,2022_Nov_14_1511,ProdSingRedoBetween,2021.2.3,59.99563256406808,
24,0,24,0,,,,,,,,,,,,,,,,,,,,,,,,,,1356.585259700194,None,background,14,25,aloud,yellow,1354.583714400418,None,None,1354.583714400418,None,,,,,,,,,,,,,,,,,,,,,,,,,,,,,,,,,,,77Aloud,001,2022_Nov_14_1511,ProdSingRedoBetween,2021.2.3,59.99563256406808,
25,0,25,0,,,,,,,,,,,,,,,,,,,,,,,,,,1359.104254300706,None,platform,16,26,aloud,yellow,1357.0902346000075,None,None,1357.0902346000075,None,,,,,,,,,,,,,,,,,,,,,,,,,,,,,,,,,,,77Aloud,001,2022_Nov_14_1511,ProdSingRedoBetween,2021.2.3,59.99563256406808,
26,0,26,0,,,,,,,,,,,,,,,,,,,,,,,,,,1361.606677800417,None,curve,4,27,aloud,yellow,1359.6048531001434,None,None,1359.6048531001434,None,,,,,,,,,,,,,,,,,,,,,,,,,,,,,,,,,,,77Aloud,001,2022_Nov_14_1511,ProdSingRedoBetween,2021.2.3,59.99563256406808,
27,0,27,0,,,,,,,,,,,,,,,,,,,,,,,,,,1364.109356299974,None,south,84,28,aloud,red,1362.1073843007907,None,None,1362.1073843007907,None,,,,,,,,,,,,,,,,,,,,,,,,,,,,,,,,,,,77Aloud,001,2022_Nov_14_1511,ProdSingRedoBetween,2021.2.3,59.99563256406808,
28,0,28,0,,,,,,,,,,,,,,,,,,,,,,,,,,1366.628648900427,None,employment,17,29,aloud,yellow,1364.6168363001198,None,None,1364.6168363001198,None,,,,,,,,,,,,,,,,,,,,,,,,,,,,,,,,,,,77Aloud,001,2022_Nov_14_1511,ProdSingRedoBetween,2021.2.3,59.99563256406808,
29,0,29,0,,,,,,,,,,,,,,,,,,,,,,,,,,1369.1310437005013,None,surface,51,30,aloud,blue,1367.1315436000004,None,None,1367.1315436000004,None,,,,,,,,,,,,,,,,,,,,,,,,,,,,,,,,,,,77Aloud,001,2022_Nov_14_1511,ProdSingRedoBetween,2021.2.3,59.99563256406808,
30,0,30,0,,,,,,,,,,,,,,,,,,,,,,,,,,1371.6335834003985,None,trial,33,31,aloud,blue,1369.6338336002082,None,None,1369.6338336002082,None,,,,,,,,,,,,,,,,,,,,,,,,,,,,,,,,,,,77Aloud,001,2022_Nov_14_1511,ProdSingRedoBetween,2021.2.3,59.99563256406808,
31,0,31,0,,,,,,,,,,,,,,,,,,,,,,,,,,1374.136088100262,None,signal,1,32,aloud,yellow,1372.1340358005837,None,None,1372.1340358005837,None,,,,,,,,,,,,,,,,,,,,,,,,,,,,,,,,,,,77Aloud,001,2022_Nov_14_1511,ProdSingRedoBetween,2021.2.3,59.99563256406808,
32,0,32,0,,,,,,,,,,,,,,,,,,,,,,,,,,1376.638464299962,None,object,62,33,aloud,red,1374.63924960047,None,None,1374.63924960047,None,,,,,,,,,,,,,,,,,,,,,,,,,,,,,,,,,,,77Aloud,001,2022_Nov_14_1511,ProdSingRedoBetween,2021.2.3,59.99563256406808,
33,0,33,0,,,,,,,,,,,,,,,,,,,,,,,,,,1379.1576863005757,None,design,7,34,aloud,yellow,1377.142630700022,None,None,1377.142630700022,None,,,,,,,,,,,,,,,,,,,,,,,,,,,,,,,,,,,77Aloud,001,2022_Nov_14_1511,ProdSingRedoBetween,2021.2.3,59.99563256406808,
34,0,34,0,,,,,,,,,,,,,,,,,,,,,,,,,,1381.6602068999782,None,range,77,35,aloud,red,1379.6591506004333,None,None,1379.6591506004333,None,,,,,,,,,,,,,,,,,,,,,,,,,,,,,,,,,,,77Aloud,001,2022_Nov_14_1511,ProdSingRedoBetween,2021.2.3,59.99563256406808,
35,0,35,0,,,,,,,,,,,,,,,,,,,,,,,,,,1384.179461300373,None,production,45,36,aloud,blue,1382.166751500219,None,None,1382.166751500219,None,,,,,,,,,,,,,,,,,,,,,,,,,,,,,,,,,,,77Aloud,001,2022_Nov_14_1511,ProdSingRedoBetween,2021.2.3,59.99563256406808,
36,0,36,0,,,,,,,,,,,,,,,,,,,,,,,,,,1386.682013200596,None,relation,0,37,aloud,yellow,1384.682290800847,None,None,1384.682290800847,None,,,,,,,,,,,,,,,,,,,,,,,,,,,,,,,,,,,77Aloud,001,2022_Nov_14_1511,ProdSingRedoBetween,2021.2.3,59.99563256406808,
37,0,37,0,,,,,,,,,,,,,,,,,,,,,,,,,,1389.184200500138,None,crime,41,38,aloud,blue,1387.1853002002463,None,None,1387.1853002002463,None,,,,,,,,,,,,,,,,,,,,,,,,,,,,,,,,,,,77Aloud,001,2022_Nov_14_1511,ProdSingRedoBetween,2021.2.3,59.99563256406808,
38,0,38,0,,,,,,,,,,,,,,,,,,,,,,,,,,1391.6869821008295,None,oxygen,81,39,aloud,red,1389.6848532008007,None,None,1389.6848532008007,None,,,,,,,,,,,,,,,,,,,,,,,,,,,,,,,,,,,77Aloud,001,2022_Nov_14_1511,ProdSingRedoBetween,2021.2.3,59.99563256406808,
39,0,39,0,,,,,,,,,,,,,,,,,,,,,,,,,,1394.2060027001426,None,sound,49,40,aloud,blue,1392.193236000836,None,None,1392.193236000836,None,,,,,,,,,,,,,,,,,,,,,,,,,,,,,,,,,,,77Aloud,001,2022_Nov_14_1511,ProdSingRedoBetween,2021.2.3,59.99563256406808,
40,0,40,0,,,,,,,,,,,,,,,,,,,,,,,,,,1396.7086645001546,None,executive,75,41,aloud,red,1394.7081921007484,None,None,1394.7081921007484,None,,,,,,,,,,,,,,,,,,,,,,,,,,,,,,,,,,,77Aloud,001,2022_Nov_14_1511,ProdSingRedoBetween,2021.2.3,59.99563256406808,
41,0,41,0,,,,,,,,,,,,,,,,,,,,,,,,,,1399.21116130054,None,right,74,42,aloud,red,1397.2090837005526,None,None,1397.2090837005526,None,,,,,,,,,,,,,,,,,,,,,,,,,,,,,,,,,,,77Aloud,001,2022_Nov_14_1511,ProdSingRedoBetween,2021.2.3,59.99563256406808,
42,0,42,0,,,,,,,,,,,,,,,,,,,,,,,,,,1401.7135719005018,None,entrance,64,43,aloud,red,1399.713895600289,None,None,1399.713895600289,None,,,,,,,,,,,,,,,,,,,,,,,,,,,,,,,,,,,77Aloud,001,2022_Nov_14_1511,ProdSingRedoBetween,2021.2.3,59.99563256406808,
43,0,43,0,,,,,,,,,,,,,,,,,,,,,,,,,,1404.2327951006591,None,private,26,44,aloud,yellow,1402.2231004005298,None,None,1402.2231004005298,None,,,,,,,,,,,,,,,,,,,,,,,,,,,,,,,,,,,77Aloud,001,2022_Nov_14_1511,ProdSingRedoBetween,2021.2.3,59.99563256406808,
44,0,44,0,,,,,,,,,,,,,,,,,,,,,,,,,,1406.7352698007599,None,substance,55,45,aloud,blue,1404.735740000382,None,None,1404.735740000382,None,,,,,,,,,,,,,,,,,,,,,,,,,,,,,,,,,,,77Aloud,001,2022_Nov_14_1511,ProdSingRedoBetween,2021.2.3,59.99563256406808,
45,0,45,0,,,,,,,,,,,,,,,,,,,,,,,,,,1409.2373918006197,None,religion,10,46,aloud,yellow,1407.2379932003096,None,None,1407.2379932003096,None,,,,,,,,,,,,,,,,,,,,,,,,,,,,,,,,,,,77Aloud,001,2022_Nov_14_1511,ProdSingRedoBetween,2021.2.3,59.99563256406808,
46,0,46,0,,,,,,,,,,,,,,,,,,,,,,,,,,1411.7567052999511,None,addition,32,47,aloud,blue,1409.7465314008296,None,None,1409.7465314008296,None,,,,,,,,,,,,,,,,,,,,,,,,,,,,,,,,,,,77Aloud,001,2022_Nov_14_1511,ProdSingRedoBetween,2021.2.3,59.99563256406808,
47,0,47,0,,,,,,,,,,,,,,,,,,,,,,,,,,1414.259443799965,None,primary,44,48,aloud,blue,1412.2593037001789,None,None,1412.2593037001789,None,,,,,,,,,,,,,,,,,,,,,,,,,,,,,,,,,,,77Aloud,001,2022_Nov_14_1511,ProdSingRedoBetween,2021.2.3,59.99563256406808,
48,0,48,0,,,,,,,,,,,,,,,,,,,,,,,,,,1416.7618468003348,None,cousin,85,49,aloud,red,1414.7623868007213,None,None,1414.7623868007213,None,,,,,,,,,,,,,,,,,,,,,,,,,,,,,,,,,,,77Aloud,001,2022_Nov_14_1511,ProdSingRedoBetween,2021.2.3,59.99563256406808,
49,0,49,0,,,,,,,,,,,,,,,,,,,,,,,,,,1419.264430500567,None,account,61,50,aloud,red,1417.2622572006658,None,None,1417.2622572006658,None,,,,,,,,,,,,,,,,,,,,,,,,,,,,,,,,,,,77Aloud,001,2022_Nov_14_1511,ProdSingRedoBetween,2021.2.3,59.99563256406808,
50,0,50,0,,,,,,,,,,,,,,,,,,,,,,,,,,1421.7668415000662,None,match,48,51,aloud,blue,1419.767277000472,None,None,1419.767277000472,None,,,,,,,,,,,,,,,,,,,,,,,,,,,,,,,,,,,77Aloud,001,2022_Nov_14_1511,ProdSingRedoBetween,2021.2.3,59.99563256406808,
51,0,51,0,,,,,,,,,,,,,,,,,,,,,,,,,,1424.2690730001777,None,tough,79,52,aloud,red,1422.2682974003255,None,None,1422.2682974003255,None,,,,,,,,,,,,,,,,,,,,,,,,,,,,,,,,,,,77Aloud,001,2022_Nov_14_1511,ProdSingRedoBetween,2021.2.3,59.99563256406808,
52,0,52,0,,,,,,,,,,,,,,,,,,,,,,,,,,1426.7719077002257,None,error,8,53,aloud,yellow,1424.7697467003018,None,None,1424.7697467003018,None,,,,,,,,,,,,,,,,,,,,,,,,,,,,,,,,,,,77Aloud,001,2022_Nov_14_1511,ProdSingRedoBetween,2021.2.3,59.99563256406808,
53,0,53,0,,,,,,,,,,,,,,,,,,,,,,,,,,1429.2911165002733,None,society,18,54,aloud,yellow,1427.2764718001708,None,None,1427.2764718001708,None,,,,,,,,,,,,,,,,,,,,,,,,,,,,,,,,,,,77Aloud,001,2022_Nov_14_1511,ProdSingRedoBetween,2021.2.3,59.99563256406808,
54,0,54,0,,,,,,,,,,,,,,,,,,,,,,,,,,1431.8102629007772,None,suggestion,52,55,aloud,blue,1429.7955995006487,None,None,1429.7955995006487,None,,,,,,,,,,,,,,,,,,,,,,,,,,,,,,,,,,,77Aloud,001,2022_Nov_14_1511,ProdSingRedoBetween,2021.2.3,59.99563256406808,
55,0,55,0,,,,,,,,,,,,,,,,,,,,,,,,,,1434.3128080004826,None,block,82,56,aloud,red,1432.3108078008518,None,None,1432.3108078008518,None,,,,,,,,,,,,,,,,,,,,,,,,,,,,,,,,,,,77Aloud,001,2022_Nov_14_1511,ProdSingRedoBetween,2021.2.3,59.99563256406808,
56,0,56,0,,,,,,,,,,,,,,,,,,,,,,,,,,1436.8318898007274,None,service,25,57,aloud,yellow,1434.8189070001245,None,None,1434.8189070001245,None,,,,,,,,,,,,,,,,,,,,,,,,,,,,,,,,,,,77Aloud,001,2022_Nov_14_1511,ProdSingRedoBetween,2021.2.3,59.99563256406808,
57,0,57,0,,,,,,,,,,,,,,,,,,,,,,,,,,1439.3341594999656,None,company,43,58,aloud,blue,1437.3340863008052,None,None,1437.3340863008052,None,,,,,,,,,,,,,,,,,,,,,,,,,,,,,,,,,,,77Aloud,001,2022_Nov_14_1511,ProdSingRedoBetween,2021.2.3,59.99563256406808,
58,0,58,0,,,,,,,,,,,,,,,,,,,,,,,,,,1441.853637699969,None,equipment,80,59,aloud,red,1439.8385237008333,None,None,1439.8385237008333,None,,,,,,,,,,,,,,,,,,,,,,,,,,,,,,,,,,,77Aloud,001,2022_Nov_14_1511,ProdSingRedoBetween,2021.2.3,59.99563256406808,
59,0,59,0,,,,,,,,,,,,,,,,,,,,,,,,,,1444.3727850001305,None,route,28,60,aloud,yellow,1442.3578391000628,None,None,1442.3578391000628,None,,,,,,,,,,,,,,,,,,,,,,,,,,,,,,,,,,,77Aloud,001,2022_Nov_14_1511,ProdSingRedoBetween,2021.2.3,59.99563256406808,
60,0,60,0,,,,,,,,,,,,,,,,,,,,,,,,,,1446.8753202008083,None,committee,29,61,aloud,blue,1444.8732852004468,None,None,1444.8732852004468,None,,,,,,,,,,,,,,,,,,,,,,,,,,,,,,,,,,,77Aloud,001,2022_Nov_14_1511,ProdSingRedoBetween,2021.2.3,59.99563256406808,
61,0,61,0,,,,,,,,,,,,,,,,,,,,,,,,,,1449.3777742004022,None,column,69,62,aloud,red,1447.3781859008595,None,None,1447.3781859008595,None,,,,,,,,,,,,,,,,,,,,,,,,,,,,,,,,,,,77Aloud,001,2022_Nov_14_1511,ProdSingRedoBetween,2021.2.3,59.99563256406808,
62,0,62,0,,,,,,,,,,,,,,,,,,,,,,,,,,1451.880250500515,None,position,22,63,aloud,yellow,1449.878309899941,None,None,1449.878309899941,None,,,,,,,,,,,,,,,,,,,,,,,,,,,,,,,,,,,77Aloud,001,2022_Nov_14_1511,ProdSingRedoBetween,2021.2.3,59.99563256406808,
63,0,63,0,,,,,,,,,,,,,,,,,,,,,,,,,,1454.39945070073,None,skill,40,64,aloud,blue,1452.385747000575,None,None,1452.385747000575,None,,,,,,,,,,,,,,,,,,,,,,,,,,,,,,,,,,,77Aloud,001,2022_Nov_14_1511,ProdSingRedoBetween,2021.2.3,59.99563256406808,
64,0,64,0,,,,,,,,,,,,,,,,,,,,,,,,,,1456.9019541004673,None,interior,13,65,aloud,yellow,1454.9018095005304,None,None,1454.9018095005304,None,,,,,,,,,,,,,,,,,,,,,,,,,,,,,,,,,,,77Aloud,001,2022_Nov_14_1511,ProdSingRedoBetween,2021.2.3,59.99563256406808,
65,0,65,0,,,,,,,,,,,,,,,,,,,,,,,,,,1459.4044918008149,None,broad,31,66,aloud,blue,1457.40246160049,None,None,1457.40246160049,None,,,,,,,,,,,,,,,,,,,,,,,,,,,,,,,,,,,77Aloud,001,2022_Nov_14_1511,ProdSingRedoBetween,2021.2.3,59.99563256406808,
66,0,66,0,,,,,,,,,,,,,,,,,,,,,,,,,,1461.9067664006725,None,benefit,89,67,aloud,red,1459.9049420999363,None,None,1459.9049420999363,None,,,,,,,,,,,,,,,,,,,,,,,,,,,,,,,,,,,77Aloud,001,2022_Nov_14_1511,ProdSingRedoBetween,2021.2.3,59.99563256406808,
67,0,67,0,,,,,,,,,,,,,,,,,,,,,,,,,,1464.426137600094,None,crowd,87,68,aloud,red,1462.4155686004087,None,None,1462.4155686004087,None,,,,,,,,,,,,,,,,,,,,,,,,,,,,,,,,,,,77Aloud,001,2022_Nov_14_1511,ProdSingRedoBetween,2021.2.3,59.99563256406808,
68,0,68,0,,,,,,,,,,,,,,,,,,,,,,,,,,1466.92985710036,None,health,6,69,aloud,yellow,1464.926620800048,None,None,1464.926620800048,None,,,,,,,,,,,,,,,,,,,,,,,,,,,,,,,,,,,77Aloud,001,2022_Nov_14_1511,ProdSingRedoBetween,2021.2.3,59.99563256406808,
69,0,69,0,,,,,,,,,,,,,,,,,,,,,,,,,,1469.4478150000796,None,property,63,70,aloud,red,1467.4427605001256,None,None,1467.4427605001256,None,,,,,,,,,,,,,,,,,,,,,,,,,,,,,,,,,,,77Aloud,001,2022_Nov_14_1511,ProdSingRedoBetween,2021.2.3,59.99563256406808,
70,0,70,0,,,,,,,,,,,,,,,,,,,,,,,,,,1471.9502694001421,None,republic,21,71,aloud,yellow,1469.948276400566,None,None,1469.948276400566,None,,,,,,,,,,,,,,,,,,,,,,,,,,,,,,,,,,,77Aloud,001,2022_Nov_14_1511,ProdSingRedoBetween,2021.2.3,59.99563256406808,
71,0,71,0,,,,,,,,,,,,,,,,,,,,,,,,,,1474.4694567006081,None,cover,57,72,aloud,blue,1472.4546827999875,None,None,1472.4546827999875,None,,,,,,,,,,,,,,,,,,,,,,,,,,,,,,,,,,,77Aloud,001,2022_Nov_14_1511,ProdSingRedoBetween,2021.2.3,59.99563256406808,
72,0,72,0,,,,,,,,,,,,,,,,,,,,,,,,,,1476.9719754001126,None,history,5,73,aloud,yellow,1474.9700163006783,None,None,1474.9700163006783,None,,,,,,,,,,,,,,,,,,,,,,,,,,,,,,,,,,,77Aloud,001,2022_Nov_14_1511,ProdSingRedoBetween,2021.2.3,59.99563256406808,
73,0,73,0,,,,,,,,,,,,,,,,,,,,,,,,,,1479.474486800842,None,portion,27,74,aloud,yellow,1477.4724781000987,None,None,1477.4724781000987,None,,,,,,,,,,,,,,,,,,,,,,,,,,,,,,,,,,,77Aloud,001,2022_Nov_14_1511,ProdSingRedoBetween,2021.2.3,59.99563256406808,
74,0,74,0,,,,,,,,,,,,,,,,,,,,,,,,,,1481.976954200305,None,vision,23,75,aloud,yellow,1479.974959300831,None,None,1479.974959300831,None,,,,,,,,,,,,,,,,,,,,,,,,,,,,,,,,,,,77Aloud,001,2022_Nov_14_1511,ProdSingRedoBetween,2021.2.3,59.99563256406808,
75,0,75,0,,,,,,,,,,,,,,,,,,,,,,,,,,1484.4961018003523,None,payment,37,76,aloud,blue,1482.4806666001678,None,None,1482.4806666001678,None,,,,,,,,,,,,,,,,,,,,,,,,,,,,,,,,,,,77Aloud,001,2022_Nov_14_1511,ProdSingRedoBetween,2021.2.3,59.99563256406808,
76,0,76,0,,,,,,,,,,,,,,,,,,,,,,,,,,1486.998629600741,None,series,70,77,aloud,red,1484.9964396003634,None,None,1484.9964396003634,None,,,,,,,,,,,,,,,,,,,,,,,,,,,,,,,,,,,77Aloud,001,2022_Nov_14_1511,ProdSingRedoBetween,2021.2.3,59.99563256406808,
77,0,77,0,,,,,,,,,,,,,,,,,,,,,,,,,,1489.5178257003427,None,mechanical,58,78,aloud,blue,1487.5085619008169,None,None,1487.5085619008169,None,,,,,,,,,,,,,,,,,,,,,,,,,,,,,,,,,,,77Aloud,001,2022_Nov_14_1511,ProdSingRedoBetween,2021.2.3,59.99563256406808,
78,0,78,0,,,,,,,,,,,,,,,,,,,,,,,,,,1492.0201620003209,None,watch,76,79,aloud,red,1490.0214108005166,None,None,1490.0214108005166,None,,,,,,,,,,,,,,,,,,,,,,,,,,,,,,,,,,,77Aloud,001,2022_Nov_14_1511,ProdSingRedoBetween,2021.2.3,59.99563256406808,
79,0,79,0,,,,,,,,,,,,,,,,,,,,,,,,,,1494.522811400704,None,guest,11,80,aloud,yellow,1492.5206188000739,None,None,1492.5206188000739,None,,,,,,,,,,,,,,,,,,,,,,,,,,,,,,,,,,,77Aloud,001,2022_Nov_14_1511,ProdSingRedoBetween,2021.2.3,59.99563256406808,
80,0,80,0,,,,,,,,,,,,,,,,,,,,,,,,,,1497.0419702008367,None,trend,24,81,aloud,yellow,1495.0352779999375,None,None,1495.0352779999375,None,,,,,,,,,,,,,,,,,,,,,,,,,,,,,,,,,,,77Aloud,001,2022_Nov_14_1511,ProdSingRedoBetween,2021.2.3,59.99563256406808,
81,0,81,0,,,,,,,,,,,,,,,,,,,,,,,,,,1499.5442165005952,None,sleep,19,82,aloud,yellow,1497.5424712002277,None,None,1497.5424712002277,None,,,,,,,,,,,,,,,,,,,,,,,,,,,,,,,,,,,77Aloud,001,2022_Nov_14_1511,ProdSingRedoBetween,2021.2.3,59.99563256406808,
82,0,82,0,,,,,,,,,,,,,,,,,,,,,,,,,,1502.0636434005573,None,rapid,78,83,aloud,red,1500.054888700135,None,None,1500.054888700135,None,,,,,,,,,,,,,,,,,,,,,,,,,,,,,,,,,,,77Aloud,001,2022_Nov_14_1511,ProdSingRedoBetween,2021.2.3,59.99563256406808,
83,0,83,0,,,,,,,,,,,,,,,,,,,,,,,,,,1504.5661053005606,None,light,50,84,aloud,blue,1502.5641397004947,None,None,1502.5641397004947,None,,,,,,,,,,,,,,,,,,,,,,,,,,,,,,,,,,,77Aloud,001,2022_Nov_14_1511,ProdSingRedoBetween,2021.2.3,59.99563256406808,
84,0,84,0,,,,,,,,,,,,,,,,,,,,,,,,,,1507.0687072006986,None,mankind,54,85,aloud,blue,1505.0674587003887,None,None,1505.0674587003887,None,,,,,,,,,,,,,,,,,,,,,,,,,,,,,,,,,,,77Aloud,001,2022_Nov_14_1511,ProdSingRedoBetween,2021.2.3,59.99563256406808,
85,0,85,0,,,,,,,,,,,,,,,,,,,,,,,,,,1509.587902000174,None,store,20,86,aloud,yellow,1507.5748200006783,None,None,1507.5748200006783,None,,,,,,,,,,,,,,,,,,,,,,,,,,,,,,,,,,,77Aloud,001,2022_Nov_14_1511,ProdSingRedoBetween,2021.2.3,59.99563256406808,
86,0,86,0,,,,,,,,,,,,,,,,,,,,,,,,,,1512.1070377007127,None,answer,42,87,aloud,blue,1510.0914631001651,None,None,1510.0914631001651,None,,,,,,,,,,,,,,,,,,,,,,,,,,,,,,,,,,,77Aloud,001,2022_Nov_14_1511,ProdSingRedoBetween,2021.2.3,59.99563256406808,
87,0,87,0,,,,,,,,,,,,,,,,,,,,,,,,,,1514.6260287007317,None,quarter,12,88,aloud,yellow,1512.612679200247,None,None,1512.612679200247,None,,,,,,,,,,,,,,,,,,,,,,,,,,,,,,,,,,,77Aloud,001,2022_Nov_14_1511,ProdSingRedoBetween,2021.2.3,59.99563256406808,
88,0,88,0,,,,,,,,,,,,,,,,,,,,,,,,,,1517.145314000547,None,century,9,89,aloud,yellow,1515.1305502001196,None,None,1515.1305502001196,None,,,,,,,,,,,,,,,,,,,,,,,,,,,,,,,,,,,77Aloud,001,2022_Nov_14_1511,ProdSingRedoBetween,2021.2.3,59.99563256406808,
89,0,89,0,,,,,,,,,,,,,,,,,,,,,,,,,,1519.64779680036,None,bureau,73,90,aloud,red,1517.6458187000826,None,None,1517.6458187000826,None,,,,,,,,,,,,,,,,,,,,,,,,,,,,,,,,,,,77Aloud,001,2022_Nov_14_1511,ProdSingRedoBetween,2021.2.3,59.99563256406808,
,,,,,,,,,,,,,,,,,,,,,,,,,,,,,,,,,,,,,,,,,1520.148545300588,None,k,54.53456510044634,1520.148545300588,None,,,,,,,,,,,,,,,,,,,,,,,,,,,,,77Aloud,001,2022_Nov_14_1511,ProdSingRedoBetween,2021.2.3,59.99563256406808,
,,,,0,0,0,0,,,,,,,,,,,,,,,,,,,,,,1583.828562900424,None,,,,,,,,,,,,,,,,,ground,72,1,aloud,old,red,1575.2033292008564,None,1575.2033292008564,None,6,4.631702899932861,1575.2033292008564,None,4.631702899932861,1579.8606245005503,None,1580.377086800523,None,1580.377086800523,None,r,3.433933800086379,1580.377086800523,None,3.433933800086379,,,77Aloud,001,2022_Nov_14_1511,ProdSingRedoBetween,2021.2.3,59.99563256406808,
,,,,1,0,1,0,,,,,,,,,,,,,,,,,,,,,,1595.110097400844,None,,,,,,,,,,,,,,,,,resistance,160,2,aloud,new,null,1584.338569600135,None,1584.338569600135,None,1,6.920394499786198,1584.338569600135,None,6.920394499786198,1591.2862392002717,None,1591.7927205003798,None,1591.7927205003798,None,n,3.2904415000230074,1591.7927205003798,None,3.2904415000230074,,,77Aloud,001,2022_Nov_14_1511,ProdSingRedoBetween,2021.2.3,59.99563256406808,
,,,,2,0,2,0,,,,,,,,,,,,,,,,,,,,,,1601.8964766003191,None,,,,,,,,,,,,,,,,,watch,76,3,aloud,old,red,1595.623746700585,None,1595.623746700585,None,5,4.547256899997592,1595.623746700585,None,4.547256899997592,1600.1955281002447,None,1600.6953998003155,None,1600.6953998003155,None,f,1.1798137994483113,1600.6953998003155,None,1.1798137994483113,,,77Aloud,001,2022_Nov_14_1511,ProdSingRedoBetween,2021.2.3,59.99563256406808,
,,,,3,0,3,0,,,,,,,,,,,,,,,,,,,,,,1605.8185574002564,None,,,,,,,,,,,,,,,,,addition,32,4,aloud,old,blue,1602.3982934001833,None,1602.3982934001833,None,1,1.8607316995039582,1602.3982934001833,None,1.8607316995039582,1604.287840200588,None,1604.8014919003472,None,1604.8014919003472,None,n,0.9854749999940395,1604.8014919003472,None,0.9854749999940395,,,77Aloud,001,2022_Nov_14_1511,ProdSingRedoBetween,2021.2.3,59.99563256406808,
,,,,4,0,4,0,,,,,,,,,,,,,,,,,,,,,,1608.9730144003406,None,,,,,,,,,,,,,,,,,light,50,5,aloud,old,blue,1606.3309905007482,None,1606.3309905007482,None,1,1.7439387999475002,1606.3309905007482,None,1.7439387999475002,1608.1041884999722,None,1608.6072263000533,None,1608.6072263000533,None,n,0.34761609975248575,1608.6072263000533,None,0.34761609975248575,,,77Aloud,001,2022_Nov_14_1511,ProdSingRedoBetween,2021.2.3,59.99563256406808,
,,,,5,0,5,0,,,,,,,,,,,,,,,,,,,,,,1612.1400370001793,None,,,,,,,,,,,,,,,,,evidence,104,6,aloud,new,null,1609.494620100595,None,1609.494620100595,None,1,1.8443246996030211,1609.494620100595,None,1.8443246996030211,1611.3564601000398,None,1611.8658950002864,None,1611.8658950002864,None,n,0.24909890070557594,1611.8658950002864,None,0.24909890070557594,,,77Aloud,001,2022_Nov_14_1511,ProdSingRedoBetween,2021.2.3,59.99563256406808,
,,,,6,0,6,0,,,,,,,,,,,,,,,,,,,,,,1619.3805739004165,None,,,,,,,,,,,,,,,,,right,74,7,aloud,old,red,1612.6420410005376,None,1612.6420410005376,None,6,3.4010452004149556,1612.6420410005376,None,3.4010452004149556,1616.0665000006557,None,1616.5779547002167,None,1616.5779547002167,None,r,2.7849799999967217,1616.5779547002167,None,2.7849799999967217,,,77Aloud,001,2022_Nov_14_1511,ProdSingRedoBetween,2021.2.3,59.99563256406808,
,,,,7,0,7,0,,,,,,,,,,,,,,,,,,,,,,1623.3369538001716,None,,,,,,,,,,,,,,,,,broke,144,8,aloud,new,null,1619.8858148008585,None,1619.8858148008585,None,6,2.2530720001086593,1619.8858148008585,None,2.2530720001086593,1622.169177800417,None,1622.6888518007472,None,1622.6888518007472,None,r,0.6181124998256564,1622.6888518007472,None,0.6181124998256564,,,77Aloud,001,2022_Nov_14_1511,ProdSingRedoBetween,2021.2.3,59.99563256406808,
,,,,8,0,8,0,,,,,,,,,,,,,,,,,,,,,,1631.4606079002842,None,,,,,,,,,,,,,,,,,emergency,98,9,aloud,new,null,1623.8539010006934,None,1623.8539010006934,None,3,5.308982600457966,1623.8539010006934,None,5.308982600457966,1629.1911675008014,None,1629.6907379003242,None,1629.6907379003242,None,f,1.7442067004740238,1629.6907379003242,None,1.7442067004740238,,,77Aloud,001,2022_Nov_14_1511,ProdSingRedoBetween,2021.2.3,59.99563256406808,
,,,,9,0,9,0,,,,,,,,,,,,,,,,,,,,,,1636.030506200157,None,,,,,,,,,,,,,,,,,congress,168,10,aloud,new,null,1631.971745500341,None,1631.971745500341,None,1,2.7911639995872974,1631.971745500341,None,2.7911639995872974,1634.7834398001432,None,1635.2997973002493,None,1635.2997973002493,None,n,0.7031040005385876,1635.2997973002493,None,0.7031040005385876,,,77Aloud,001,2022_Nov_14_1511,ProdSingRedoBetween,2021.2.3,59.99563256406808,
,,,,10,0,10,0,,,,,,,,,,,,,,,,,,,,,,1639.300458200276,None,,,,,,,,,,,,,,,,,pancakes,173,11,aloud,new,null,1636.54165950045,None,1636.54165950045,None,1,1.8054915992543101,1636.54165950045,None,1.8054915992543101,1638.3775480007753,None,1638.8888925006613,None,1638.8888925006613,None,n,0.3940037004649639,1638.8888925006613,None,0.3940037004649639,,,77Aloud,001,2022_Nov_14_1511,ProdSingRedoBetween,2021.2.3,59.99563256406808,
,,,,11,0,11,0,,,,,,,,,,,,,,,,,,,,,,1645.139570900239,None,,,,,,,,,,,,,,,,,citizen,119,12,aloud,new,null,1639.8223854005337,None,1639.8223854005337,None,5,3.748504299670458,1639.8223854005337,None,3.748504299670458,1643.5910802008584,None,1644.1053721001372,None,1644.1053721001372,None,f,1.0175382997840643,1644.1053721001372,None,1.0175382997840643,,,77Aloud,001,2022_Nov_14_1511,ProdSingRedoBetween,2021.2.3,59.99563256406808,
,,,,12,0,12,0,,,,,,,,,,,,,,,,,,,,,,1650.9954046001658,None,,,,,,,,,,,,,,,,,substance,55,13,aloud,old,blue,1645.646863700822,None,1645.646863700822,None,6,3.323998799547553,1645.646863700822,None,3.323998799547553,1648.9933844003826,None,1649.5000012004748,None,1649.5000012004748,None,r,1.4709048001095653,1649.5000012004748,None,1.4709048001095653,,,77Aloud,001,2022_Nov_14_1511,ProdSingRedoBetween,2021.2.3,59.99563256406808,
,,,,13,0,13,0,,,,,,,,,,,,,,,,,,,,,,1657.1849954007193,None,,,,,,,,,,,,,,,,,session,109,14,aloud,new,null,1651.5031083002687,None,1651.5031083002687,None,4,4.131890100426972,1651.5031083002687,None,4.131890100426972,1655.652223000303,None,1656.167454100214,None,1656.167454100214,None,f,0.9874181002378464,1656.167454100214,None,0.9874181002378464,,,77Aloud,001,2022_Nov_14_1511,ProdSingRedoBetween,2021.2.3,59.99563256406808,
,,,,14,0,14,0,,,,,,,,,,,,,,,,,,,,,,1662.4412853000686,None,,,,,,,,,,,,,,,,,figure,112,15,aloud,new,null,1657.686728800647,None,1657.686728800647,None,6,3.580162400379777,1657.686728800647,None,3.580162400379777,1661.2932222001255,None,1661.8091967999935,None,1661.8091967999935,None,r,0.6097438000142574,1661.8091967999935,None,0.6097438000142574,,,77Aloud,001,2022_Nov_14_1511,ProdSingRedoBetween,2021.2.3,59.99563256406808,
,,,,15,0,15,0,,,,,,,,,,,,,,,,,,,,,,1665.6600710004568,None,,,,,,,,,,,,,,,,,story,39,16,aloud,old,blue,1662.9516819007695,None,1662.9516819007695,None,1,1.8031970001757145,1662.9516819007695,None,1.8031970001757145,1664.776999800466,None,1665.2836942002177,None,1665.2836942002177,None,n,0.35913699958473444,1665.2836942002177,None,0.35913699958473444,,,77Aloud,001,2022_Nov_14_1511,ProdSingRedoBetween,2021.2.3,59.99563256406808,
,,,,16,0,16,0,,,,,,,,,,,,,,,,,,,,,,1669.330112900585,None,,,,,,,,,,,,,,,,,object,62,17,aloud,old,red,1666.169213199988,None,1666.169213199988,None,6,2.0817364994436502,1666.169213199988,None,2.0817364994436502,1668.2856731005013,None,1668.7967044999823,None,1668.7967044999823,None,r,0.5180467003956437,1668.7967044999823,None,0.5180467003956437,,,77Aloud,001,2022_Nov_14_1511,ProdSingRedoBetween,2021.2.3,59.99563256406808,
,,,,17,0,17,0,,,,,,,,,,,,,,,,,,,,,,1673.3678037002683,None,,,,,,,,,,,,,,,,,tough,79,18,aloud,old,red,1669.842536000535,None,1669.842536000535,None,6,1.8243257002905011,1669.842536000535,None,1.8243257002905011,1671.684395200573,None,1672.2027170006186,None,1672.2027170006186,None,r,1.1361726000905037,1672.2027170006186,None,1.1361726000905037,,,77Aloud,001,2022_Nov_14_1511,ProdSingRedoBetween,2021.2.3,59.99563256406808,
,,,,18,0,18,0,,,,,,,,,,,,,,,,,,,,,,1681.7595116002485,None,,,,,,,,,,,,,,,,,discovery,115,19,aloud,new,null,1673.880371200852,None,1673.880371200852,None,2,4.418385899625719,1673.880371200852,None,4.418385899625719,1678.3225297005847,None,1678.8235875004902,None,1678.8235875004902,None,f,2.915267299860716,1678.8235875004902,None,2.915267299860716,,,77Aloud,001,2022_Nov_14_1511,ProdSingRedoBetween,2021.2.3,59.99563256406808,
,,,,19,0,19,0,,,,,,,,,,,,,,,,,,,,,,1687.0648213000968,None,,,,,,,,,,,,,,,,,place,105,20,aloud,new,null,1682.274292900227,None,1682.274292900227,None,1,2.8485562996938825,1682.274292900227,None,2.8485562996938825,1685.1472487002611,None,1685.6498710000888,None,1685.6498710000888,None,n,1.3851091004908085,1685.6498710000888,None,1.3851091004908085,,,77Aloud,001,2022_Nov_14_1511,ProdSingRedoBetween,2021.2.3,59.99563256406808,
,,,,20,0,20,0,,,,,,,,,,,,,,,,,,,,,,1691.2877592006698,None,,,,,,,,,,,,,,,,,business,35,21,aloud,old,blue,1687.5653429003432,None,1687.5653429003432,None,6,2.013513599522412,1687.5653429003432,None,2.013513599522412,1689.6006766008213,None,1690.1034480007365,None,1690.1034480007365,None,r,1.1554666003212333,1690.1034480007365,None,1.1554666003212333,,,77Aloud,001,2022_Nov_14_1511,ProdSingRedoBetween,2021.2.3,59.99563256406808,
,,,,21,0,21,0,,,,,,,,,,,,,,,,,,,,,,1694.2049607001245,None,,,,,,,,,,,,,,,,,quantity,34,22,aloud,old,blue,1691.8099110005423,None,1691.8099110005423,None,6,1.4331326000392437,1691.8099110005423,None,1.4331326000392437,1693.2805201001465,None,1693.7881197007373,None,1693.7881197007373,None,r,0.3986891992390156,1693.7881197007373,None,0.3986891992390156,,,77Aloud,001,2022_Nov_14_1511,ProdSingRedoBetween,2021.2.3,59.99563256406808,
,,,,22,0,22,0,,,,,,,,,,,,,,,,,,,,,,1701.4625577004626,None,,,,,,,,,,,,,,,,,majority,136,23,aloud,new,null,1694.7106918999925,None,1694.7106918999925,None,1,5.324136500246823,1694.7106918999925,None,5.324136500246823,1700.065468100831,None,1700.5781372999772,None,1700.5781372999772,None,n,0.8648429997265339,1700.5781372999772,None,0.8648429997265339,,,77Aloud,001,2022_Nov_14_1511,ProdSingRedoBetween,2021.2.3,59.99563256406808,
,,,,23,0,23,0,,,,,,,,,,,,,,,,,,,,,,1703.9369233008474,None,,,,,,,,,,,,,,,,,hearing,117,24,aloud,new,null,1701.9692518003285,None,1701.9692518003285,None,1,1.3696400998160243,1701.9692518003285,None,1.3696400998160243,1703.3689047005028,None,1703.8864282006398,None,1703.8864282006398,None,n,0.028732099570333958,1703.8864282006398,None,0.028732099570333958,,,77Aloud,001,2022_Nov_14_1511,ProdSingRedoBetween,2021.2.3,59.99563256406808,
,,,,24,0,24,0,,,,,,,,,,,,,,,,,,,,,,1707.1359884003177,None,,,,,,,,,,,,,,,,,committee,29,25,aloud,old,blue,1704.4512994000688,None,1704.4512994000688,None,6,1.7436012998223305,1704.4512994000688,None,1.7436012998223305,1706.2242244007066,None,1706.7345766006038,None,1706.7345766006038,None,r,0.3723218999803066,1706.7345766006038,None,0.3723218999803066,,,77Aloud,001,2022_Nov_14_1511,ProdSingRedoBetween,2021.2.3,59.99563256406808,
,,,,25,0,25,0,,,,,,,,,,,,,,,,,,,,,,1709.9374009007588,None,,,,,,,,,,,,,,,,,solution,145,26,aloud,new,null,1707.6410050000995,None,1707.6410050000995,None,6,1.3857611995190382,1707.6410050000995,None,1.3857611995190382,1709.0543224001303,None,1709.5599142005667,None,1709.5599142005667,None,r,0.36292709968984127,1709.5599142005667,None,0.36292709968984127,,,77Aloud,001,2022_Nov_14_1511,ProdSingRedoBetween,2021.2.3,59.99563256406808,
,,,,26,0,26,0,,,,,,,,,,,,,,,,,,,,,,1716.4440304003656,None,,,,,,,,,,,,,,,,,guest,11,27,aloud,old,yellow,1710.4453998003155,None,1710.4453998003155,None,6,4.421393999829888,1710.4453998003155,None,4.421393999829888,1714.8930118000135,None,1715.3931249007583,None,1715.3931249007583,None,r,1.025722399353981,1715.3931249007583,None,1.025722399353981,,,77Aloud,001,2022_Nov_14_1511,ProdSingRedoBetween,2021.2.3,59.99563256406808,
,,,,27,0,27,0,,,,,,,,,,,,,,,,,,,,,,1719.9642154006287,None,,,,,,,,,,,,,,,,,piece,30,28,aloud,old,blue,1716.9555224999785,None,1716.9555224999785,None,1,2.095373500138521,1716.9555224999785,None,2.095373500138521,1719.082851100713,None,1719.597309300676,None,1719.597309300676,None,n,0.34950549993664026,1719.597309300676,None,0.34950549993664026,,,77Aloud,001,2022_Nov_14_1511,ProdSingRedoBetween,2021.2.3,59.99563256406808,
,,,,28,0,28,0,,,,,,,,,,,,,,,,,,,,,,1723.934725300409,None,,,,,,,,,,,,,,,,,goose,108,29,aloud,new,null,1720.4646896002814,None,1720.4646896002814,None,1,2.538230000063777,1720.4646896002814,None,2.538230000063777,1723.0349658001214,None,1723.5419089002535,None,1723.5419089002535,None,n,0.3728916998952627,1723.5419089002535,None,0.3728916998952627,,,77Aloud,001,2022_Nov_14_1511,ProdSingRedoBetween,2021.2.3,59.99563256406808,
,,,,29,0,29,0,,,,,,,,,,,,,,,,,,,,,,1730.6750149000436,None,,,,,,,,,,,,,,,,,curve,4,30,aloud,old,yellow,1724.4449106007814,None,1724.4449106007814,None,2,4.19785699993372,1724.4449106007814,None,4.19785699993372,1728.6757443007082,None,1729.1928975004703,None,1729.1928975004703,None,f,1.4658459005877376,1729.1928975004703,None,1.4658459005877376,,,77Aloud,001,2022_Nov_14_1511,ProdSingRedoBetween,2021.2.3,59.99563256406808,
,,,,30,0,30,0,,,,,,,,,,,,,,,,,,,,,,1735.1460350006819,None,,,,,,,,,,,,,,,,,detective,171,31,aloud,new,null,1731.1861566007137,None,1731.1861566007137,None,4,2.9447028003633022,1731.1861566007137,None,2.9447028003633022,1734.1634511006996,None,1734.6827549003065,None,1734.6827549003065,None,f,0.4400129998102784,1734.6827549003065,None,0.4400129998102784,,,77Aloud,001,2022_Nov_14_1511,ProdSingRedoBetween,2021.2.3,59.99563256406808,
,,,,31,0,31,0,,,,,,,,,,,,,,,,,,,,,,1741.7527062008157,None,,,,,,,,,,,,,,,,,suspect,154,32,aloud,new,null,1735.6579624004662,None,1735.6579624004662,None,6,3.6087664999067783,1735.6579624004662,None,3.6087664999067783,1739.2845633001998,None,1739.7842369005084,None,1739.7842369005084,None,r,1.946519499644637,1739.7842369005084,None,1.946519499644637,,,77Aloud,001,2022_Nov_14_1511,ProdSingRedoBetween,2021.2.3,59.99563256406808,
,,,,32,0,32,0,,,,,,,,,,,,,,,,,,,,,,1745.7108154008165,None,,,,,,,,,,,,,,,,,swift,114,33,aloud,new,null,1742.2531101005152,None,1742.2531101005152,None,1,2.445650899782777,1742.2531101005152,None,2.445650899782777,1744.7234342005104,None,1745.2226700000465,None,1745.2226700000465,None,n,0.4682335006073117,1745.2226700000465,None,0.4682335006073117,,,77Aloud,001,2022_Nov_14_1511,ProdSingRedoBetween,2021.2.3,59.99563256406808,
,,,,33,0,33,0,,,,,,,,,,,,,,,,,,,,,,1749.2100592004135,None,,,,,,,,,,,,,,,,,surface,51,34,aloud,old,blue,1746.224976300262,None,1746.224976300262,None,6,1.61775270011276,1746.224976300262,None,1.61775270011276,1747.8593677002937,None,1748.363473800011,None,1748.363473800011,None,r,0.8154271002858877,1748.363473800011,None,0.8154271002858877,,,77Aloud,001,2022_Nov_14_1511,ProdSingRedoBetween,2021.2.3,59.99563256406808,
,,,,34,0,34,0,,,,,,,,,,,,,,,,,,,,,,1753.430808200501,None,,,,,,,,,,,,,,,,,individual,124,35,aloud,new,null,1749.7195822000504,None,1749.7195822000504,None,1,2.6591815995052457,1749.7195822000504,None,2.6591815995052457,1752.4059282001108,None,1752.9138999003917,None,1752.9138999003917,None,n,0.49683270044624805,1752.9138999003917,None,0.49683270044624805,,,77Aloud,001,2022_Nov_14_1511,ProdSingRedoBetween,2021.2.3,59.99563256406808,
,,,,35,0,35,0,,,,,,,,,,,,,,,,,,,,,,1758.7882868004963,None,,,,,,,,,,,,,,,,,store,20,36,aloud,old,yellow,1753.9326843004674,None,1753.9326843004674,None,4,3.222081699408591,1753.9326843004674,None,3.222081699408591,1757.1888203006238,None,1757.7073169006035,None,1757.7073169006035,None,f,1.0635640006512403,1757.7073169006035,None,1.0635640006512403,,,77Aloud,001,2022_Nov_14_1511,ProdSingRedoBetween,2021.2.3,59.99563256406808,
,,,,36,0,36,0,,,,,,,,,,,,,,,,,,,,,,1762.1228069001809,None,,,,,,,,,,,,,,,,,route,28,37,aloud,old,yellow,1759.3043039003387,None,1759.3043039003387,None,6,1.402412999421358,1759.3043039003387,None,1.402412999421358,1760.7215704005212,None,1761.2247809004039,None,1761.2247809004039,None,r,0.8741402998566628,1761.2247809004039,None,0.8741402998566628,,,77Aloud,001,2022_Nov_14_1511,ProdSingRedoBetween,2021.2.3,59.99563256406808,
,,,,37,0,37,0,,,,,,,,,,,,,,,,,,,,,,1766.377792100422,None,,,,,,,,,,,,,,,,,division,175,38,aloud,new,null,1762.6339029008523,None,1762.6339029008523,None,6,2.928800799883902,1762.6339029008523,None,2.928800799883902,1765.594589699991,None,1766.1039078002796,None,1766.1039078002796,None,r,0.24283599946647882,1766.1039078002796,None,0.24283599946647882,,,77Aloud,001,2022_Nov_14_1511,ProdSingRedoBetween,2021.2.3,59.99563256406808,
,,,,38,0,38,0,,,,,,,,,,,,,,,,,,,,,,1771.2320099007338,None,,,,,,,,,,,,,,,,,answer,42,39,aloud,old,blue,1766.8815828999504,None,1766.8815828999504,None,5,3.361123699694872,1766.8815828999504,None,3.361123699694872,1770.265723200515,None,1770.7650584001094,None,1770.7650584001094,None,f,0.4377442002296448,1770.7650584001094,None,0.4377442002296448,,,77Aloud,001,2022_Nov_14_1511,ProdSingRedoBetween,2021.2.3,59.99563256406808,
,,,,39,0,39,0,,,,,,,,,,,,,,,,,,,,,,1774.7688923003152,None,,,,,,,,,,,,,,,,,engineer,139,40,aloud,new,null,1771.7347373999655,None,1771.7347373999655,None,6,1.787966700270772,1771.7347373999655,None,1.787966700270772,1773.5516303004697,None,1774.0542235001922,None,1774.0542235001922,None,r,0.6846080999821424,1774.0542235001922,None,0.6846080999821424,,,77Aloud,001,2022_Nov_14_1511,ProdSingRedoBetween,2021.2.3,59.99563256406808,
,,,,40,0,40,0,,,,,,,,,,,,,,,,,,,,,,1777.7051323000342,None,,,,,,,,,,,,,,,,,tennis,153,41,aloud,new,null,1775.2756488006562,None,1775.2756488006562,None,1,1.3190729999914765,1775.2756488006562,None,1.3190729999914765,1776.6239408999681,None,1777.1380561003461,None,1777.1380561003461,None,n,0.5366373006254435,1777.1380561003461,None,0.5366373006254435,,,77Aloud,001,2022_Nov_14_1511,ProdSingRedoBetween,2021.2.3,59.99563256406808,
,,,,41,0,41,0,,,,,,,,,,,,,,,,,,,,,,1783.2774050999433,None,,,,,,,,,,,,,,,,,reach,131,42,aloud,new,null,1778.21168460045,None,1778.21168460045,None,5,2.6868919003754854,1778.21168460045,None,2.6868919003754854,1780.9248742004856,None,1781.4256237000227,None,1781.4256237000227,None,f,1.833033099770546,1781.4256237000227,None,1.833033099770546,,,77Aloud,001,2022_Nov_14_1511,ProdSingRedoBetween,2021.2.3,59.99563256406808,
,,,,42,0,42,0,,,,,,,,,,,,,,,,,,,,,,1786.7808584002778,None,,,,,,,,,,,,,,,,,angle,158,43,aloud,new,null,1783.7854658002034,None,1783.7854658002034,None,1,2.129224899224937,1783.7854658002034,None,2.129224899224937,1785.9348015002906,None,1786.4517228007317,None,1786.4517228007317,None,n,0.3028862001374364,1786.4517228007317,None,0.3028862001374364,,,77Aloud,001,2022_Nov_14_1511,ProdSingRedoBetween,2021.2.3,59.99563256406808,
,,,,43,0,43,0,,,,,,,,,,,,,,,,,,,,,,1789.7016657004133,None,,,,,,,,,,,,,,,,,bureau,73,44,aloud,old,red,1787.2812443003058,None,1787.2812443003058,None,6,1.4654306005686522,1787.2812443003058,None,1.4654306005686522,1788.766163000837,None,1789.2700929008424,None,1789.2700929008424,None,r,0.4124842006713152,1789.2700929008424,None,0.4124842006713152,,,77Aloud,001,2022_Nov_14_1511,ProdSingRedoBetween,2021.2.3,59.99563256406808,
,,,,44,0,44,0,,,,,,,,,,,,,,,,,,,,,,1793.754494400695,None,,,,,,,,,,,,,,,,,rapid,78,45,aloud,old,red,1790.2177928006276,None,1790.2177928006276,None,6,1.2328824000433087,1790.2177928006276,None,1.2328824000433087,1791.4739414006472,None,1791.9861481003463,None,1791.9861481003463,None,r,1.7526550004258752,1791.9861481003463,None,1.7526550004258752,,,77Aloud,001,2022_Nov_14_1511,ProdSingRedoBetween,2021.2.3,59.99563256406808,
,,,,45,0,45,0,,,,,,,,,,,,,,,,,,,,,,1798.725916900672,None,,,,,,,,,,,,,,,,,track,130,46,aloud,new,null,1794.266280100681,None,1794.266280100681,None,4,3.5763910999521613,1794.266280100681,None,3.5763910999521613,1797.858840400353,None,1798.3589599002153,None,1798.3589599002153,None,f,0.3476010002195835,1798.3589599002153,None,0.3476010002195835,,,77Aloud,001,2022_Nov_14_1511,ProdSingRedoBetween,2021.2.3,59.99563256406808,
,,,,46,0,46,0,,,,,,,,,,,,,,,,,,,,,,1801.9626625999808,None,,,,,,,,,,,,,,,,,month,162,47,aloud,new,null,1799.22952860035,None,1799.22952860035,None,1,2.0531173003837466,1799.22952860035,None,2.0531173003837466,1801.3134858002886,None,1801.8139619007707,None,1801.8139619007707,None,n,0.1246786005795002,1801.8139619007707,None,0.1246786005795002,,,77Aloud,001,2022_Nov_14_1511,ProdSingRedoBetween,2021.2.3,59.99563256406808,
,,,,47,0,47,0,,,,,,,,,,,,,,,,,,,,,,1804.9656225005165,None,,,,,,,,,,,,,,,,,error,8,48,aloud,old,yellow,1802.4633146002889,None,1802.4633146002889,None,6,1.3313670000061393,1802.4633146002889,None,1.3313670000061393,1803.8189499005675,None,1804.3341864999384,None,1804.3341864999384,None,r,0.6044032005593181,1804.3341864999384,None,0.6044032005593181,,,77Aloud,001,2022_Nov_14_1511,ProdSingRedoBetween,2021.2.3,59.99563256406808,
,,,,48,0,48,0,,,,,,,,,,,,,,,,,,,,,,1807.8540525007993,None,,,,,,,,,,,,,,,,,enemy,46,49,aloud,old,blue,1805.4660367006436,None,1805.4660367006436,None,6,1.5448006000369787,1805.4660367006436,None,1.5448006000369787,1807.039441600442,None,1807.5549116004258,None,1807.5549116004258,None,r,0.2718636002391577,1807.5549116004258,None,0.2718636002391577,,,77Aloud,001,2022_Nov_14_1511,ProdSingRedoBetween,2021.2.3,59.99563256406808,
,,,,49,0,49,0,,,,,,,,,,,,,,,,,,,,,,1810.5209853006527,None,,,,,,,,,,,,,,,,,captain,47,50,aloud,old,blue,1808.375863400288,None,1808.375863400288,None,6,1.3628214998170733,1808.375863400288,None,1.3628214998170733,1809.7589039001614,None,1810.2711984002963,None,1810.2711984002963,None,r,0.23543970007449389,1810.2711984002963,None,0.23543970007449389,,,77Aloud,001,2022_Nov_14_1511,ProdSingRedoBetween,2021.2.3,59.99563256406808,
,,,,50,0,50,0,,,,,,,,,,,,,,,,,,,,,,1813.2404538001865,None,,,,,,,,,,,,,,,,,front,125,51,aloud,new,null,1811.0312574999407,None,1811.0312574999407,None,6,1.5313347997143865,1811.0312574999407,None,1.5313347997143865,1812.590950600803,None,1813.0951057001948,None,1813.0951057001948,None,r,0.11558560002595186,1813.0951057001948,None,0.11558560002595186,,,77Aloud,001,2022_Nov_14_1511,ProdSingRedoBetween,2021.2.3,59.99563256406808,
,,,,51,0,51,0,,,,,,,,,,,,,,,,,,,,,,1816.3958471007645,None,,,,,,,,,,,,,,,,,agreement,178,52,aloud,new,null,1813.7509438004345,None,1813.7509438004345,None,1,1.4276721002534032,1813.7509438004345,None,1.4276721002534032,1815.2102236002684,None,1815.7100135004148,None,1815.7100135004148,None,n,0.668656600639224,1815.7100135004148,None,0.668656600639224,,,77Aloud,001,2022_Nov_14_1511,ProdSingRedoBetween,2021.2.3,59.99563256406808,
,,,,52,0,52,0,,,,,,,,,,,,,,,,,,,,,,1819.3978236000985,None,,,,,,,,,,,,,,,,,dance,148,53,aloud,new,null,1816.9155882000923,None,1816.9155882000923,None,1,1.494922200217843,1816.9155882000923,None,1.494922200217843,1818.429077300243,None,1818.9337758999318,None,1818.9337758999318,None,n,0.4448031997308135,1818.9337758999318,None,0.4448031997308135,,,77Aloud,001,2022_Nov_14_1511,ProdSingRedoBetween,2021.2.3,59.99563256406808,
,,,,53,0,53,0,,,,,,,,,,,,,,,,,,,,,,1822.7834983002394,None,,,,,,,,,,,,,,,,,quarter,12,54,aloud,old,yellow,1819.904745100066,None,1819.904745100066,None,6,1.7778441002592444,1819.904745100066,None,1.7778441002592444,1821.6993040004745,None,1822.1996766002849,None,1822.1996766002849,None,r,0.554976399987936,1822.1996766002849,None,0.554976399987936,,,77Aloud,001,2022_Nov_14_1511,ProdSingRedoBetween,2021.2.3,59.99563256406808,
,,,,54,0,54,0,,,,,,,,,,,,,,,,,,,,,,1825.4861167008057,None,,,,,,,,,,,,,,,,,under,118,55,aloud,new,null,1823.293506800197,None,1823.293506800197,None,1,1.3891721004620194,1823.293506800197,None,1.3891721004620194,1824.7067594006658,None,1825.219361900352,None,1825.219361900352,None,n,0.2472397005185485,1825.219361900352,None,0.2472397005185485,,,77Aloud,001,2022_Nov_14_1511,ProdSingRedoBetween,2021.2.3,59.99563256406808,
,,,,55,0,55,0,,,,,,,,,,,,,,,,,,,,,,1828.2218850003555,None,,,,,,,,,,,,,,,,,comfort,113,56,aloud,new,null,1825.9980428004637,None,1825.9980428004637,None,6,1.164554899558425,1825.9980428004637,None,1.164554899558425,1827.190864100121,None,1827.7051085000858,None,1827.7051085000858,None,r,0.49741540011018515,1827.7051085000858,None,0.49741540011018515,,,77Aloud,001,2022_Nov_14_1511,ProdSingRedoBetween,2021.2.3,59.99563256406808,
,,,,56,0,56,0,,,,,,,,,,,,,,,,,,,,,,1831.66035270039,None,,,,,,,,,,,,,,,,,comedy,110,57,aloud,new,null,1828.7225938001648,None,1828.7225938001648,None,2,1.6801411993801594,1828.7225938001648,None,1.6801411993801594,1830.4256253000349,None,1830.924889500253,None,1830.924889500253,None,n,0.7097849994897842,1830.924889500253,None,0.7097849994897842,,,77Aloud,001,2022_Nov_14_1511,ProdSingRedoBetween,2021.2.3,59.99563256406808,
,,,,57,0,57,0,,,,,,,,,,,,,,,,,,,,,,1835.9965833006427,None,,,,,,,,,,,,,,,,,generation,143,58,aloud,new,null,1832.1622840007767,None,1832.1622840007767,None,5,2.43226580042392,1832.1622840007767,None,2.43226580042392,1834.6119043007493,None,1835.1165593005717,None,1835.1165593005717,None,f,0.862028100527823,1835.1165593005717,None,0.862028100527823,,,77Aloud,001,2022_Nov_14_1511,ProdSingRedoBetween,2021.2.3,59.99563256406808,
,,,,58,0,58,0,,,,,,,,,,,,,,,,,,,,,,1839.049645400606,None,,,,,,,,,,,,,,,,,power,142,59,aloud,new,null,1836.5064659006894,None,1836.5064659006894,None,1,1.584319300018251,1836.5064659006894,None,1.584319300018251,1838.1229187007993,None,1838.6326899006963,None,1838.6326899006963,None,n,0.39388479944318533,1838.6326899006963,None,0.39388479944318533,,,77Aloud,001,2022_Nov_14_1511,ProdSingRedoBetween,2021.2.3,59.99563256406808,
,,,,59,0,59,0,,,,,,,,,,,,,,,,,,,,,,1846.0564358001575,None,,,,,,,,,,,,,,,,,state,116,60,aloud,new,null,1839.5549303004518,None,1839.5549303004518,None,6,5.471747700124979,1839.5549303004518,None,5.471747700124979,1845.056493400596,None,1845.5562359001487,None,1845.5562359001487,None,r,0.4784289998933673,1845.5562359001487,None,0.4784289998933673,,,77Aloud,001,2022_Nov_14_1511,ProdSingRedoBetween,2021.2.3,59.99563256406808,
,,,,60,0,60,0,,,,,,,,,,,,,,,,,,,,,,1850.4777693999931,None,,,,,,,,,,,,,,,,,sound,49,61,aloud,old,blue,1846.5674980999902,None,1846.5674980999902,None,5,2.8591395998373628,1846.5674980999902,None,2.8591395998373628,1849.4468304002658,None,1849.9603953007609,None,1849.9603953007609,None,f,0.49822529964149,1849.9603953007609,None,0.49822529964149,,,77Aloud,001,2022_Nov_14_1511,ProdSingRedoBetween,2021.2.3,59.99563256406808,
,,,,61,0,61,0,,,,,,,,,,,,,,,,,,,,,,1880.592395200394,None,,,,,,,,,,,,,,,,,danger,126,62,aloud,new,null,1850.979528900236,None,1850.979528900236,None,6,1.5670908000320196,1850.979528900236,None,1.5670908000320196,1852.5653558000922,None,1853.0728777004406,None,1853.0728777004406,None,f,27.497645899653435,1853.0728777004406,None,27.497645899653435,,,77Aloud,001,2022_Nov_14_1511,ProdSingRedoBetween,2021.2.3,59.99563256406808,
,,,,62,0,62,0,,,,,,,,,,,,,,,,,,,,,,1885.5000978000462,None,,,,,,,,,,,,,,,,,people,155,63,aloud,new,null,1881.1005792003125,None,1881.1005792003125,None,2,2.997922900132835,1881.1005792003125,None,2.997922900132835,1884.1334936004132,None,1884.6464870003983,None,1884.6464870003983,None,n,0.8360799001529813,1884.6464870003983,None,0.8360799001529813,,,77Aloud,001,2022_Nov_14_1511,ProdSingRedoBetween,2021.2.3,59.99563256406808,
,,,,63,0,63,0,,,,,,,,,,,,,,,,,,,,,,1888.2830795003101,None,,,,,,,,,,,,,,,,,health,6,64,aloud,old,yellow,1886.0165239004418,None,1886.0165239004418,None,1,1.3139136992394924,1886.0165239004418,None,1.3139136992394924,1887.3488370003179,None,1887.854270200245,None,1887.854270200245,None,n,0.41209840029478073,1887.854270200245,None,0.41209840029478073,,,77Aloud,001,2022_Nov_14_1511,ProdSingRedoBetween,2021.2.3,59.99563256406808,
,,,,64,0,64,0,,,,,,,,,,,,,,,,,,,,,,1891.4699543006718,None,,,,,,,,,,,,,,,,,strain,128,65,aloud,new,null,1888.7848412003368,None,1888.7848412003368,None,1,1.449634000658989,1888.7848412003368,None,1.449634000658989,1890.2537496006116,None,1890.769300000742,None,1890.769300000742,None,n,0.6731433002278209,1890.769300000742,None,0.6731433002278209,,,77Aloud,001,2022_Nov_14_1511,ProdSingRedoBetween,2021.2.3,59.99563256406808,
,,,,65,0,65,0,,,,,,,,,,,,,,,,,,,,,,1894.8899733005092,None,,,,,,,,,,,,,,,,,gesture,71,66,aloud,old,red,1891.9785124007612,None,1891.9785124007612,None,5,1.9440353997051716,1891.9785124007612,None,1.9440353997051716,1893.9406885001808,None,1894.4609138006344,None,1894.4609138006344,None,f,0.413515099324286,1894.4609138006344,None,0.413515099324286,,,77Aloud,001,2022_Nov_14_1511,ProdSingRedoBetween,2021.2.3,59.99563256406808,
,,,,66,0,66,0,,,,,,,,,,,,,,,,,,,,,,1897.9095622003078,None,,,,,,,,,,,,,,,,,vision,23,67,aloud,old,yellow,1895.3966413000599,None,1895.3966413000599,None,6,1.5898521998897195,1895.3966413000599,None,1.5898521998897195,1897.0103827007115,None,1897.5265994006768,None,1897.5265994006768,None,r,0.35586229991167784,1897.5265994006768,None,0.35586229991167784,,,77Aloud,001,2022_Nov_14_1511,ProdSingRedoBetween,2021.2.3,59.99563256406808,
,,,,67,0,67,0,,,,,,,,,,,,,,,,,,,,,,1902.7977848006412,None,,,,,,,,,,,,,,,,,grade,170,68,aloud,new,null,1898.4195523001254,None,1898.4195523001254,None,1,3.1349059995263815,1898.4195523001254,None,3.1349059995263815,1901.5812155008316,None,1902.0855352003127,None,1902.0855352003127,None,n,0.6849686000496149,1902.0855352003127,None,0.6849686000496149,,,77Aloud,001,2022_Nov_14_1511,ProdSingRedoBetween,2021.2.3,59.99563256406808,
,,,,68,0,68,0,,,,,,,,,,,,,,,,,,,,,,1907.102208500728,None,,,,,,,,,,,,,,,,,primary,44,69,aloud,old,blue,1903.3017864003778,None,1903.3017864003778,None,6,2.836610099300742,1903.3017864003778,None,2.836610099300742,1906.1744348006323,None,1906.689449400641,None,1906.689449400641,None,r,0.3930140007287264,1906.689449400641,None,0.3930140007287264,,,77Aloud,001,2022_Nov_14_1511,ProdSingRedoBetween,2021.2.3,59.99563256406808,
,,,,69,0,69,0,,,,,,,,,,,,,,,,,,,,,,1911.5899374000728,None,,,,,,,,,,,,,,,,,death,164,70,aloud,new,null,1907.6069049006328,None,1907.6069049006328,None,1,2.963562499731779,1907.6069049006328,None,2.963562499731779,1910.5900865001604,None,1911.0895774001256,None,1911.0895774001256,None,n,0.48089779913425446,1911.0895774001256,None,0.48089779913425446,,,77Aloud,001,2022_Nov_14_1511,ProdSingRedoBetween,2021.2.3,59.99563256406808,
,,,,70,0,70,0,,,,,,,,,,,,,,,,,,,,,,1914.6596536999568,None,,,,,,,,,,,,,,,,,production,45,71,aloud,old,blue,1912.0990810999647,None,1912.0990810999647,None,6,1.6633643005043268,1912.0990810999647,None,1.6633643005043268,1913.7930302005261,None,1914.2927635004744,None,1914.2927635004744,None,r,0.34174570068717003,1914.2927635004744,None,0.34174570068717003,,,77Aloud,001,2022_Nov_14_1511,ProdSingRedoBetween,2021.2.3,59.99563256406808,
,,,,71,0,71,0,,,,,,,,,,,,,,,,,,,,,,1918.2128939004615,None,,,,,,,,,,,,,,,,,prime,166,72,aloud,new,null,1915.1700655007735,None,1915.1700655007735,None,2,1.432465499266982,1915.1700655007735,None,1.432465499266982,1916.6319671003148,None,1917.1455228002742,None,1917.1455228002742,None,f,1.048853600397706,1917.1455228002742,None,1.048853600397706,,,77Aloud,001,2022_Nov_14_1511,ProdSingRedoBetween,2021.2.3,59.99563256406808,
,,,,72,0,72,0,,,,,,,,,,,,,,,,,,,,,,1923.45175560005,None,,,,,,,,,,,,,,,,,bucket,2,73,aloud,old,yellow,1918.7136508999392,None,1918.7136508999392,None,1,4.064794299192727,1918.7136508999392,None,4.064794299192727,1922.8024050006643,None,1923.3015555003658,None,1923.3015555003658,None,n,0.12492720037698746,1923.3015555003658,None,0.12492720037698746,,,77Aloud,001,2022_Nov_14_1511,ProdSingRedoBetween,2021.2.3,59.99563256406808,
,,,,73,0,73,0,,,,,,,,,,,,,,,,,,,,,,1926.6215138006955,None,,,,,,,,,,,,,,,,,trail,140,74,aloud,new,null,1923.9541882006451,None,1923.9541882006451,None,1,1.4642738001421094,1923.9541882006451,None,1.4642738001421094,1925.4371049003676,None,1925.9417480006814,None,1925.9417480006814,None,n,0.660746100358665,1925.9417480006814,None,0.660746100358665,,,77Aloud,001,2022_Nov_14_1511,ProdSingRedoBetween,2021.2.3,59.99563256406808,
,,,,74,0,74,0,,,,,,,,,,,,,,,,,,,,,,1929.4410077007487,None,,,,,,,,,,,,,,,,,smooth,107,75,aloud,new,null,1927.1310830004513,None,1927.1310830004513,None,1,1.0393145000562072,1927.1310830004513,None,1.0393145000562072,1928.1939835008234,None,1928.7134988000616,None,1928.7134988000616,None,n,0.7049258006736636,1928.7134988000616,None,0.7049258006736636,,,77Aloud,001,2022_Nov_14_1511,ProdSingRedoBetween,2021.2.3,59.99563256406808,
,,,,75,0,75,0,,,,,,,,,,,,,,,,,,,,,,1933.7117738006637,None,,,,,,,,,,,,,,,,,history,5,76,aloud,old,yellow,1929.9522959003225,None,1929.9522959003225,None,6,1.2902136007323861,1929.9522959003225,None,1.2902136007323861,1931.262948400341,None,1931.7768080001697,None,1931.7768080001697,None,r,1.913681499660015,1931.7768080001697,None,1.913681499660015,,,77Aloud,001,2022_Nov_14_1511,ProdSingRedoBetween,2021.2.3,59.99563256406808,
,,,,76,0,76,0,,,,,,,,,,,,,,,,,,,,,,1937.5323585001752,None,,,,,,,,,,,,,,,,,benefit,89,77,aloud,old,red,1934.222519800067,None,1934.222519800067,None,5,2.3639835007488728,1934.222519800067,None,2.3639835007488728,1936.6187917999923,None,1937.132087700069,None,1937.132087700069,None,f,0.38222459983080626,1937.132087700069,None,0.38222459983080626,,,77Aloud,001,2022_Nov_14_1511,ProdSingRedoBetween,2021.2.3,59.99563256406808,
,,,,77,0,77,0,,,,,,,,,,,,,,,,,,,,,,1941.0526875006035,None,,,,,,,,,,,,,,,,,society,18,78,aloud,old,yellow,1938.0427248002961,None,1938.0427248002961,None,6,2.0717819007113576,1938.0427248002961,None,2.0717819007113576,1940.1412963001058,None,1940.654272600077,None,1940.654272600077,None,r,0.38015739992260933,1940.654272600077,None,0.38015739992260933,,,77Aloud,001,2022_Nov_14_1511,ProdSingRedoBetween,2021.2.3,59.99563256406808,
,,,,78,0,78,0,,,,,,,,,,,,,,,,,,,,,,1945.206829400733,None,,,,,,,,,,,,,,,,,block,82,79,aloud,old,red,1941.561633400619,None,1941.561633400619,None,3,2.4088062001392245,1941.561633400619,None,2.4088062001392245,1943.997321200557,None,1944.5101181007922,None,1944.5101181007922,None,n,0.6683454001322389,1944.5101181007922,None,0.6683454001322389,,,77Aloud,001,2022_Nov_14_1511,ProdSingRedoBetween,2021.2.3,59.99563256406808,
,,,,79,0,79,0,,,,,,,,,,,,,,,,,,,,,,1949.7279442008585,None,,,,,,,,,,,,,,,,,season,172,80,aloud,new,null,1945.7144089005888,None,1945.7144089005888,None,1,2.679871399886906,1945.7144089005888,None,2.679871399886906,1948.4158906005323,None,1948.9272046005353,None,1948.9272046005353,None,n,0.7792301997542381,1948.9272046005353,None,0.7792301997542381,,,77Aloud,001,2022_Nov_14_1511,ProdSingRedoBetween,2021.2.3,59.99563256406808,
,,,,80,0,80,0,,,,,,,,,,,,,,,,,,,,,,1953.2314391005784,None,,,,,,,,,,,,,,,,,south,84,81,aloud,old,red,1950.238762400113,None,1950.238762400113,None,6,1.9157407004386187,1950.238762400113,None,1.9157407004386187,1952.1863583000377,None,1952.697647800669,None,1952.697647800669,None,r,0.5127511993050575,1952.697647800669,None,0.5127511993050575,,,77Aloud,001,2022_Nov_14_1511,ProdSingRedoBetween,2021.2.3,59.99563256406808,
,,,,81,0,81,0,,,,,,,,,,,,,,,,,,,,,,1955.8184747006744,None,,,,,,,,,,,,,,,,,executive,75,82,aloud,old,red,1953.741596100852,None,1953.741596100852,None,6,1.1807491993531585,1953.741596100852,None,1.1807491993531585,1954.953211599961,None,1955.4746611006558,None,1955.4746611006558,None,r,0.3197689997032285,1955.4746611006558,None,0.3197689997032285,,,77Aloud,001,2022_Nov_14_1511,ProdSingRedoBetween,2021.2.3,59.99563256406808,
,,,,82,0,82,0,,,,,,,,,,,,,,,,,,,,,,1958.2198117002845,None,,,,,,,,,,,,,,,,,scale,147,83,aloud,new,null,1956.3194151008502,None,1956.3194151008502,None,6,1.2589967995882034,1956.3194151008502,None,1.2589967995882034,1957.610652600415,None,1958.1198520008475,None,1958.1198520008475,None,r,0.08251660037785769,1958.1198520008475,None,0.08251660037785769,,,77Aloud,001,2022_Nov_14_1511,ProdSingRedoBetween,2021.2.3,59.99563256406808,
,,,,83,0,83,0,,,,,,,,,,,,,,,,,,,,,,1960.6567462999374,None,,,,,,,,,,,,,,,,,interior,13,84,aloud,old,yellow,1958.7276159003377,None,1958.7276159003377,None,6,1.0748629998415709,1958.7276159003377,None,1.0748629998415709,1959.8253883002326,None,1960.3418658999726,None,1960.3418658999726,None,r,0.2847153004258871,1960.3418658999726,None,0.2847153004258871,,,77Aloud,001,2022_Nov_14_1511,ProdSingRedoBetween,2021.2.3,59.99563256406808,
,,,,84,0,84,0,,,,,,,,,,,,,,,,,,,,,,1963.6084696007892,None,,,,,,,,,,,,,,,,,stand,152,85,aloud,new,null,1961.1587762003765,None,1961.1587762003765,None,2,1.467714300379157,1961.1587762003765,None,1.467714300379157,1962.6597017003223,None,1963.1748589007184,None,1963.1748589007184,None,n,0.4114741003140807,1963.1748589007184,None,0.4114741003140807,,,77Aloud,001,2022_Nov_14_1511,ProdSingRedoBetween,2021.2.3,59.99563256406808,
,,,,85,0,85,0,,,,,,,,,,,,,,,,,,,,,,1966.5444525005296,None,,,,,,,,,,,,,,,,,range,77,86,aloud,old,red,1964.1091049006209,None,1964.1091049006209,None,6,1.445265700109303,1964.1091049006209,None,1.445265700109303,1965.5772395003587,None,1966.0825495002791,None,1966.0825495002791,None,r,0.43972859997302294,1966.0825495002791,None,0.43972859997302294,,,77Aloud,001,2022_Nov_14_1511,ProdSingRedoBetween,2021.2.3,59.99563256406808,
,,,,86,0,86,0,,,,,,,,,,,,,,,,,,,,,,1969.0321397008374,None,,,,,,,,,,,,,,,,,volume,167,87,aloud,new,null,1967.0496951006353,None,1967.0496951006353,None,1,1.3366012992337346,1967.0496951006353,None,1.3366012992337346,1968.414671299979,None,1968.9197313003242,None,1968.9197313003242,None,n,0.08268860075622797,1968.9197313003242,None,0.08268860075622797,,,77Aloud,001,2022_Nov_14_1511,ProdSingRedoBetween,2021.2.3,59.99563256406808,
,,,,87,0,87,0,,,,,,,,,,,,,,,,,,,,,,1971.9667646000162,None,,,,,,,,,,,,,,,,,science,159,88,aloud,new,null,1969.547782100737,None,1969.547782100737,None,1,1.766579800285399,1969.547782100737,None,1.766579800285399,1971.3347997004166,None,1971.8501317007467,None,1971.8501317007467,None,n,0.09622159972786903,1971.8501317007467,None,0.09622159972786903,,,77Aloud,001,2022_Nov_14_1511,ProdSingRedoBetween,2021.2.3,59.99563256406808,
,,,,88,0,88,0,,,,,,,,,,,,,,,,,,,,,,1975.35349150002,None,,,,,,,,,,,,,,,,,display,93,89,aloud,new,null,1972.4673824999481,None,1972.4673824999481,None,4,1.8389761000871658,1972.4673824999481,None,1.8389761000871658,1974.339720000513,None,1974.8529552007094,None,1974.8529552007094,None,f,0.4694647993892431,1974.8529552007094,None,0.4694647993892431,,,77Aloud,001,2022_Nov_14_1511,ProdSingRedoBetween,2021.2.3,59.99563256406808,
,,,,89,0,89,0,,,,,,,,,,,,,,,,,,,,,,1980.6922009000555,None,,,,,,,,,,,,,,,,,century,9,90,aloud,old,yellow,1975.8647375004366,None,1975.8647375004366,None,5,3.8976266998797655,1975.8647375004366,None,3.8976266998797655,1979.7939051007852,None,1980.3111770004034,None,1980.3111770004034,None,f,0.35512719955295324,1980.3111770004034,None,0.35512719955295324,,,77Aloud,001,2022_Nov_14_1511,ProdSingRedoBetween,2021.2.3,59.99563256406808,
,,,,90,0,90,0,,,,,,,,,,,,,,,,,,,,,,1983.6784437000751,None,,,,,,,,,,,,,,,,,payment,37,91,aloud,old,blue,1981.2071022000164,None,1981.2071022000164,None,1,1.8673018999397755,1981.2071022000164,None,1.8673018999397755,1983.1010575005785,None,1983.6118518002331,None,1983.6118518002331,None,n,0.038480100221931934,1983.6118518002331,None,0.038480100221931934,,,77Aloud,001,2022_Nov_14_1511,ProdSingRedoBetween,2021.2.3,59.99563256406808,
,,,,91,0,91,0,,,,,,,,,,,,,,,,,,,,,,1986.9316887008026,None,,,,,,,,,,,,,,,,,column,69,92,aloud,old,red,1984.1854523001239,None,1984.1854523001239,None,6,1.7770015001296997,1984.1854523001239,None,1.7770015001296997,1985.985454200767,None,1986.5010907007381,None,1986.5010907007381,None,r,0.41320389974862337,1986.5010907007381,None,0.41320389974862337,,,77Aloud,001,2022_Nov_14_1511,ProdSingRedoBetween,2021.2.3,59.99563256406808,
,,,,92,0,92,0,,,,,,,,,,,,,,,,,,,,,,1990.3684466006234,None,,,,,,,,,,,,,,,,,count,3,93,aloud,old,yellow,1987.4375553000718,None,1987.4375553000718,None,2,1.9328025998547673,1987.4375553000718,None,1.9328025998547673,1989.4027725001797,None,1989.9181048003957,None,1989.9181048003957,None,n,0.42825340013951063,1989.9181048003957,None,0.42825340013951063,,,77Aloud,001,2022_Nov_14_1511,ProdSingRedoBetween,2021.2.3,59.99563256406808,
,,,,93,0,93,0,,,,,,,,,,,,,,,,,,,,,,1994.355609900318,None,,,,,,,,,,,,,,,,,country,88,94,aloud,old,red,1990.8792373007163,None,1990.8792373007163,None,6,2.427074800245464,1990.8792373007163,None,2.427074800245464,1993.3234884999692,None,1993.84306700062,None,1993.84306700062,None,r,0.48739830031991005,1993.84306700062,None,0.48739830031991005,,,77Aloud,001,2022_Nov_14_1511,ProdSingRedoBetween,2021.2.3,59.99563256406808,
,,,,94,0,94,0,,,,,,,,,,,,,,,,,,,,,,1996.7081252001226,None,,,,,,,,,,,,,,,,,frank,99,95,aloud,new,null,1994.8674763003364,None,1994.8674763003364,None,1,1.1589649999514222,1994.8674763003364,None,1.1589649999514222,1996.0613486999646,None,1996.5747029008344,None,1996.5747029008344,None,n,0.10756830032914877,1996.5747029008344,None,0.10756830032914877,,,77Aloud,001,2022_Nov_14_1511,ProdSingRedoBetween,2021.2.3,59.99563256406808,
,,,,95,0,95,0,,,,,,,,,,,,,,,,,,,,,,2001.7979805003852,None,,,,,,,,,,,,,,,,,department,94,96,aloud,new,null,1997.2182684000582,None,1997.2182684000582,None,5,3.0880615999922156,1997.2182684000582,None,3.0880615999922156,2000.3304930999875,None,2000.8488703006878,None,2000.8488703006878,None,f,0.9294926002621651,2000.8488703006878,None,0.9294926002621651,,,77Aloud,001,2022_Nov_14_1511,ProdSingRedoBetween,2021.2.3,59.99563256406808,
,,,,96,0,96,0,,,,,,,,,,,,,,,,,,,,,,2009.8758323006332,None,,,,,,,,,,,,,,,,,government,100,97,aloud,new,null,2002.3139688000083,None,2002.3139688000083,None,4,5.584328800439835,2002.3139688000083,None,5.584328800439835,2007.9236830007285,None,2008.4365216000006,None,2008.4365216000006,None,f,1.4139801999554038,2008.4365216000006,None,1.4139801999554038,,,77Aloud,001,2022_Nov_14_1511,ProdSingRedoBetween,2021.2.3,59.99563256406808,
,,,,97,0,97,0,,,,,,,,,,,,,,,,,,,,,,2013.8939155004919,None,,,,,,,,,,,,,,,,,atmosphere,138,98,aloud,new,null,2010.3896205006167,None,2010.3896205006167,None,1,2.628727799281478,2010.3896205006167,None,2.628727799281478,2013.0481800008565,None,2013.5584889007732,None,2013.5584889007732,None,n,0.3078058995306492,2013.5584889007732,None,0.3078058995306492,,,77Aloud,001,2022_Nov_14_1511,ProdSingRedoBetween,2021.2.3,59.99563256406808,
,,,,98,0,98,0,,,,,,,,,,,,,,,,,,,,,,2018.179590800777,None,,,,,,,,,,,,,,,,,accident,129,99,aloud,new,null,2014.4093494005501,None,2014.4093494005501,None,4,2.72897220030427,2014.4093494005501,None,2.72897220030427,2017.1666666008532,None,2017.6792198000476,None,2017.6792198000476,None,f,0.48299979977309704,2017.6792198000476,None,0.48299979977309704,,,77Aloud,001,2022_Nov_14_1511,ProdSingRedoBetween,2021.2.3,59.99563256406808,
,,,,99,0,99,0,,,,,,,,,,,,,,,,,,,,,,2022.0017289007083,None,,,,,,,,,,,,,,,,,second,66,100,aloud,old,red,2018.691272499971,None,2018.691272499971,None,6,2.142994999885559,2018.691272499971,None,2.142994999885559,2020.8682162007317,None,2021.387022100389,None,2021.387022100389,None,r,0.5913049001246691,2021.387022100389,None,0.5913049001246691,,,77Aloud,001,2022_Nov_14_1511,ProdSingRedoBetween,2021.2.3,59.99563256406808,
,,,,100,0,100,0,,,,,,,,,,,,,,,,,,,,,,2027.841420000419,None,,,,,,,,,,,,,,,,,review,135,101,aloud,new,null,2022.5207240004092,None,2022.5207240004092,None,1,4.481538999825716,2022.5207240004092,None,4.481538999825716,2027.0262212008238,None,2027.5441017001867,None,2027.5441017001867,None,n,0.2742213001474738,2027.5441017001867,None,0.2742213001474738,,,77Aloud,001,2022_Nov_14_1511,ProdSingRedoBetween,2021.2.3,59.99563256406808,
,,,,101,0,101,0,,,,,,,,,,,,,,,,,,,,,,2031.9930613003671,None,,,,,,,,,,,,,,,,,crowd,87,102,aloud,old,red,2028.3597191004083,None,2028.3597191004083,None,6,2.9545766999945045,2028.3597191004083,None,2.9545766999945045,2031.3440064005554,None,2031.85975600034,None,2031.85975600034,None,r,0.10249049961566925,2031.85975600034,None,0.10249049961566925,,,77Aloud,001,2022_Nov_14_1511,ProdSingRedoBetween,2021.2.3,59.99563256406808,
,,,,102,0,102,0,,,,,,,,,,,,,,,,,,,,,,2036.9148959005252,None,,,,,,,,,,,,,,,,,hunger,122,103,aloud,new,null,2032.4939657002687,None,2032.4939657002687,None,2,2.7244121003896,2032.4939657002687,None,2.7244121003896,2035.2531483005732,None,2035.763808700256,None,2035.763808700256,None,n,1.134463299997151,2035.763808700256,None,1.134463299997151,,,77Aloud,001,2022_Nov_14_1511,ProdSingRedoBetween,2021.2.3,59.99563256406808,
,,,,103,0,103,0,,,,,,,,,,,,,,,,,,,,,,2042.0209285002202,None,,,,,,,,,,,,,,,,,design,7,104,aloud,old,yellow,2037.4249142007902,None,2037.4249142007902,None,2,3.913240499794483,2037.4249142007902,None,3.913240499794483,2041.3718133000657,None,2041.8902077004313,None,2041.8902077004313,None,n,0.10406049992889166,2041.8902077004313,None,0.10406049992889166,,,77Aloud,001,2022_Nov_14_1511,ProdSingRedoBetween,2021.2.3,59.99563256406808,
,,,,104,0,104,0,,,,,,,,,,,,,,,,,,,,,,2044.9561257008463,None,,,,,,,,,,,,,,,,,touch,101,105,aloud,new,null,2042.5217813001946,None,2042.5217813001946,None,2,1.6884834999218583,2042.5217813001946,None,1.6884834999218583,2044.2405512006953,None,2044.7587040001526,None,2044.7587040001526,None,n,0.17947150021791458,2044.7587040001526,None,0.17947150021791458,,,77Aloud,001,2022_Nov_14_1511,ProdSingRedoBetween,2021.2.3,59.99563256406808,
,,,,105,0,105,0,,,,,,,,,,,,,,,,,,,,,,2049.282562500797,None,,,,,,,,,,,,,,,,,nature,65,106,aloud,old,red,2045.4687251001596,None,2045.4687251001596,None,5,2.9015045007690787,2045.4687251001596,None,2.9015045007690787,2048.3986309003085,None,2048.9103369005024,None,2048.9103369005024,None,f,0.3480818998068571,2048.9103369005024,None,0.3480818998068571,,,77Aloud,001,2022_Nov_14_1511,ProdSingRedoBetween,2021.2.3,59.99563256406808,
,,,,106,0,106,0,,,,,,,,,,,,,,,,,,,,,,2052.1818279,None,,,,,,,,,,,,,,,,,religion,10,107,aloud,old,yellow,2049.7946270005777,None,2049.7946270005777,None,6,1.4396208999678493,2049.7946270005777,None,1.4396208999678493,2051.2639928003773,None,2051.7632525004447,None,2051.7632525004447,None,r,0.3909989995881915,2051.7632525004447,None,0.3909989995881915,,,77Aloud,001,2022_Nov_14_1511,ProdSingRedoBetween,2021.2.3,59.99563256406808,
,,,,107,0,107,0,,,,,,,,,,,,,,,,,,,,,,2055.4001486999914,None,,,,,,,,,,,,,,,,,chief,133,108,aloud,new,null,2052.702594000846,None,2052.702594000846,None,3,1.6036155996844172,2052.702594000846,None,1.6036155996844172,2054.335098400712,None,2054.8495999006554,None,2054.8495999006554,None,n,0.5205859998241067,2054.8495999006554,None,0.5205859998241067,,,77Aloud,001,2022_Nov_14_1511,ProdSingRedoBetween,2021.2.3,59.99563256406808,
,,,,108,0,108,0,,,,,,,,,,,,,,,,,,,,,,2061.2892028000206,None,,,,,,,,,,,,,,,,,sleep,19,109,aloud,old,yellow,2055.9102156003937,None,2055.9102156003937,None,1,4.4041523998603225,2055.9102156003937,None,4.4041523998603225,2060.3451225003228,None,2060.8556136004627,None,2060.8556136004627,None,n,0.4106018003076315,2060.8556136004627,None,0.4106018003076315,,,77Aloud,001,2022_Nov_14_1511,ProdSingRedoBetween,2021.2.3,59.99563256406808,
,,,,109,0,109,0,,,,,,,,,,,,,,,,,,,,,,2064.2421814007685,None,,,,,,,,,,,,,,,,,account,61,110,aloud,old,red,2061.8009371003136,None,2061.8009371003136,None,6,1.4492466002702713,2061.8009371003136,None,1.4492466002702713,2063.2763435002416,None,2063.7918902002275,None,2063.7918902002275,None,r,0.43423369992524385,2063.7918902002275,None,0.43423369992524385,,,77Aloud,001,2022_Nov_14_1511,ProdSingRedoBetween,2021.2.3,59.99563256406808,
,,,,110,0,110,0,,,,,,,,,,,,,,,,,,,,,,2066.928191500716,None,,,,,,,,,,,,,,,,,thick,91,111,aloud,new,null,2064.745019500144,None,2064.745019500144,None,1,1.3771518003195524,2064.745019500144,None,1.3771518003195524,2066.1455749003217,None,2066.661161900498,None,2066.661161900498,None,n,0.2451260006055236,2066.661161900498,None,0.2451260006055236,,,77Aloud,001,2022_Nov_14_1511,ProdSingRedoBetween,2021.2.3,59.99563256406808,
,,,,111,0,111,0,,,,,,,,,,,,,,,,,,,,,,2070.1981032006443,None,,,,,,,,,,,,,,,,,cousin,85,112,aloud,old,red,2067.4426434002817,None,2067.4426434002817,None,1,1.0954729998484254,2067.4426434002817,None,1.0954729998484254,2068.5659011006355,None,2069.080458600074,None,2069.080458600074,None,n,1.089652699418366,2069.080458600074,None,1.089652699418366,,,77Aloud,001,2022_Nov_14_1511,ProdSingRedoBetween,2021.2.3,59.99563256406808,
,,,,112,0,112,0,,,,,,,,,,,,,,,,,,,,,,2072.6335460003465,None,,,,,,,,,,,,,,,,,shape,92,113,aloud,new,null,2070.700793799944,None,2070.700793799944,None,1,1.261386699974537,2070.700793799944,None,1.261386699974537,2071.984527000226,None,2072.4840216999874,None,2072.4840216999874,None,n,0.12619070056825876,2072.4840216999874,None,0.12619070056825876,,,77Aloud,001,2022_Nov_14_1511,ProdSingRedoBetween,2021.2.3,59.99563256406808,
,,,,113,0,113,0,,,,,,,,,,,,,,,,,,,,,,2078.539767900482,None,,,,,,,,,,,,,,,,,property,63,114,aloud,old,red,2073.152606700547,None,2073.152606700547,None,6,4.521533399820328,2073.152606700547,None,4.521533399820328,2077.689014500007,None,2078.1895010005683,None,2078.1895010005683,None,r,0.33266649954020977,2078.1895010005683,None,0.33266649954020977,,,77Aloud,001,2022_Nov_14_1511,ProdSingRedoBetween,2021.2.3,59.99563256406808,
,,,,114,0,114,0,,,,,,,,,,,,,,,,,,,,,,2081.0422217007726,None,,,,,,,,,,,,,,,,,cover,57,115,aloud,old,blue,2079.041395300068,None,2079.041395300068,None,1,1.1848598001524806,2079.041395300068,None,1.1848598001524806,2080.2427215008065,None,2080.742093300447,None,2080.742093300447,None,n,0.28414580039680004,2080.742093300447,None,0.28414580039680004,,,77Aloud,001,2022_Nov_14_1511,ProdSingRedoBetween,2021.2.3,59.99563256406808,
,,,,115,0,115,0,,,,,,,,,,,,,,,,,,,,,,2085.9804144008085,None,,,,,,,,,,,,,,,,,working,123,116,aloud,new,null,2081.5447304006666,None,2081.5447304006666,None,1,3.313428499735892,2081.5447304006666,None,3.313428499735892,2084.8828633008525,None,2085.3967035003006,None,2085.3967035003006,None,n,0.5654098996892571,2085.3967035003006,None,0.5654098996892571,,,77Aloud,001,2022_Nov_14_1511,ProdSingRedoBetween,2021.2.3,59.99563256406808,
,,,,116,0,116,0,,,,,,,,,,,,,,,,,,,,,,2088.6331972004846,None,,,,,,,,,,,,,,,,,foundation,120,117,aloud,new,null,2086.4810479003936,None,2086.4810479003936,None,1,1.3131023002788424,2086.4810479003936,None,1.3131023002788424,2087.8174969004467,None,2088.3329532006755,None,2088.3329532006755,None,n,0.28524149954319,2088.3329532006755,None,0.28524149954319,,,77Aloud,001,2022_Nov_14_1511,ProdSingRedoBetween,2021.2.3,59.99563256406808,
,,,,117,0,117,0,,,,,,,,,,,,,,,,,,,,,,2090.8937711007893,None,,,,,,,,,,,,,,,,,surprise,137,118,aloud,new,null,2089.134983099997,None,2089.134983099997,None,1,1.0991708999499679,2089.134983099997,None,1.0991708999499679,2090.254306900315,None,2090.7685816008598,None,2090.7685816008598,None,n,0.08948119916021824,2090.7685816008598,None,0.08948119916021824,,,77Aloud,001,2022_Nov_14_1511,ProdSingRedoBetween,2021.2.3,59.99563256406808,
,,,,118,0,118,0,,,,,,,,,,,,,,,,,,,,,,2094.655927100219,None,,,,,,,,,,,,,,,,,crime,41,119,aloud,old,blue,2091.4063511006534,None,2091.4063511006534,None,5,2.2997669000178576,2091.4063511006534,None,2.2997669000178576,2093.7224996006116,None,2094.222198200412,None,2094.222198200412,None,f,0.41216730047017336,2094.222198200412,None,0.41216730047017336,,,77Aloud,001,2022_Nov_14_1511,ProdSingRedoBetween,2021.2.3,59.99563256406808,
,,,,119,0,119,0,,,,,,,,,,,,,,,,,,,,,,2100.7285384004936,None,,,,,,,,,,,,,,,,,instrument,95,120,aloud,new,null,2095.158661900088,None,2095.158661900088,None,2,4.035363900475204,2095.158661900088,None,4.035363900475204,2099.2118832003325,None,2099.7173703005537,None,2099.7173703005537,None,n,0.9807821996510029,2099.7173703005537,None,0.9807821996510029,,,77Aloud,001,2022_Nov_14_1511,ProdSingRedoBetween,2021.2.3,59.99563256406808,
,,,,120,0,120,0,,,,,,,,,,,,,,,,,,,,,,2106.1005303002894,None,,,,,,,,,,,,,,,,,trend,24,121,aloud,old,yellow,2101.237993299961,None,2101.237993299961,None,5,3.6521426998078823,2101.237993299961,None,3.6521426998078823,2104.9159393999726,None,2105.4166285004467,None,2105.4166285004467,None,f,0.6574668996036053,2105.4166285004467,None,0.6574668996036053,,,77Aloud,001,2022_Nov_14_1511,ProdSingRedoBetween,2021.2.3,59.99563256406808,
,,,,121,0,121,0,,,,,,,,,,,,,,,,,,,,,,2108.936692200601,None,,,,,,,,,,,,,,,,,private,26,122,aloud,old,yellow,2106.619030700065,None,2106.619030700065,None,6,1.5991373006254435,2106.619030700065,None,1.5991373006254435,2108.2397219007835,None,2108.753408400342,None,2108.753408400342,None,r,0.16070849914103746,2108.753408400342,None,0.16070849914103746,,,77Aloud,001,2022_Nov_14_1511,ProdSingRedoBetween,2021.2.3,59.99563256406808,
,,,,122,0,122,0,,,,,,,,,,,,,,,,,,,,,,2112.3399570006877,None,,,,,,,,,,,,,,,,,escape,163,123,aloud,new,null,2109.43725870084,None,2109.43725870084,None,6,1.7567910002544522,2109.43725870084,None,1.7567910002544522,2111.2234639003873,None,2111.722973900847,None,2111.722973900847,None,r,0.5911549003794789,2111.722973900847,None,0.5911549003794789,,,77Aloud,001,2022_Nov_14_1511,ProdSingRedoBetween,2021.2.3,59.99563256406808,
,,,,123,0,123,0,,,,,,,,,,,,,,,,,,,,,,2115.8435756005347,None,,,,,,,,,,,,,,,,,relation,0,124,aloud,old,yellow,2112.840393400751,None,2112.840393400751,None,2,2.3858986999839544,2112.840393400751,None,2.3858986999839544,2115.242970000021,None,2115.7436393005773,None,2115.7436393005773,None,n,0.07452329993247986,2115.7436393005773,None,0.07452329993247986,,,77Aloud,001,2022_Nov_14_1511,ProdSingRedoBetween,2021.2.3,59.99563256406808,
,,,,124,0,124,0,,,,,,,,,,,,,,,,,,,,,,2121.24896630086,None,,,,,,,,,,,,,,,,,defeat,67,125,aloud,old,red,2116.345430000685,None,2116.345430000685,None,5,4.200706300325692,2116.345430000685,None,4.200706300325692,2120.570362300612,None,2121.088347600773,None,2121.088347600773,None,f,0.12967380043119192,2121.088347600773,None,0.12967380043119192,,,77Aloud,001,2022_Nov_14_1511,ProdSingRedoBetween,2021.2.3,59.99563256406808,
,,,,125,0,125,0,,,,,,,,,,,,,,,,,,,,,,2125.75346450042,None,,,,,,,,,,,,,,,,,notice,157,126,aloud,new,null,2121.7495656004176,None,2121.7495656004176,None,1,3.196580399759114,2121.7495656004176,None,3.196580399759114,2124.969137600623,None,2125.4793869005516,None,2125.4793869005516,None,n,0.24274810031056404,2125.4793869005516,None,0.24274810031056404,,,77Aloud,001,2022_Nov_14_1511,ProdSingRedoBetween,2021.2.3,59.99563256406808,
,,,,126,0,126,0,,,,,,,,,,,,,,,,,,,,,,2127.705264599994,None,,,,,,,,,,,,,,,,,bitter,111,127,aloud,new,null,2126.2541158003733,None,2126.2541158003733,None,1,0.9080947004258633,2126.2541158003733,None,0.9080947004258633,2127.189108800143,None,2127.6888336008415,None,2127.6888336008415,None,n,0.0012092003598809242,2127.6888336008415,None,0.0012092003598809242,,,77Aloud,001,2022_Nov_14_1511,ProdSingRedoBetween,2021.2.3,59.99563256406808,
,,,,127,0,127,0,,,,,,,,,,,,,,,,,,,,,,2131.0596394008026,None,,,,,,,,,,,,,,,,,course,132,128,aloud,new,null,2128.2085461001843,None,2128.2085461001843,None,1,2.0578114995732903,2128.2085461001843,None,2.0578114995732903,2130.302225800231,None,2130.8084063008428,None,2130.8084063008428,None,n,0.23380650021135807,2130.8084063008428,None,0.23380650021135807,,,77Aloud,001,2022_Nov_14_1511,ProdSingRedoBetween,2021.2.3,59.99563256406808,
,,,,128,0,128,0,,,,,,,,,,,,,,,,,,,,,,2134.3331420002505,None,,,,,,,,,,,,,,,,,equipment,80,129,aloud,old,red,2131.5636492008343,None,2131.5636492008343,None,5,2.158503900282085,2131.5636492008343,None,2.158503900282085,2133.748782100156,None,2134.2656656000763,None,2134.2656656000763,None,f,0.04063970036804676,2134.2656656000763,None,0.04063970036804676,,,77Aloud,001,2022_Nov_14_1511,ProdSingRedoBetween,2021.2.3,59.99563256406808,
,,,,129,0,129,0,,,,,,,,,,,,,,,,,,,,,,2137.2650303002447,None,,,,,,,,,,,,,,,,,throw,156,130,aloud,new,null,2134.8458246001974,None,2134.8458246001974,None,2,1.6681797001510859,2134.8458246001974,None,1.6681797001510859,2136.531986700371,None,2137.036255000159,None,2137.036255000159,None,n,0.21385319996625185,2137.036255000159,None,0.21385319996625185,,,77Aloud,001,2022_Nov_14_1511,ProdSingRedoBetween,2021.2.3,59.99563256406808,
,,,,130,0,130,0,,,,,,,,,,,,,,,,,,,,,,2141.0854965001345,None,,,,,,,,,,,,,,,,,platform,16,131,aloud,old,yellow,2137.7688730005175,None,2137.7688730005175,None,2,2.353266199119389,2137.7688730005175,None,2.353266199119389,2140.153058300726,None,2140.668616699986,None,2140.668616699986,None,n,0.3974410993978381,2140.668616699986,None,0.3974410993978381,,,77Aloud,001,2022_Nov_14_1511,ProdSingRedoBetween,2021.2.3,59.99563256406808,
,,,,131,0,131,0,,,,,,,,,,,,,,,,,,,,,,2145.756794200279,None,,,,,,,,,,,,,,,,,silence,121,132,aloud,new,null,2141.586119700223,None,2141.586119700223,None,1,2.84792760014534,2141.586119700223,None,2.84792760014534,2144.4584443001077,None,2144.9725804002956,None,2144.9725804002956,None,n,0.7655755002051592,2144.9725804002956,None,0.7655755002051592,,,77Aloud,001,2022_Nov_14_1511,ProdSingRedoBetween,2021.2.3,59.99563256406808,
,,,,132,0,132,0,,,,,,,,,,,,,,,,,,,,,,2149.7958590006456,None,,,,,,,,,,,,,,,,,split,68,133,aloud,old,red,2146.2677287003025,None,2146.2677287003025,None,2,2.5982833998277783,2146.2677287003025,None,2.5982833998277783,2148.893893700093,None,2149.398412300274,None,2149.398412300274,None,n,0.37174300011247396,2149.398412300274,None,0.37174300011247396,,,77Aloud,001,2022_Nov_14_1511,ProdSingRedoBetween,2021.2.3,59.99563256406808,
,,,,133,0,133,0,,,,,,,,,,,,,,,,,,,,,,2153.551178900525,None,,,,,,,,,,,,,,,,,point,86,134,aloud,old,red,2150.312336200848,None,2150.312336200848,None,5,2.2736377995461226,2150.312336200848,None,2.2736377995461226,2152.6132937008515,None,2153.113954300061,None,2153.113954300061,None,f,0.40801330003887415,2153.113954300061,None,0.40801330003887415,,,77Aloud,001,2022_Nov_14_1511,ProdSingRedoBetween,2021.2.3,59.99563256406808,
,,,,134,0,134,0,,,,,,,,,,,,,,,,,,,,,,2160.5214009005576,None,,,,,,,,,,,,,,,,,broad,31,135,aloud,old,blue,2154.0649369005114,None,2154.0649369005114,None,4,4.041017599403858,2154.0649369005114,None,4.041017599403858,2158.140844700858,None,2158.652759000659,None,2158.652759000659,None,f,1.837274399586022,2158.652759000659,None,1.837274399586022,,,77Aloud,001,2022_Nov_14_1511,ProdSingRedoBetween,2021.2.3,59.99563256406808,
,,,,135,0,135,0,,,,,,,,,,,,,,,,,,,,,,2163.574222500436,None,,,,,,,,,,,,,,,,,disease,59,136,aloud,old,yellow,2161.022576400079,None,2161.022576400079,None,6,1.4192858999595046,2161.022576400079,None,1.4192858999595046,2162.456819500774,None,2162.9571142001078,None,2162.9571142001078,None,r,0.5968684004619718,2162.9571142001078,None,0.5968684004619718,,,77Aloud,001,2022_Nov_14_1511,ProdSingRedoBetween,2021.2.3,59.99563256406808,
,,,,136,0,136,0,,,,,,,,,,,,,,,,,,,,,,2165.65970259998,None,,,,,,,,,,,,,,,,,series,70,137,aloud,old,red,2164.0766786001623,None,2164.0766786001623,None,6,0.9733678000047803,2164.0766786001623,None,0.9733678000047803,2165.078997700475,None,2165.5930306008086,None,2165.5930306008086,None,r,0.04899759963154793,2165.5930306008086,None,0.04899759963154793,,,77Aloud,001,2022_Nov_14_1511,ProdSingRedoBetween,2021.2.3,59.99563256406808,
,,,,137,0,137,0,,,,,,,,,,,,,,,,,,,,,,2170.6480992008,None,,,,,,,,,,,,,,,,,suggestion,52,138,aloud,old,blue,2166.160789700225,None,2166.160789700225,None,6,1.0252123000100255,2166.160789700225,None,1.0252123000100255,2167.2204698007554,None,2167.7286571003497,None,2167.7286571003497,None,r,2.8892226004973054,2167.7286571003497,None,2.8892226004973054,,,77Aloud,001,2022_Nov_14_1511,ProdSingRedoBetween,2021.2.3,59.99563256406808,
,,,,138,0,138,0,,,,,,,,,,,,,,,,,,,,,,2176.053430800326,None,,,,,,,,,,,,,,,,,express,96,139,aloud,new,null,2171.1487687006593,None,2171.1487687006593,None,4,2.7891239998862147,2171.1487687006593,None,2.7891239998862147,2173.967955500819,None,2174.4685329999775,None,2174.4685329999775,None,f,1.5573979001492262,2174.4685329999775,None,1.5573979001492262,,,77Aloud,001,2022_Nov_14_1511,ProdSingRedoBetween,2021.2.3,59.99563256406808,
,,,,139,0,139,0,,,,,,,,,,,,,,,,,,,,,,2179.640439300798,None,,,,,,,,,,,,,,,,,shear,150,140,aloud,new,null,2176.554066900164,None,2176.554066900164,None,1,1.9358045998960733,2176.554066900164,None,1.9358045998960733,2178.510482599959,None,2179.0236758999527,None,2179.0236758999527,None,n,0.5942643005400896,2179.0236758999527,None,0.5942643005400896,,,77Aloud,001,2022_Nov_14_1511,ProdSingRedoBetween,2021.2.3,59.99563256406808,
,,,,140,0,140,0,,,,,,,,,,,,,,,,,,,,,,2183.0609782002866,None,,,,,,,,,,,,,,,,,opening,146,141,aloud,new,null,2180.1409957008436,None,2180.1409957008436,None,4,2.044907600618899,2180.1409957008436,None,2.044907600618899,2182.2116088001058,None,2182.7268879003823,None,2182.7268879003823,None,f,0.31499919947236776,2182.7268879003823,None,0.31499919947236776,,,77Aloud,001,2022_Nov_14_1511,ProdSingRedoBetween,2021.2.3,59.99563256406808,
,,,,141,0,141,0,,,,,,,,,,,,,,,,,,,,,,2188.549262000248,None,,,,,,,,,,,,,,,,,produce,151,142,aloud,new,null,2183.5611508004367,None,2183.5611508004367,None,6,4.064773099496961,2183.5611508004367,None,4.064773099496961,2187.649645000696,None,2188.1488453000784,None,2188.1488453000784,None,r,0.373089499771595,2188.1488453000784,None,0.373089499771595,,,77Aloud,001,2022_Nov_14_1511,ProdSingRedoBetween,2021.2.3,59.99563256406808,
,,,,142,0,142,0,,,,,,,,,,,,,,,,,,,,,,2192.4376250002533,None,,,,,,,,,,,,,,,,,sight,38,143,aloud,old,blue,2189.049748500809,None,2189.049748500809,None,4,2.4722218001261353,2189.049748500809,None,2.4722218001261353,2191.553567500785,None,2192.0530998008326,None,2192.0530998008326,None,f,0.356920899823308,2192.0530998008326,None,0.356920899823308,,,77Aloud,001,2022_Nov_14_1511,ProdSingRedoBetween,2021.2.3,59.99563256406808,
,,,,143,0,143,0,,,,,,,,,,,,,,,,,,,,,,2197.6250279005617,None,,,,,,,,,,,,,,,,,company,43,144,aloud,old,blue,2192.937024000101,None,2192.937024000101,None,4,3.616932800039649,2192.937024000101,None,3.616932800039649,2196.5736834006384,None,2197.074717800133,None,2197.074717800133,None,f,0.5272523006424308,2197.074717800133,None,0.5272523006424308,,,77Aloud,001,2022_Nov_14_1511,ProdSingRedoBetween,2021.2.3,59.99563256406808,
,,,,144,0,144,0,,,,,,,,,,,,,,,,,,,,,,2201.1787587003782,None,,,,,,,,,,,,,,,,,council,60,145,aloud,old,red,2198.127853900194,None,2198.127853900194,None,6,1.4183235000818968,2198.127853900194,None,1.4183235000818968,2199.5874585006386,None,2200.094060100615,None,2200.094060100615,None,r,1.067828600294888,2200.094060100615,None,1.067828600294888,,,77Aloud,001,2022_Nov_14_1511,ProdSingRedoBetween,2021.2.3,59.99563256406808,
,,,,145,0,145,0,,,,,,,,,,,,,,,,,,,,,,2205.418981000781,None,,,,,,,,,,,,,,,,,material,90,146,aloud,new,null,2201.6860213000327,None,2201.6860213000327,None,2,2.7638790998607874,2201.6860213000327,None,2.7638790998607874,2204.4653042005375,None,2204.9659114005044,None,2204.9659114005044,None,n,0.4282570006325841,2204.9659114005044,None,0.4282570006325841,,,77Aloud,001,2022_Nov_14_1511,ProdSingRedoBetween,2021.2.3,59.99563256406808,
,,,,146,0,146,0,,,,,,,,,,,,,,,,,,,,,,2208.569455699995,None,,,,,,,,,,,,,,,,,quiet,177,147,aloud,new,null,2205.9333560001105,None,2205.9333560001105,None,1,1.6765507999807596,2205.9333560001105,None,1.6765507999807596,2207.6366976005957,None,2208.1522440006956,None,2208.1522440006956,None,n,0.3937164004892111,2208.1522440006956,None,0.3937164004892111,,,77Aloud,001,2022_Nov_14_1511,ProdSingRedoBetween,2021.2.3,59.99563256406808,
,,,,147,0,147,0,,,,,,,,,,,,,,,,,,,,,,2212.2241851007566,None,,,,,,,,,,,,,,,,,dozen,127,148,aloud,new,null,2209.0721387006342,None,2209.0721387006342,None,1,2.4497391004115343,2209.0721387006342,None,2.4497391004115343,2211.5466856006533,None,2212.0563935004175,None,2212.0563935004175,None,n,0.13749370072036982,2212.0563935004175,None,0.13749370072036982,,,77Aloud,001,2022_Nov_14_1511,ProdSingRedoBetween,2021.2.3,59.99563256406808,
,,,,148,0,148,0,,,,,,,,,,,,,,,,,,,,,,2214.5965900002047,None,,,,,,,,,,,,,,,,,trial,33,149,aloud,old,blue,2212.7334358999506,None,2212.7334358999506,None,1,1.1725019002333283,2212.7334358999506,None,1.1725019002333283,2213.9263967005536,None,2214.442089800723,None,2214.442089800723,None,n,0.11992819979786873,2214.442089800723,None,0.11992819979786873,,,77Aloud,001,2022_Nov_14_1511,ProdSingRedoBetween,2021.2.3,59.99563256406808,
,,,,149,0,149,0,,,,,,,,,,,,,,,,,,,,,,2217.227934100665,None,,,,,,,,,,,,,,,,,signal,1,150,aloud,old,yellow,2215.1119160000235,None,2215.1119160000235,None,1,1.3219740996137261,2215.1119160000235,None,1.3219740996137261,2216.461694200523,None,2216.961095300503,None,2216.961095300503,None,n,0.24872469995170832,2216.961095300503,None,0.24872469995170832,,,77Aloud,001,2022_Nov_14_1511,ProdSingRedoBetween,2021.2.3,59.99563256406808,
,,,,150,0,150,0,,,,,,,,,,,,,,,,,,,,,,2219.5803669001907,None,,,,,,,,,,,,,,,,,salary,36,151,aloud,old,blue,2217.730981200002,None,2217.730981200002,None,1,1.2149475999176502,2217.730981200002,None,1.2149475999176502,2218.965995600447,None,2219.4804044002667,None,2219.4804044002667,None,n,0.07349270023405552,2219.4804044002667,None,0.07349270023405552,,,77Aloud,001,2022_Nov_14_1511,ProdSingRedoBetween,2021.2.3,59.99563256406808,
,,,,151,0,151,0,,,,,,,,,,,,,,,,,,,,,,2222.7497519999743,None,,,,,,,,,,,,,,,,,message,56,152,aloud,old,blue,2220.0975041007623,None,2220.0975041007623,None,5,1.9603941002860665,2220.0975041007623,None,1.9603941002860665,2222.0844848006964,None,2222.5999654000625,None,2222.5999654000625,None,f,0.12201710045337677,2222.5999654000625,None,0.12201710045337677,,,77Aloud,001,2022_Nov_14_1511,ProdSingRedoBetween,2021.2.3,59.99563256406808,
,,,,152,0,152,0,,,,,,,,,,,,,,,,,,,,,,2225.5363181000575,None,,,,,,,,,,,,,,,,,write,102,153,aloud,new,null,2223.2520370008424,None,2223.2520370008424,None,2,1.5738169001415372,2223.2520370008424,None,1.5738169001415372,2224.855405700393,None,2225.3696612007916,None,2225.3696612007916,None,n,0.14432100020349026,2225.3696612007916,None,0.14432100020349026,,,77Aloud,001,2022_Nov_14_1511,ProdSingRedoBetween,2021.2.3,59.99563256406808,
,,,,153,0,153,0,,,,,,,,,,,,,,,,,,,,,,2228.0721840001643,None,,,,,,,,,,,,,,,,,weight,106,154,aloud,new,null,2226.05599070061,None,2226.05599070061,None,2,1.2178192995488644,2226.05599070061,None,1.2178192995488644,2227.3049565004185,None,2227.805438200012,None,2227.805438200012,None,n,0.23648880049586296,2227.805438200012,None,0.23648880049586296,,,77Aloud,001,2022_Nov_14_1511,ProdSingRedoBetween,2021.2.3,59.99563256406808,
,,,,154,0,154,0,,,,,,,,,,,,,,,,,,,,,,2231.199018999934,None,,,,,,,,,,,,,,,,,match,48,155,aloud,old,blue,2228.5735071003437,None,2228.5735071003437,None,1,1.9324297001585364,2228.5735071003437,None,1.9324297001585364,2230.5262921005487,None,2231.0456498004496,None,2231.0456498004496,None,n,0.1162714995443821,2231.0456498004496,None,0.1162714995443821,,,77Aloud,001,2022_Nov_14_1511,ProdSingRedoBetween,2021.2.3,59.99563256406808,
,,,,155,0,155,0,,,,,,,,,,,,,,,,,,,,,,2234.2784331003204,None,,,,,,,,,,,,,,,,,leader,141,156,aloud,new,null,2231.730416100472,None,2231.730416100472,None,6,1.3834293000400066,2231.730416100472,None,1.3834293000400066,2233.1693703001365,None,2233.677658700384,None,2233.677658700384,None,r,0.5802603997290134,2233.677658700384,None,0.5802603997290134,,,77Aloud,001,2022_Nov_14_1511,ProdSingRedoBetween,2021.2.3,59.99563256406808,
,,,,156,0,156,0,,,,,,,,,,,,,,,,,,,,,,2237.9151127003133,None,,,,,,,,,,,,,,,,,portion,27,157,aloud,old,yellow,2234.78306409996,None,2234.78306409996,None,3,2.2028636001050472,2234.78306409996,None,2.2028636001050472,2237.017295700498,None,2237.5318546006456,None,2237.5318546006456,None,n,0.35808540042489767,2237.5318546006456,None,0.35808540042489767,,,77Aloud,001,2022_Nov_14_1511,ProdSingRedoBetween,2021.2.3,59.99563256406808,
,,,,157,0,157,0,,,,,,,,,,,,,,,,,,,,,,2246.2735570007935,None,,,,,,,,,,,,,,,,,drove,15,158,aloud,old,yellow,2238.4187126001343,None,2238.4187126001343,None,1,7.175349399447441,2238.4187126001343,None,7.175349399447441,2245.6304918006063,None,2246.1520211007446,None,2246.1520211007446,None,n,0.09787300042808056,2246.1520211007446,None,0.09787300042808056,,,77Aloud,001,2022_Nov_14_1511,ProdSingRedoBetween,2021.2.3,59.99563256406808,
,,,,158,0,158,0,,,,,,,,,,,,,,,,,,,,,,2249.910250999965,None,,,,,,,,,,,,,,,,,waste,169,159,aloud,new,null,2246.7783698001876,None,2246.7783698001876,None,5,2.159664599224925,2246.7783698001876,None,2.159664599224925,2248.9593498008326,None,2249.4601040007547,None,2249.4601040007547,None,f,0.42178909946233034,2249.4601040007547,None,0.42178909946233034,,,77Aloud,001,2022_Nov_14_1511,ProdSingRedoBetween,2021.2.3,59.99563256406808,
,,,,159,0,159,0,,,,,,,,,,,,,,,,,,,,,,2253.6810746006668,None,,,,,,,,,,,,,,,,,alert,174,160,aloud,new,null,2250.4221424004063,None,2250.4221424004063,None,1,2.01968829985708,2250.4221424004063,None,2.01968829985708,2252.4631704008207,None,2252.9706498002633,None,2252.9706498002633,None,n,0.6871692994609475,2252.9706498002633,None,0.6871692994609475,,,77Aloud,001,2022_Nov_14_1511,ProdSingRedoBetween,2021.2.3,59.99563256406808,
,,,,160,0,160,0,,,,,,,,,,,,,,,,,,,,,,2256.934048800729,None,,,,,,,,,,,,,,,,,employment,17,161,aloud,old,yellow,2254.185114500113,None,2254.185114500113,None,6,1.6407377999275923,2254.185114500113,None,1.6407377999275923,2255.852832100354,None,2256.3836337001994,None,2256.3836337001994,None,r,0.5222554998472333,2256.3836337001994,None,0.5222554998472333,,,77Aloud,001,2022_Nov_14_1511,ProdSingRedoBetween,2021.2.3,59.99563256406808,
,,,,161,0,161,0,,,,,,,,,,,,,,,,,,,,,,2260.7776951007545,None,,,,,,,,,,,,,,,,,center,83,162,aloud,old,red,2257.4542680000886,None,2257.4542680000886,None,6,2.5555400997400284,2257.4542680000886,None,2.5555400997400284,2260.037176100537,None,2260.541099300608,None,2260.541099300608,None,r,0.21300460025668144,2260.541099300608,None,0.21300460025668144,,,77Aloud,001,2022_Nov_14_1511,ProdSingRedoBetween,2021.2.3,59.99563256406808,
,,,,162,0,162,0,,,,,,,,,,,,,,,,,,,,,,2264.62508450076,None,,,,,,,,,,,,,,,,,problem,97,163,aloud,new,null,2261.2892698999494,None,2261.2892698999494,None,3,1.8246902003884315,2261.2892698999494,None,1.8246902003884315,2263.1427260003984,None,2263.6745046004653,None,2263.6745046004653,None,f,0.9273854997009039,2263.6745046004653,None,0.9273854997009039,,,77Aloud,001,2022_Nov_14_1511,ProdSingRedoBetween,2021.2.3,59.99563256406808,
,,,,163,0,163,0,,,,,,,,,,,,,,,,,,,,,,2271.769101500511,None,,,,,,,,,,,,,,,,,mayor,134,164,aloud,new,null,2265.132989800535,None,2265.132989800535,None,6,3.316792800091207,2265.132989800535,None,3.316792800091207,2268.4789958000183,None,2268.982825900428,None,2268.982825900428,None,r,2.7629424994811416,2268.982825900428,None,2.7629424994811416,,,77Aloud,001,2022_Nov_14_1511,ProdSingRedoBetween,2021.2.3,59.99563256406808,
,,,,164,0,164,0,,,,,,,,,,,,,,,,,,,,,,2274.885492200032,None,,,,,,,,,,,,,,,,,entrance,64,165,aloud,old,red,2272.3041591001675,None,2272.3041591001675,None,6,1.5216423999518156,2272.3041591001675,None,1.5216423999518156,2273.850731000304,None,2274.362198000774,None,2274.362198000774,None,r,0.4955168003216386,2274.362198000774,None,0.4955168003216386,,,77Aloud,001,2022_Nov_14_1511,ProdSingRedoBetween,2021.2.3,59.99563256406808,
,,,,165,0,165,0,,,,,,,,,,,,,,,,,,,,,,2277.4714927002788,None,,,,,,,,,,,,,,,,,incident,165,166,aloud,new,null,2275.3888309001923,None,2275.3888309001923,None,1,1.4930038005113602,2275.3888309001923,None,1.4930038005113602,2276.9052170002833,None,2277.404562900774,None,2277.404562900774,None,n,0.03724500071257353,2277.404562900774,None,0.03724500071257353,,,77Aloud,001,2022_Nov_14_1511,ProdSingRedoBetween,2021.2.3,59.99563256406808,
,,,,166,0,166,0,,,,,,,,,,,,,,,,,,,,,,2281.5752809001133,None,,,,,,,,,,,,,,,,,mechanical,58,167,aloud,old,blue,2277.9719573007897,None,2277.9719573007897,None,6,1.4938691994175315,2277.9719573007897,None,1.4938691994175315,2279.491824400611,None,2280.012391200289,None,2280.012391200289,None,r,1.541451900266111,2280.012391200289,None,1.541451900266111,,,77Aloud,001,2022_Nov_14_1511,ProdSingRedoBetween,2021.2.3,59.99563256406808,
,,,,167,0,167,0,,,,,,,,,,,,,,,,,,,,,,2284.387469800189,None,,,,,,,,,,,,,,,,,service,25,168,aloud,old,yellow,2282.0852659000084,None,2282.0852659000084,None,1,1.5966392997652292,2282.0852659000084,None,1.5966392997652292,2283.7123535005376,None,2284.216591300443,None,2284.216591300443,None,n,0.14546249993145466,2284.216591300443,None,0.14546249993145466,,,77Aloud,001,2022_Nov_14_1511,ProdSingRedoBetween,2021.2.3,59.99563256406808,
,,,,168,0,168,0,,,,,,,,,,,,,,,,,,,,,,2286.763784300536,None,,,,,,,,,,,,,,,,,blind,179,169,aloud,new,null,2284.897959800437,None,2284.897959800437,None,1,1.2238431004807353,2284.897959800437,None,1.2238431004807353,2286.1465336000547,None,2286.649535700679,None,2286.649535700679,None,n,0.08837790042161942,2286.649535700679,None,0.08837790042161942,,,77Aloud,001,2022_Nov_14_1511,ProdSingRedoBetween,2021.2.3,59.99563256406808,
,,,,169,0,169,0,,,,,,,,,,,,,,,,,,,,,,2290.584576700814,None,,,,,,,,,,,,,,,,,background,14,170,aloud,old,yellow,2287.2730142008513,None,2287.2730142008513,None,6,1.4088252000510693,2287.2730142008513,None,1.4088252000510693,2288.700797300786,None,2289.2041163006797,None,2289.2041163006797,None,r,1.3577797003090382,2289.2041163006797,None,1.3577797003090382,,,77Aloud,001,2022_Nov_14_1511,ProdSingRedoBetween,2021.2.3,59.99563256406808,
,,,,170,0,170,0,,,,,,,,,,,,,,,,,,,,,,2293.687490200624,None,,,,,,,,,,,,,,,,,republic,21,171,aloud,old,yellow,2291.0939736003056,None,2291.0939736003056,None,6,1.9719084994867444,2291.0939736003056,None,1.9719084994867444,2293.090107800439,None,2293.604078399949,None,2293.604078399949,None,r,0.06181970052421093,2293.604078399949,None,0.06181970052421093,,,77Aloud,001,2022_Nov_14_1511,ProdSingRedoBetween,2021.2.3,59.99563256406808,
,,,,171,0,171,0,,,,,,,,,,,,,,,,,,,,,,2297.2576620001346,None,,,,,,,,,,,,,,,,,skill,40,172,aloud,old,blue,2294.198156300001,None,2294.198156300001,None,4,1.9476021006703377,2294.198156300001,None,1.9476021006703377,2296.175620900467,None,2296.6965380003676,None,2296.6965380003676,None,f,0.5374426003545523,2296.6965380003676,None,0.5374426003545523,,,77Aloud,001,2022_Nov_14_1511,ProdSingRedoBetween,2021.2.3,59.99563256406808,
,,,,172,0,172,0,,,,,,,,,,,,,,,,,,,,,,2301.495464000851,None,,,,,,,,,,,,,,,,,oxygen,81,173,aloud,old,red,2297.763723600656,None,2297.763723600656,None,2,1.8943403996527195,2297.763723600656,None,1.8943403996527195,2299.6809290004894,None,2300.194250800647,None,2300.194250800647,None,n,1.271530999802053,2300.194250800647,None,1.271530999802053,,,77Aloud,001,2022_Nov_14_1511,ProdSingRedoBetween,2021.2.3,59.99563256406808,
,,,,173,0,173,0,,,,,,,,,,,,,,,,,,,,,,2305.983149900101,None,,,,,,,,,,,,,,,,,spoke,53,174,aloud,old,blue,2302.0076461005956,None,2302.0076461005956,None,1,3.2981205005198717,2302.0076461005956,None,3.2981205005198717,2305.336566400714,None,2305.8499091006815,None,2305.8499091006815,None,n,0.1038926001638174,2305.8499091006815,None,0.1038926001638174,,,77Aloud,001,2022_Nov_14_1511,ProdSingRedoBetween,2021.2.3,59.99563256406808,
,,,,174,0,174,0,,,,,,,,,,,,,,,,,,,,,,2310.8713538004085,None,,,,,,,,,,,,,,,,,position,22,175,aloud,old,yellow,2306.4930698005483,None,2306.4930698005483,None,2,3.7327225003391504,2306.4930698005483,None,3.7327225003391504,2310.2570754000917,None,2310.7714661005884,None,2310.7714661005884,None,n,0.07842459995299578,2310.7714661005884,None,0.07842459995299578,,,77Aloud,001,2022_Nov_14_1511,ProdSingRedoBetween,2021.2.3,59.99563256406808,
,,,,175,0,175,0,,,,,,,,,,,,,,,,,,,,,,2316.6438142005354,None,,,,,,,,,,,,,,,,,force,103,176,aloud,new,null,2311.378085100092,None,2311.378085100092,None,1,4.399860200472176,2311.378085100092,None,4.399860200472176,2315.802817400545,None,2316.3100998001173,None,2316.3100998001173,None,n,0.30758100003004074,2316.3100998001173,None,0.30758100003004074,,,77Aloud,001,2022_Nov_14_1511,ProdSingRedoBetween,2021.2.3,59.99563256406808,
