StudyLoop.thisRepN,StudyLoop.thisTrialN,StudyLoop.thisN,StudyLoop.thisIndex,TestLoop.thisRepN,TestLoop.thisTrialN,TestLoop.thisN,TestLoop.thisIndex,textCondition.started,textCondition.stopped,keyCondition.keys,keyCondition.rt,keyCondition.started,keyCondition.stopped,Condition,textWelcome.started,textWelcome.stopped,keyWelcome.keys,keyWelcome.rt,keyWelcome.started,keyWelcome.stopped,textAloud.started,textAloud.stopped,textSilent.started,textSilent.stopped,textSing.started,textSing.stopped,conditional_text.started,conditional_text.stopped,textBlank500.started,textBlank500.stopped,study_word,study_num,study_order,study_type,word_color,textStudy.started,textStudy.stopped,keyStudy.keys,keyStudy.started,keyStudy.stopped,textTestInstructions.started,textTestInstructions.stopped,key_resp_3.keys,key_resp_3.rt,key_resp_3.started,key_resp_3.stopped,test_word,test_num,test_order,test_condition,old_new_test,test_word_original_color,textConf.started,textConf.stopped,textConfScale.started,textConfScale.stopped,keyConf.keys,keyConf.rt,keyConf.started,keyConf.stopped,confidence response time,textTestBlank.started,textTestBlank.stopped,textRKN.started,textRKN.stopped,textRKNScale.started,textRKNScale.stopped,keyRKN.keys,keyRKN.rt,keyRKN.started,keyRKN.stopped,rkn response time,textEnd.started,textEnd.stopped,participant,session,date,expName,psychopyVersion,frameRate,
,,,,,,,,36.89007510058582,None,c,2.0772695001214743,36.89007510058582,None,,,,,,,,,,,,,,,,,,,,,,,,,,,,,,,,,,,,,,,,,,,,,,,,,,,,,,,,,,,,,,78 sing,001,2022_Nov_15_1453,ProdSingRedoBetween,2021.2.3,59.95904806319269,
,,,,,,,,,,,,,,SingTest,39.00204570032656,None,space,445.1404527006671,39.00204570032656,None,,,,,,,,,,,,,,,,,,,,,,,,,,,,,,,,,,,,,,,,,,,,,,,,,,,,,,,78 sing,001,2022_Nov_15_1453,ProdSingRedoBetween,2021.2.3,59.95904806319269,
0,0,0,0,,,,,,,,,,,,,,,,,,39.00204570032656,None,39.00204570032656,None,39.00204570032656,None,39.00204570032656,None,486.69755710009485,None,pancakes,5,1,sing,yellow,484.6940989000723,None,None,484.6940989000723,None,,,,,,,,,,,,,,,,,,,,,,,,,,,,,,,,,,,78 sing,001,2022_Nov_15_1453,ProdSingRedoBetween,2021.2.3,59.95904806319269,
1,0,1,0,,,,,,,,,,,,,,,,,,,,,,,,,,489.1993959005922,None,relation,79,2,sing,red,487.19961670041084,None,None,487.19961670041084,None,,,,,,,,,,,,,,,,,,,,,,,,,,,,,,,,,,,78 sing,001,2022_Nov_15_1453,ProdSingRedoBetween,2021.2.3,59.95904806319269,
2,0,2,0,,,,,,,,,,,,,,,,,,,,,,,,,,491.71817840076983,None,profession,82,3,sing,red,489.7133932001889,None,None,489.7133932001889,None,,,,,,,,,,,,,,,,,,,,,,,,,,,,,,,,,,,78 sing,001,2022_Nov_15_1453,ProdSingRedoBetween,2021.2.3,59.95904806319269,
3,0,3,0,,,,,,,,,,,,,,,,,,,,,,,,,,494.57009000051767,None,quantity,53,4,sing,blue,492.9638668000698,None,None,492.9638668000698,None,,,,,,,,,,,,,,,,,,,,,,,,,,,,,,,,,,,78 sing,001,2022_Nov_15_1453,ProdSingRedoBetween,2021.2.3,59.95904806319269,
4,0,4,0,,,,,,,,,,,,,,,,,,,,,,,,,,497.0892558004707,None,community,44,5,sing,blue,495.0787392007187,None,None,495.0787392007187,None,,,,,,,,,,,,,,,,,,,,,,,,,,,,,,,,,,,78 sing,001,2022_Nov_15_1453,ProdSingRedoBetween,2021.2.3,59.95904806319269,
5,0,5,0,,,,,,,,,,,,,,,,,,,,,,,,,,499.59167640004307,None,force,18,6,sing,yellow,497.5897376006469,None,None,497.5897376006469,None,,,,,,,,,,,,,,,,,,,,,,,,,,,,,,,,,,,78 sing,001,2022_Nov_15_1453,ProdSingRedoBetween,2021.2.3,59.95904806319269,
6,0,6,0,,,,,,,,,,,,,,,,,,,,,,,,,,502.11089920066297,None,split,81,7,sing,red,500.10041940025985,None,None,500.10041940025985,None,,,,,,,,,,,,,,,,,,,,,,,,,,,,,,,,,,,78 sing,001,2022_Nov_15_1453,ProdSingRedoBetween,2021.2.3,59.95904806319269,
7,0,7,0,,,,,,,,,,,,,,,,,,,,,,,,,,504.61313480045646,None,shape,20,8,sing,yellow,502.6111416006461,None,None,502.6111416006461,None,,,,,,,,,,,,,,,,,,,,,,,,,,,,,,,,,,,78 sing,001,2022_Nov_15_1453,ProdSingRedoBetween,2021.2.3,59.95904806319269,
8,0,8,0,,,,,,,,,,,,,,,,,,,,,,,,,,507.1324463998899,None,interior,47,9,sing,blue,505.11726320069283,None,None,505.11726320069283,None,,,,,,,,,,,,,,,,,,,,,,,,,,,,,,,,,,,78 sing,001,2022_Nov_15_1453,ProdSingRedoBetween,2021.2.3,59.95904806319269,
9,0,9,0,,,,,,,,,,,,,,,,,,,,,,,,,,509.6517762001604,None,agency,6,10,sing,yellow,507.6375247007236,None,None,507.6375247007236,None,,,,,,,,,,,,,,,,,,,,,,,,,,,,,,,,,,,78 sing,001,2022_Nov_15_1453,ProdSingRedoBetween,2021.2.3,59.95904806319269,
10,0,10,0,,,,,,,,,,,,,,,,,,,,,,,,,,512.1542867999524,None,general,3,11,sing,yellow,510.1522217001766,None,None,510.1522217001766,None,,,,,,,,,,,,,,,,,,,,,,,,,,,,,,,,,,,78 sing,001,2022_Nov_15_1453,ProdSingRedoBetween,2021.2.3,59.95904806319269,
11,0,11,0,,,,,,,,,,,,,,,,,,,,,,,,,,514.6565855005756,None,symbol,75,12,sing,red,512.655976800248,None,None,512.655976800248,None,,,,,,,,,,,,,,,,,,,,,,,,,,,,,,,,,,,78 sing,001,2022_Nov_15_1453,ProdSingRedoBetween,2021.2.3,59.95904806319269,
12,0,12,0,,,,,,,,,,,,,,,,,,,,,,,,,,517.1593184005469,None,master,65,13,sing,red,515.1573268007487,None,None,515.1573268007487,None,,,,,,,,,,,,,,,,,,,,,,,,,,,,,,,,,,,78 sing,001,2022_Nov_15_1453,ProdSingRedoBetween,2021.2.3,59.95904806319269,
13,0,13,0,,,,,,,,,,,,,,,,,,,,,,,,,,519.66178580001,None,dispute,33,14,sing,blue,517.660881800577,None,None,517.660881800577,None,,,,,,,,,,,,,,,,,,,,,,,,,,,,,,,,,,,78 sing,001,2022_Nov_15_1453,ProdSingRedoBetween,2021.2.3,59.95904806319269,
14,0,14,0,,,,,,,,,,,,,,,,,,,,,,,,,,522.180922800675,None,orchestra,58,15,sing,blue,520.1716435998678,None,None,520.1716435998678,None,,,,,,,,,,,,,,,,,,,,,,,,,,,,,,,,,,,78 sing,001,2022_Nov_15_1453,ProdSingRedoBetween,2021.2.3,59.95904806319269,
15,0,15,0,,,,,,,,,,,,,,,,,,,,,,,,,,524.6833992004395,None,territory,73,16,sing,red,522.6814401000738,None,None,522.6814401000738,None,,,,,,,,,,,,,,,,,,,,,,,,,,,,,,,,,,,78 sing,001,2022_Nov_15_1453,ProdSingRedoBetween,2021.2.3,59.95904806319269,
16,0,16,0,,,,,,,,,,,,,,,,,,,,,,,,,,527.1858446002007,None,rapid,70,17,sing,red,525.1838912004605,None,None,525.1838912004605,None,,,,,,,,,,,,,,,,,,,,,,,,,,,,,,,,,,,78 sing,001,2022_Nov_15_1453,ProdSingRedoBetween,2021.2.3,59.95904806319269,
17,0,17,0,,,,,,,,,,,,,,,,,,,,,,,,,,529.7050612000749,None,figure,74,18,sing,red,527.6946131000295,None,None,527.6946131000295,None,,,,,,,,,,,,,,,,,,,,,,,,,,,,,,,,,,,78 sing,001,2022_Nov_15_1453,ProdSingRedoBetween,2021.2.3,59.95904806319269,
18,0,18,0,,,,,,,,,,,,,,,,,,,,,,,,,,532.2074394002557,None,concern,14,19,sing,yellow,530.2056071003899,None,None,530.2056071003899,None,,,,,,,,,,,,,,,,,,,,,,,,,,,,,,,,,,,78 sing,001,2022_Nov_15_1453,ProdSingRedoBetween,2021.2.3,59.95904806319269,
19,0,19,0,,,,,,,,,,,,,,,,,,,,,,,,,,534.7267263000831,None,motion,34,20,sing,blue,532.7135673006997,None,None,532.7135673006997,None,,,,,,,,,,,,,,,,,,,,,,,,,,,,,,,,,,,78 sing,001,2022_Nov_15_1453,ProdSingRedoBetween,2021.2.3,59.95904806319269,
20,0,20,0,,,,,,,,,,,,,,,,,,,,,,,,,,537.2459709001705,None,weight,49,21,sing,blue,535.230604399927,None,None,535.230604399927,None,,,,,,,,,,,,,,,,,,,,,,,,,,,,,,,,,,,78 sing,001,2022_Nov_15_1453,ProdSingRedoBetween,2021.2.3,59.95904806319269,
21,0,21,0,,,,,,,,,,,,,,,,,,,,,,,,,,539.7484714007005,None,direction,56,22,sing,blue,537.7463348004967,None,None,537.7463348004967,None,,,,,,,,,,,,,,,,,,,,,,,,,,,,,,,,,,,78 sing,001,2022_Nov_15_1453,ProdSingRedoBetween,2021.2.3,59.95904806319269,
22,0,22,0,,,,,,,,,,,,,,,,,,,,,,,,,,542.2673665005714,None,substance,59,23,sing,yellow,540.252970800735,None,None,540.252970800735,None,,,,,,,,,,,,,,,,,,,,,,,,,,,,,,,,,,,78 sing,001,2022_Nov_15_1453,ProdSingRedoBetween,2021.2.3,59.95904806319269,
23,0,23,0,,,,,,,,,,,,,,,,,,,,,,,,,,544.7699104007334,None,capital,86,24,sing,red,542.7680989000946,None,None,542.7680989000946,None,,,,,,,,,,,,,,,,,,,,,,,,,,,,,,,,,,,78 sing,001,2022_Nov_15_1453,ProdSingRedoBetween,2021.2.3,59.95904806319269,
24,0,24,0,,,,,,,,,,,,,,,,,,,,,,,,,,547.2726431004703,None,under,71,25,sing,red,545.2704167999327,None,None,545.2704167999327,None,,,,,,,,,,,,,,,,,,,,,,,,,,,,,,,,,,,78 sing,001,2022_Nov_15_1453,ProdSingRedoBetween,2021.2.3,59.95904806319269,
25,0,25,0,,,,,,,,,,,,,,,,,,,,,,,,,,549.7747870003805,None,message,19,26,sing,yellow,547.7730096001178,None,None,547.7730096001178,None,,,,,,,,,,,,,,,,,,,,,,,,,,,,,,,,,,,78 sing,001,2022_Nov_15_1453,ProdSingRedoBetween,2021.2.3,59.95904806319269,
26,0,26,0,,,,,,,,,,,,,,,,,,,,,,,,,,552.2775011006743,None,property,46,27,sing,blue,550.2753118006513,None,None,550.2753118006513,None,,,,,,,,,,,,,,,,,,,,,,,,,,,,,,,,,,,78 sing,001,2022_Nov_15_1453,ProdSingRedoBetween,2021.2.3,59.95904806319269,
27,0,27,0,,,,,,,,,,,,,,,,,,,,,,,,,,554.779879800044,None,budget,67,28,sing,red,552.7780976006761,None,None,552.7780976006761,None,,,,,,,,,,,,,,,,,,,,,,,,,,,,,,,,,,,78 sing,001,2022_Nov_15_1453,ProdSingRedoBetween,2021.2.3,59.95904806319269,
28,0,28,0,,,,,,,,,,,,,,,,,,,,,,,,,,557.2989416001365,None,education,50,29,sing,blue,555.2879747999832,None,None,555.2879747999832,None,,,,,,,,,,,,,,,,,,,,,,,,,,,,,,,,,,,78 sing,001,2022_Nov_15_1453,ProdSingRedoBetween,2021.2.3,59.95904806319269,
29,0,29,0,,,,,,,,,,,,,,,,,,,,,,,,,,559.8184321001172,None,fellow,84,30,sing,red,557.8037876999006,None,None,557.8037876999006,None,,,,,,,,,,,,,,,,,,,,,,,,,,,,,,,,,,,78 sing,001,2022_Nov_15_1453,ProdSingRedoBetween,2021.2.3,59.95904806319269,
30,0,30,0,,,,,,,,,,,,,,,,,,,,,,,,,,562.3209335999563,None,trend,89,31,sing,red,560.318923400715,None,None,560.318923400715,None,,,,,,,,,,,,,,,,,,,,,,,,,,,,,,,,,,,78 sing,001,2022_Nov_15_1453,ProdSingRedoBetween,2021.2.3,59.95904806319269,
31,0,31,0,,,,,,,,,,,,,,,,,,,,,,,,,,564.8233874998987,None,quick,88,32,sing,red,562.8221109006554,None,None,562.8221109006554,None,,,,,,,,,,,,,,,,,,,,,,,,,,,,,,,,,,,78 sing,001,2022_Nov_15_1453,ProdSingRedoBetween,2021.2.3,59.95904806319269,
32,0,32,0,,,,,,,,,,,,,,,,,,,,,,,,,,567.3259034007788,None,staff,4,33,sing,yellow,565.3248465005308,None,None,565.3248465005308,None,,,,,,,,,,,,,,,,,,,,,,,,,,,,,,,,,,,78 sing,001,2022_Nov_15_1453,ProdSingRedoBetween,2021.2.3,59.95904806319269,
33,0,33,0,,,,,,,,,,,,,,,,,,,,,,,,,,569.844849199988,None,foundation,69,34,sing,red,567.8299845000729,None,None,567.8299845000729,None,,,,,,,,,,,,,,,,,,,,,,,,,,,,,,,,,,,78 sing,001,2022_Nov_15_1453,ProdSingRedoBetween,2021.2.3,59.95904806319269,
34,0,34,0,,,,,,,,,,,,,,,,,,,,,,,,,,572.3642988000065,None,country,26,35,sing,yellow,570.348995000124,None,None,570.348995000124,None,,,,,,,,,,,,,,,,,,,,,,,,,,,,,,,,,,,78 sing,001,2022_Nov_15_1453,ProdSingRedoBetween,2021.2.3,59.95904806319269,
35,0,35,0,,,,,,,,,,,,,,,,,,,,,,,,,,574.8668677005917,None,quarter,17,36,sing,yellow,572.8644914999604,None,None,572.8644914999604,None,,,,,,,,,,,,,,,,,,,,,,,,,,,,,,,,,,,78 sing,001,2022_Nov_15_1453,ProdSingRedoBetween,2021.2.3,59.95904806319269,
36,0,36,0,,,,,,,,,,,,,,,,,,,,,,,,,,577.3693071007729,None,degree,51,37,sing,blue,575.367023400031,None,None,575.367023400031,None,,,,,,,,,,,,,,,,,,,,,,,,,,,,,,,,,,,78 sing,001,2022_Nov_15_1453,ProdSingRedoBetween,2021.2.3,59.95904806319269,
37,0,37,0,,,,,,,,,,,,,,,,,,,,,,,,,,579.8715209001675,None,household,45,38,sing,blue,577.87229700014,None,None,577.87229700014,None,,,,,,,,,,,,,,,,,,,,,,,,,,,,,,,,,,,78 sing,001,2022_Nov_15_1453,ProdSingRedoBetween,2021.2.3,59.95904806319269,
38,0,38,0,,,,,,,,,,,,,,,,,,,,,,,,,,582.3740822998807,None,sunset,10,39,sing,yellow,580.3742007007822,None,None,580.3742007007822,None,,,,,,,,,,,,,,,,,,,,,,,,,,,,,,,,,,,78 sing,001,2022_Nov_15_1453,ProdSingRedoBetween,2021.2.3,59.95904806319269,
39,0,39,0,,,,,,,,,,,,,,,,,,,,,,,,,,584.8766123000532,None,opening,48,40,sing,blue,582.877716800198,None,None,582.877716800198,None,,,,,,,,,,,,,,,,,,,,,,,,,,,,,,,,,,,78 sing,001,2022_Nov_15_1453,ProdSingRedoBetween,2021.2.3,59.95904806319269,
40,0,40,0,,,,,,,,,,,,,,,,,,,,,,,,,,587.3961161999032,None,finance,60,41,sing,red,585.3810927001759,None,None,585.3810927001759,None,,,,,,,,,,,,,,,,,,,,,,,,,,,,,,,,,,,78 sing,001,2022_Nov_15_1453,ProdSingRedoBetween,2021.2.3,59.95904806319269,
41,0,41,0,,,,,,,,,,,,,,,,,,,,,,,,,,589.9151599006727,None,drove,72,42,sing,red,587.9034734005108,None,None,587.9034734005108,None,,,,,,,,,,,,,,,,,,,,,,,,,,,,,,,,,,,78 sing,001,2022_Nov_15_1453,ProdSingRedoBetween,2021.2.3,59.95904806319269,
42,0,42,0,,,,,,,,,,,,,,,,,,,,,,,,,,592.4176698001102,None,management,39,43,sing,blue,590.4157354999334,None,None,590.4157354999334,None,,,,,,,,,,,,,,,,,,,,,,,,,,,,,,,,,,,78 sing,001,2022_Nov_15_1453,ProdSingRedoBetween,2021.2.3,59.95904806319269,
43,0,43,0,,,,,,,,,,,,,,,,,,,,,,,,,,594.9367756005377,None,appeal,37,44,sing,blue,592.9215662004426,None,None,592.9215662004426,None,,,,,,,,,,,,,,,,,,,,,,,,,,,,,,,,,,,78 sing,001,2022_Nov_15_1453,ProdSingRedoBetween,2021.2.3,59.95904806319269,
44,0,44,0,,,,,,,,,,,,,,,,,,,,,,,,,,597.4392623007298,None,citizen,12,45,sing,yellow,595.4371301000938,None,None,595.4371301000938,None,,,,,,,,,,,,,,,,,,,,,,,,,,,,,,,,,,,78 sing,001,2022_Nov_15_1453,ProdSingRedoBetween,2021.2.3,59.95904806319269,
45,0,45,0,,,,,,,,,,,,,,,,,,,,,,,,,,599.9417964005843,None,close,8,46,sing,yellow,597.9398011006415,None,None,597.9398011006415,None,,,,,,,,,,,,,,,,,,,,,,,,,,,,,,,,,,,78 sing,001,2022_Nov_15_1453,ProdSingRedoBetween,2021.2.3,59.95904806319269,
46,0,46,0,,,,,,,,,,,,,,,,,,,,,,,,,,602.4610149003565,None,problem,11,47,sing,yellow,600.4474482005462,None,None,600.4474482005462,None,,,,,,,,,,,,,,,,,,,,,,,,,,,,,,,,,,,78 sing,001,2022_Nov_15_1453,ProdSingRedoBetween,2021.2.3,59.95904806319269,
47,0,47,0,,,,,,,,,,,,,,,,,,,,,,,,,,604.9801620002836,None,mankind,76,48,sing,red,602.9698060005903,None,None,602.9698060005903,None,,,,,,,,,,,,,,,,,,,,,,,,,,,,,,,,,,,78 sing,001,2022_Nov_15_1453,ProdSingRedoBetween,2021.2.3,59.95904806319269,
48,0,48,0,,,,,,,,,,,,,,,,,,,,,,,,,,607.4826436005533,None,vision,2,49,sing,yellow,605.4804345006123,None,None,605.4804345006123,None,,,,,,,,,,,,,,,,,,,,,,,,,,,,,,,,,,,78 sing,001,2022_Nov_15_1453,ProdSingRedoBetween,2021.2.3,59.95904806319269,
49,0,49,0,,,,,,,,,,,,,,,,,,,,,,,,,,609.9852034999058,None,population,68,50,sing,red,607.9844140000641,None,None,607.9844140000641,None,,,,,,,,,,,,,,,,,,,,,,,,,,,,,,,,,,,78 sing,001,2022_Nov_15_1453,ProdSingRedoBetween,2021.2.3,59.95904806319269,
50,0,50,0,,,,,,,,,,,,,,,,,,,,,,,,,,612.5043454999104,None,majority,28,51,sing,yellow,610.4902253001928,None,None,610.4902253001928,None,,,,,,,,,,,,,,,,,,,,,,,,,,,,,,,,,,,78 sing,001,2022_Nov_15_1453,ProdSingRedoBetween,2021.2.3,59.95904806319269,
51,0,51,0,,,,,,,,,,,,,,,,,,,,,,,,,,615.0068634003401,None,people,15,52,sing,yellow,613.0055341003463,None,None,613.0055341003463,None,,,,,,,,,,,,,,,,,,,,,,,,,,,,,,,,,,,78 sing,001,2022_Nov_15_1453,ProdSingRedoBetween,2021.2.3,59.95904806319269,
52,0,52,0,,,,,,,,,,,,,,,,,,,,,,,,,,617.5092719001696,None,career,83,53,sing,red,615.5085122007877,None,None,615.5085122007877,None,,,,,,,,,,,,,,,,,,,,,,,,,,,,,,,,,,,78 sing,001,2022_Nov_15_1453,ProdSingRedoBetween,2021.2.3,59.95904806319269,
53,0,53,0,,,,,,,,,,,,,,,,,,,,,,,,,,620.0118362000212,None,graduate,32,54,sing,blue,618.0098155001178,None,None,618.0098155001178,None,,,,,,,,,,,,,,,,,,,,,,,,,,,,,,,,,,,78 sing,001,2022_Nov_15_1453,ProdSingRedoBetween,2021.2.3,59.95904806319269,
54,0,54,0,,,,,,,,,,,,,,,,,,,,,,,,,,622.5142751000822,None,murder,87,55,sing,red,620.5146209001541,None,None,620.5146209001541,None,,,,,,,,,,,,,,,,,,,,,,,,,,,,,,,,,,,78 sing,001,2022_Nov_15_1453,ProdSingRedoBetween,2021.2.3,59.95904806319269,
55,0,55,0,,,,,,,,,,,,,,,,,,,,,,,,,,625.0168665004894,None,little,30,56,sing,blue,623.0145741999149,None,None,623.0145741999149,None,,,,,,,,,,,,,,,,,,,,,,,,,,,,,,,,,,,78 sing,001,2022_Nov_15_1453,ProdSingRedoBetween,2021.2.3,59.95904806319269,
56,0,56,0,,,,,,,,,,,,,,,,,,,,,,,,,,627.5193095998839,None,narrow,43,57,sing,blue,625.519277700223,None,None,625.519277700223,None,,,,,,,,,,,,,,,,,,,,,,,,,,,,,,,,,,,78 sing,001,2022_Nov_15_1453,ProdSingRedoBetween,2021.2.3,59.95904806319269,
57,0,57,0,,,,,,,,,,,,,,,,,,,,,,,,,,630.0385638000444,None,reach,25,58,sing,yellow,628.0260232007131,None,None,628.0260232007131,None,,,,,,,,,,,,,,,,,,,,,,,,,,,,,,,,,,,78 sing,001,2022_Nov_15_1453,ProdSingRedoBetween,2021.2.3,59.95904806319269,
58,0,58,0,,,,,,,,,,,,,,,,,,,,,,,,,,632.5575350001454,None,reading,7,59,sing,yellow,630.5425394000486,None,None,630.5425394000486,None,,,,,,,,,,,,,,,,,,,,,,,,,,,,,,,,,,,78 sing,001,2022_Nov_15_1453,ProdSingRedoBetween,2021.2.3,59.95904806319269,
59,0,59,0,,,,,,,,,,,,,,,,,,,,,,,,,,635.0602067001164,None,pretty,57,60,sing,blue,633.0581641001627,None,None,633.0581641001627,None,,,,,,,,,,,,,,,,,,,,,,,,,,,,,,,,,,,78 sing,001,2022_Nov_15_1453,ProdSingRedoBetween,2021.2.3,59.95904806319269,
60,0,60,0,,,,,,,,,,,,,,,,,,,,,,,,,,637.562674799934,None,fight,0,61,sing,yellow,635.560341800563,None,None,635.560341800563,None,,,,,,,,,,,,,,,,,,,,,,,,,,,,,,,,,,,78 sing,001,2022_Nov_15_1453,ProdSingRedoBetween,2021.2.3,59.95904806319269,
61,0,61,0,,,,,,,,,,,,,,,,,,,,,,,,,,640.0818886999041,None,defeat,27,62,sing,yellow,638.0698680998757,None,None,638.0698680998757,None,,,,,,,,,,,,,,,,,,,,,,,,,,,,,,,,,,,78 sing,001,2022_Nov_15_1453,ProdSingRedoBetween,2021.2.3,59.95904806319269,
62,0,62,0,,,,,,,,,,,,,,,,,,,,,,,,,,642.5843293005601,None,congress,66,63,sing,red,640.5851646000519,None,None,640.5851646000519,None,,,,,,,,,,,,,,,,,,,,,,,,,,,,,,,,,,,78 sing,001,2022_Nov_15_1453,ProdSingRedoBetween,2021.2.3,59.95904806319269,
63,0,63,0,,,,,,,,,,,,,,,,,,,,,,,,,,645.0868604006246,None,impact,21,64,sing,yellow,643.0873237000778,None,None,643.0873237000778,None,,,,,,,,,,,,,,,,,,,,,,,,,,,,,,,,,,,78 sing,001,2022_Nov_15_1453,ProdSingRedoBetween,2021.2.3,59.95904806319269,
64,0,64,0,,,,,,,,,,,,,,,,,,,,,,,,,,647.589351400733,None,piece,40,65,sing,blue,645.5872901007533,None,None,645.5872901007533,None,,,,,,,,,,,,,,,,,,,,,,,,,,,,,,,,,,,78 sing,001,2022_Nov_15_1453,ProdSingRedoBetween,2021.2.3,59.95904806319269,
65,0,65,0,,,,,,,,,,,,,,,,,,,,,,,,,,650.091917800717,None,strength,85,66,sing,red,648.0898132007569,None,None,648.0898132007569,None,,,,,,,,,,,,,,,,,,,,,,,,,,,,,,,,,,,78 sing,001,2022_Nov_15_1453,ProdSingRedoBetween,2021.2.3,59.95904806319269,
66,0,66,0,,,,,,,,,,,,,,,,,,,,,,,,,,652.610755099915,None,pattern,38,67,sing,blue,650.5957919005305,None,None,650.5957919005305,None,,,,,,,,,,,,,,,,,,,,,,,,,,,,,,,,,,,78 sing,001,2022_Nov_15_1453,ProdSingRedoBetween,2021.2.3,59.95904806319269,
67,0,67,0,,,,,,,,,,,,,,,,,,,,,,,,,,655.1135519007221,None,dozen,62,68,sing,red,653.1123311007395,None,None,653.1123311007395,None,,,,,,,,,,,,,,,,,,,,,,,,,,,,,,,,,,,78 sing,001,2022_Nov_15_1453,ProdSingRedoBetween,2021.2.3,59.95904806319269,
68,0,68,0,,,,,,,,,,,,,,,,,,,,,,,,,,657.6327050002292,None,plane,24,69,sing,yellow,655.6185087002814,None,None,655.6185087002814,None,,,,,,,,,,,,,,,,,,,,,,,,,,,,,,,,,,,78 sing,001,2022_Nov_15_1453,ProdSingRedoBetween,2021.2.3,59.95904806319269,
69,0,69,0,,,,,,,,,,,,,,,,,,,,,,,,,,660.1352166999131,None,universal,78,70,sing,red,658.1353911999613,None,None,658.1353911999613,None,,,,,,,,,,,,,,,,,,,,,,,,,,,,,,,,,,,78 sing,001,2022_Nov_15_1453,ProdSingRedoBetween,2021.2.3,59.95904806319269,
70,0,70,0,,,,,,,,,,,,,,,,,,,,,,,,,,662.6543364999816,None,breath,55,71,sing,blue,660.6387793999165,None,None,660.6387793999165,None,,,,,,,,,,,,,,,,,,,,,,,,,,,,,,,,,,,78 sing,001,2022_Nov_15_1453,ProdSingRedoBetween,2021.2.3,59.95904806319269,
71,0,71,0,,,,,,,,,,,,,,,,,,,,,,,,,,665.1569907004014,None,enemy,42,72,sing,blue,663.1546408003196,None,None,663.1546408003196,None,,,,,,,,,,,,,,,,,,,,,,,,,,,,,,,,,,,78 sing,001,2022_Nov_15_1453,ProdSingRedoBetween,2021.2.3,59.95904806319269,
72,0,72,0,,,,,,,,,,,,,,,,,,,,,,,,,,667.6593631003052,None,mayor,54,73,sing,blue,665.6570291006938,None,None,665.6570291006938,None,,,,,,,,,,,,,,,,,,,,,,,,,,,,,,,,,,,78 sing,001,2022_Nov_15_1453,ProdSingRedoBetween,2021.2.3,59.95904806319269,
73,0,73,0,,,,,,,,,,,,,,,,,,,,,,,,,,670.1618520999327,None,course,13,74,sing,yellow,668.1609741998836,None,None,668.1609741998836,None,,,,,,,,,,,,,,,,,,,,,,,,,,,,,,,,,,,78 sing,001,2022_Nov_15_1453,ProdSingRedoBetween,2021.2.3,59.95904806319269,
74,0,74,0,,,,,,,,,,,,,,,,,,,,,,,,,,672.6810774002224,None,burden,36,75,sing,blue,670.6660813000053,None,None,670.6660813000053,None,,,,,,,,,,,,,,,,,,,,,,,,,,,,,,,,,,,78 sing,001,2022_Nov_15_1453,ProdSingRedoBetween,2021.2.3,59.95904806319269,
75,0,75,0,,,,,,,,,,,,,,,,,,,,,,,,,,675.1831654999405,None,religion,9,76,sing,yellow,673.1827767007053,None,None,673.1827767007053,None,,,,,,,,,,,,,,,,,,,,,,,,,,,,,,,,,,,78 sing,001,2022_Nov_15_1453,ProdSingRedoBetween,2021.2.3,59.95904806319269,
76,0,76,0,,,,,,,,,,,,,,,,,,,,,,,,,,677.7027145000175,None,leader,41,77,sing,blue,675.6883497005329,None,None,675.6883497005329,None,,,,,,,,,,,,,,,,,,,,,,,,,,,,,,,,,,,78 sing,001,2022_Nov_15_1453,ProdSingRedoBetween,2021.2.3,59.95904806319269,
77,0,77,0,,,,,,,,,,,,,,,,,,,,,,,,,,680.2051248000935,None,south,31,78,sing,blue,678.2040213001892,None,None,678.2040213001892,None,,,,,,,,,,,,,,,,,,,,,,,,,,,,,,,,,,,78 sing,001,2022_Nov_15_1453,ProdSingRedoBetween,2021.2.3,59.95904806319269,
78,0,78,0,,,,,,,,,,,,,,,,,,,,,,,,,,682.7243909006938,None,portion,77,79,sing,red,680.7161375004798,None,None,680.7161375004798,None,,,,,,,,,,,,,,,,,,,,,,,,,,,,,,,,,,,78 sing,001,2022_Nov_15_1453,ProdSingRedoBetween,2021.2.3,59.95904806319269,
79,0,79,0,,,,,,,,,,,,,,,,,,,,,,,,,,685.2435246007517,None,resistance,63,80,sing,red,683.2296975003555,None,None,683.2296975003555,None,,,,,,,,,,,,,,,,,,,,,,,,,,,,,,,,,,,78 sing,001,2022_Nov_15_1453,ProdSingRedoBetween,2021.2.3,59.95904806319269,
80,0,80,0,,,,,,,,,,,,,,,,,,,,,,,,,,687.7627448001876,None,discovery,52,81,sing,blue,685.75589590054,None,None,685.75589590054,None,,,,,,,,,,,,,,,,,,,,,,,,,,,,,,,,,,,78 sing,001,2022_Nov_15_1453,ProdSingRedoBetween,2021.2.3,59.95904806319269,
81,0,81,0,,,,,,,,,,,,,,,,,,,,,,,,,,690.2652412001044,None,answer,80,82,sing,red,688.2652544006705,None,None,688.2652544006705,None,,,,,,,,,,,,,,,,,,,,,,,,,,,,,,,,,,,78 sing,001,2022_Nov_15_1453,ProdSingRedoBetween,2021.2.3,59.95904806319269,
82,0,82,0,,,,,,,,,,,,,,,,,,,,,,,,,,692.7677388004959,None,death,61,83,sing,red,690.7657202007249,None,None,690.7657202007249,None,,,,,,,,,,,,,,,,,,,,,,,,,,,,,,,,,,,78 sing,001,2022_Nov_15_1453,ProdSingRedoBetween,2021.2.3,59.95904806319269,
83,0,83,0,,,,,,,,,,,,,,,,,,,,,,,,,,695.2698774002492,None,owner,23,84,sing,yellow,693.2682425007224,None,None,693.2682425007224,None,,,,,,,,,,,,,,,,,,,,,,,,,,,,,,,,,,,78 sing,001,2022_Nov_15_1453,ProdSingRedoBetween,2021.2.3,59.95904806319269,
84,0,84,0,,,,,,,,,,,,,,,,,,,,,,,,,,697.7728173006326,None,broad,29,85,sing,blue,695.7705049999058,None,None,695.7705049999058,None,,,,,,,,,,,,,,,,,,,,,,,,,,,,,,,,,,,78 sing,001,2022_Nov_15_1453,ProdSingRedoBetween,2021.2.3,59.95904806319269,
85,0,85,0,,,,,,,,,,,,,,,,,,,,,,,,,,700.2918819999322,None,place,35,86,sing,blue,698.2790569001809,None,None,698.2790569001809,None,,,,,,,,,,,,,,,,,,,,,,,,,,,,,,,,,,,78 sing,001,2022_Nov_15_1453,ProdSingRedoBetween,2021.2.3,59.95904806319269,
86,0,86,0,,,,,,,,,,,,,,,,,,,,,,,,,,702.7942788004875,None,dream,64,87,sing,red,700.7921021003276,None,None,700.7921021003276,None,,,,,,,,,,,,,,,,,,,,,,,,,,,,,,,,,,,78 sing,001,2022_Nov_15_1453,ProdSingRedoBetween,2021.2.3,59.95904806319269,
87,0,87,0,,,,,,,,,,,,,,,,,,,,,,,,,,705.3135041007772,None,guide,22,88,sing,yellow,703.3008211003616,None,None,703.3008211003616,None,,,,,,,,,,,,,,,,,,,,,,,,,,,,,,,,,,,78 sing,001,2022_Nov_15_1453,ProdSingRedoBetween,2021.2.3,59.95904806319269,
88,0,88,0,,,,,,,,,,,,,,,,,,,,,,,,,,707.8160508004948,None,turkey,1,89,sing,yellow,705.814057700336,None,None,705.814057700336,None,,,,,,,,,,,,,,,,,,,,,,,,,,,,,,,,,,,78 sing,001,2022_Nov_15_1453,ProdSingRedoBetween,2021.2.3,59.95904806319269,
89,0,89,0,,,,,,,,,,,,,,,,,,,,,,,,,,710.3185874000192,None,captain,16,90,sing,yellow,708.3182613002136,None,None,708.3182613002136,None,,,,,,,,,,,,,,,,,,,,,,,,,,,,,,,,,,,78 sing,001,2022_Nov_15_1453,ProdSingRedoBetween,2021.2.3,59.95904806319269,
,,,,,,,,,,,,,,,,,,,,,,,,,,,,,,,,,,,,,,,,,710.8192332005128,None,k,215.94662369973958,710.8192332005128,None,,,,,,,,,,,,,,,,,,,,,,,,,,,,,78 sing,001,2022_Nov_15_1453,ProdSingRedoBetween,2021.2.3,59.95904806319269,
,,,,0,0,0,0,,,,,,,,,,,,,,,,,,,,,,953.4109306000173,None,,,,,,,,,,,,,,,,,evidence,162,1,sing,new,null,927.3073190003633,None,927.3073190003633,None,6,20.834386599250138,927.3073190003633,None,20.834386599250138,948.1744460007176,None,948.6896707005799,None,948.6896707005799,None,r,4.692065899260342,948.6896707005799,None,4.692065899260342,,,78 sing,001,2022_Nov_15_1453,ProdSingRedoBetween,2021.2.3,59.95904806319269,
,,,,1,0,1,0,,,,,,,,,,,,,,,,,,,,,,960.3679480003193,None,,,,,,,,,,,,,,,,,impact,21,2,sing,old,yellow,953.922588900663,None,953.922588900663,None,6,4.58712019957602,953.922588900663,None,4.58712019957602,958.5343443006277,None,959.0333291999996,None,959.0333291999996,None,r,1.3162706000730395,959.0333291999996,None,1.3162706000730395,,,78 sing,001,2022_Nov_15_1453,ProdSingRedoBetween,2021.2.3,59.95904806319269,
,,,,2,0,2,0,,,,,,,,,,,,,,,,,,,,,,964.9557958999649,None,,,,,,,,,,,,,,,,,author,151,3,sing,new,null,960.8748797001317,None,960.8748797001317,None,5,2.842811499722302,960.8748797001317,None,2.842811499722302,963.7379253003746,None,964.2425407003611,None,964.2425407003611,None,r,0.6831509005278349,964.2425407003611,None,0.6831509005278349,,,78 sing,001,2022_Nov_15_1453,ProdSingRedoBetween,2021.2.3,59.95904806319269,
,,,,3,0,3,0,,,,,,,,,,,,,,,,,,,,,,969.5771278999746,None,,,,,,,,,,,,,,,,,force,18,4,sing,old,yellow,965.4593891007826,None,965.4593891007826,None,6,2.858285100199282,965.4593891007826,None,2.858285100199282,968.3437555003911,None,968.8477952005342,None,968.8477952005342,None,r,0.7018822999671102,968.8477952005342,None,0.7018822999671102,,,78 sing,001,2022_Nov_15_1453,ProdSingRedoBetween,2021.2.3,59.95904806319269,
,,,,4,0,4,0,,,,,,,,,,,,,,,,,,,,,,973.2474316004664,None,,,,,,,,,,,,,,,,,portion,77,5,sing,old,red,970.078098400496,None,970.078098400496,None,5,1.943528300151229,970.078098400496,None,1.943528300151229,972.0497228000313,None,972.5708768004552,None,972.5708768004552,None,r,0.6509327003732324,972.5708768004552,None,0.6509327003732324,,,78 sing,001,2022_Nov_15_1453,ProdSingRedoBetween,2021.2.3,59.95904806319269,
,,,,5,0,5,0,,,,,,,,,,,,,,,,,,,,,,977.3348687002435,None,,,,,,,,,,,,,,,,,profession,82,6,sing,old,red,973.7568260999396,None,973.7568260999396,None,4,2.2409059004858136,973.7568260999396,None,2.2409059004858136,976.0247658006847,None,976.5342169003561,None,976.5342169003561,None,r,0.7834058003500104,976.5342169003561,None,0.7834058003500104,,,78 sing,001,2022_Nov_15_1453,ProdSingRedoBetween,2021.2.3,59.95904806319269,
,,,,6,0,6,0,,,,,,,,,,,,,,,,,,,,,,981.0385229000822,None,,,,,,,,,,,,,,,,,majority,28,7,sing,old,yellow,977.8397170007229,None,977.8397170007229,None,4,2.013909099623561,977.8397170007229,None,2.013909099623561,979.8748711002991,None,980.3879722999409,None,980.3879722999409,None,r,0.6257001999765635,980.3879722999409,None,0.6257001999765635,,,78 sing,001,2022_Nov_15_1453,ProdSingRedoBetween,2021.2.3,59.95904806319269,
,,,,7,0,7,0,,,,,,,,,,,,,,,,,,,,,,985.4094698000699,None,,,,,,,,,,,,,,,,,cross,152,8,sing,new,null,981.549693800509,None,981.549693800509,None,3,2.3200162993744016,981.549693800509,None,2.3200162993744016,983.8975691003725,None,984.4083557007834,None,984.4083557007834,None,r,0.9813608005642891,984.4083557007834,None,0.9813608005642891,,,78 sing,001,2022_Nov_15_1453,ProdSingRedoBetween,2021.2.3,59.95904806319269,
,,,,8,0,8,0,,,,,,,,,,,,,,,,,,,,,,989.1318533001468,None,,,,,,,,,,,,,,,,,employment,93,9,sing,new,null,985.9102101000026,None,985.9102101000026,None,4,2.0234670992940664,985.9102101000026,None,2.0234670992940664,987.9621341004968,None,988.4624658999965,None,988.4624658999965,None,r,0.6474202005192637,988.4624658999965,None,0.6474202005192637,,,78 sing,001,2022_Nov_15_1453,ProdSingRedoBetween,2021.2.3,59.95904806319269,
,,,,9,0,9,0,,,,,,,,,,,,,,,,,,,,,,994.5853689005598,None,,,,,,,,,,,,,,,,,interior,47,10,sing,old,blue,989.6519631007686,None,989.6519631007686,None,6,3.6736957002431154,989.6519631007686,None,3.6736957002431154,993.3559715002775,None,993.8728016000241,None,993.8728016000241,None,r,0.6847919998690486,993.8728016000241,None,0.6847919998690486,,,78 sing,001,2022_Nov_15_1453,ProdSingRedoBetween,2021.2.3,59.95904806319269,
,,,,10,0,10,0,,,,,,,,,,,,,,,,,,,,,,997.9887731000781,None,,,,,,,,,,,,,,,,,narrow,43,11,sing,old,blue,995.0935893002898,None,995.0935893002898,None,6,1.7600466003641486,995.0935893002898,None,1.7600466003641486,996.873833800666,None,997.3882559007034,None,997.3882559007034,None,r,0.5694307005032897,997.3882559007034,None,0.5694307005032897,,,78 sing,001,2022_Nov_15_1453,ProdSingRedoBetween,2021.2.3,59.95904806319269,
,,,,11,0,11,0,,,,,,,,,,,,,,,,,,,,,,1001.308773400262,None,,,,,,,,,,,,,,,,,population,68,12,sing,old,red,998.4891883004457,None,998.4891883004457,None,5,2.0043435003608465,998.4891883004457,None,2.0043435003608465,1000.5308496998623,None,1001.049012100324,None,1001.049012100324,None,r,0.23664250038564205,1001.049012100324,None,0.23664250038564205,,,78 sing,001,2022_Nov_15_1453,ProdSingRedoBetween,2021.2.3,59.95904806319269,
,,,,12,0,12,0,,,,,,,,,,,,,,,,,,,,,,1004.7137632006779,None,,,,,,,,,,,,,,,,,burden,36,13,sing,old,blue,1001.8093541003764,None,1001.8093541003764,None,6,1.8362888004630804,1001.8093541003764,None,1.8362888004630804,1003.6622291002423,None,1004.1619555000216,None,1004.1619555000216,None,r,0.5316968001425266,1004.1619555000216,None,0.5316968001425266,,,78 sing,001,2022_Nov_15_1453,ProdSingRedoBetween,2021.2.3,59.95904806319269,
,,,,13,0,13,0,,,,,,,,,,,,,,,,,,,,,,1008.1654846007004,None,,,,,,,,,,,,,,,,,provision,130,14,sing,new,null,1005.2391584999859,None,1005.2391584999859,None,3,1.7824493004009128,1005.2391584999859,None,1.7824493004009128,1007.0529582006857,None,1007.5650337003171,None,1007.5650337003171,None,r,0.5845405999571085,1007.5650337003171,None,0.5845405999571085,,,78 sing,001,2022_Nov_15_1453,ProdSingRedoBetween,2021.2.3,59.95904806319269,
,,,,14,0,14,0,,,,,,,,,,,,,,,,,,,,,,1011.6521681006998,None,,,,,,,,,,,,,,,,,couch,134,15,sing,new,null,1008.6726269004866,None,1008.6726269004866,None,4,1.7569045005366206,1008.6726269004866,None,1.7569045005366206,1010.4511565007269,None,1010.9594932002947,None,1010.9594932002947,None,r,0.6621725996956229,1010.9594932002947,None,0.6621725996956229,,,78 sing,001,2022_Nov_15_1453,ProdSingRedoBetween,2021.2.3,59.95904806319269,
,,,,15,0,15,0,,,,,,,,,,,,,,,,,,,,,,1014.6387835005298,None,,,,,,,,,,,,,,,,,citizen,12,16,sing,old,yellow,1012.1547790002078,None,1012.1547790002078,None,5,1.626872799359262,1012.1547790002078,None,1.626872799359262,1013.8080638004467,None,1014.3228895999491,None,1014.3228895999491,None,r,0.29074820037931204,1014.3228895999491,None,0.29074820037931204,,,78 sing,001,2022_Nov_15_1453,ProdSingRedoBetween,2021.2.3,59.95904806319269,
,,,,16,0,16,0,,,,,,,,,,,,,,,,,,,,,,1017.6915834005922,None,,,,,,,,,,,,,,,,,discussion,143,17,sing,new,null,1015.140750400722,None,1015.140750400722,None,3,1.4168312000110745,1015.140750400722,None,1.4168312000110745,1016.5759789003059,None,1017.0940068000928,None,1017.0940068000928,None,r,0.5676051005721092,1017.0940068000928,None,0.5676051005721092,,,78 sing,001,2022_Nov_15_1453,ProdSingRedoBetween,2021.2.3,59.95904806319269,
,,,,17,0,17,0,,,,,,,,,,,,,,,,,,,,,,1020.7781171007082,None,,,,,,,,,,,,,,,,,music,149,18,sing,new,null,1018.1995656006038,None,1018.1995656006038,None,2,1.4060233002528548,1018.1995656006038,None,1.4060233002528548,1019.6287550004199,None,1020.1442779004574,None,1020.1442779004574,None,r,0.6133393002673984,1020.1442779004574,None,0.6133393002673984,,,78 sing,001,2022_Nov_15_1453,ProdSingRedoBetween,2021.2.3,59.95904806319269,
,,,,18,0,18,0,,,,,,,,,,,,,,,,,,,,,,1024.1848003007472,None,,,,,,,,,,,,,,,,,store,172,19,sing,new,null,1021.2850182000548,None,1021.2850182000548,None,1,1.6167422998696566,1021.2850182000548,None,1.6167422998696566,1022.936503900215,None,1023.44751060009,None,1023.44751060009,None,r,0.7101039001718163,1023.44751060009,None,0.7101039001718163,,,78 sing,001,2022_Nov_15_1453,ProdSingRedoBetween,2021.2.3,59.95904806319269,
,,,,19,0,19,0,,,,,,,,,,,,,,,,,,,,,,1027.1011375999078,None,,,,,,,,,,,,,,,,,notice,110,20,sing,new,null,1024.7042821003124,None,1024.7042821003124,None,2,1.3252272000536323,1024.7042821003124,None,1.3252272000536323,1026.0510028004646,None,1026.5507299005985,None,1026.5507299005985,None,r,0.5268540997058153,1026.5507299005985,None,0.5268540997058153,,,78 sing,001,2022_Nov_15_1453,ProdSingRedoBetween,2021.2.3,59.95904806319269,
,,,,20,0,20,0,,,,,,,,,,,,,,,,,,,,,,1029.8563662003726,None,,,,,,,,,,,,,,,,,comfort,128,21,sing,new,null,1027.6052550999448,None,1027.6052550999448,None,4,1.4002740997821093,1027.6052550999448,None,1.4002740997821093,1029.0378708001226,None,1029.5450747003779,None,1029.5450747003779,None,r,0.2927002999931574,1029.5450747003779,None,0.2927002999931574,,,78 sing,001,2022_Nov_15_1453,ProdSingRedoBetween,2021.2.3,59.95904806319269,
,,,,21,0,21,0,,,,,,,,,,,,,,,,,,,,,,1032.8568473001942,None,,,,,,,,,,,,,,,,,community,44,22,sing,old,blue,1030.3770570000634,None,1030.3770570000634,None,6,1.43654889985919,1030.3770570000634,None,1.43654889985919,1031.8408283004537,None,1032.3504774002358,None,1032.3504774002358,None,r,0.479075999930501,1032.3504774002358,None,0.479075999930501,,,78 sing,001,2022_Nov_15_1453,ProdSingRedoBetween,2021.2.3,59.95904806319269,
,,,,22,0,22,0,,,,,,,,,,,,,,,,,,,,,,1035.5428325003013,None,,,,,,,,,,,,,,,,,council,105,23,sing,new,null,1033.3710649004206,None,1033.3710649004206,None,3,1.3704684004187584,1033.3710649004206,None,1.3704684004187584,1034.7585182003677,None,1035.263648699969,None,1035.263648699969,None,r,0.25394400022923946,1035.263648699969,None,0.25394400022923946,,,78 sing,001,2022_Nov_15_1453,ProdSingRedoBetween,2021.2.3,59.95904806319269,
,,,,23,0,23,0,,,,,,,,,,,,,,,,,,,,,,1038.3456707000732,None,,,,,,,,,,,,,,,,,breath,55,24,sing,old,blue,1036.0533210001886,None,1036.0533210001886,None,6,1.4802374001592398,1036.0533210001886,None,1.4802374001592398,1037.562977200374,None,1038.068560000509,None,1038.068560000509,None,r,0.24901240039616823,1038.068560000509,None,0.24901240039616823,,,78 sing,001,2022_Nov_15_1453,ProdSingRedoBetween,2021.2.3,59.95904806319269,
,,,,24,0,24,0,,,,,,,,,,,,,,,,,,,,,,1041.1484459005296,None,,,,,,,,,,,,,,,,,strength,85,25,sing,old,red,1038.8539920002222,None,1038.8539920002222,None,5,1.6476148003712296,1038.8539920002222,None,1.6476148003712296,1040.5320957005024,None,1041.0398383000866,None,1041.0398383000866,None,r,0.09379940014332533,1041.0398383000866,None,0.09379940014332533,,,78 sing,001,2022_Nov_15_1453,ProdSingRedoBetween,2021.2.3,59.95904806319269,
,,,,25,0,25,0,,,,,,,,,,,,,,,,,,,,,,1044.1904162000865,None,,,,,,,,,,,,,,,,,turkey,1,26,sing,old,yellow,1041.6600639000535,None,1041.6600639000535,None,4,1.4495030008256435,1041.6600639000535,None,1.4495030008256435,1043.1368666999042,None,1043.6612245002761,None,1043.6612245002761,None,r,0.5045482004061341,1043.6612245002761,None,0.5045482004061341,,,78 sing,001,2022_Nov_15_1453,ProdSingRedoBetween,2021.2.3,59.95904806319269,
,,,,26,0,26,0,,,,,,,,,,,,,,,,,,,,,,1047.2544558001682,None,,,,,,,,,,,,,,,,,rapid,70,27,sing,old,red,1044.711198600009,None,1044.711198600009,None,5,1.766249899752438,1044.711198600009,None,1.766249899752438,1046.5077571999282,None,1047.020800200291,None,1047.020800200291,None,r,0.2167404005303979,1047.020800200291,None,0.2167404005303979,,,78 sing,001,2022_Nov_15_1453,ProdSingRedoBetween,2021.2.3,59.95904806319269,
,,,,27,0,27,0,,,,,,,,,,,,,,,,,,,,,,1050.2589589003474,None,,,,,,,,,,,,,,,,,broad,29,28,sing,old,blue,1047.760153800249,None,1047.760153800249,None,3,1.7013994008302689,1047.760153800249,None,1.7013994008302689,1049.4914282001555,None,1049.9907176000997,None,1049.9907176000997,None,r,0.2388976002112031,1049.9907176000997,None,0.2388976002112031,,,78 sing,001,2022_Nov_15_1453,ProdSingRedoBetween,2021.2.3,59.95904806319269,
,,,,28,0,28,0,,,,,,,,,,,,,,,,,,,,,,1052.976881899871,None,,,,,,,,,,,,,,,,,master,65,29,sing,old,red,1050.7615931006148,None,1050.7615931006148,None,3,1.4199665999040008,1050.7615931006148,None,1.4199665999040008,1052.21428460069,None,1052.7267462005839,None,1052.7267462005839,None,r,0.22274390049278736,1052.7267462005839,None,0.22274390049278736,,,78 sing,001,2022_Nov_15_1453,ProdSingRedoBetween,2021.2.3,59.95904806319269,
,,,,29,0,29,0,,,,,,,,,,,,,,,,,,,,,,1055.6295656999573,None,,,,,,,,,,,,,,,,,science,146,30,sing,new,null,1053.4870678000152,None,1053.4870678000152,None,2,1.3184734992682934,1053.4870678000152,None,1.3184734992682934,1054.830742600374,None,1055.3458452001214,None,1055.3458452001214,None,r,0.2516056001186371,1055.3458452001214,None,0.2516056001186371,,,78 sing,001,2022_Nov_15_1453,ProdSingRedoBetween,2021.2.3,59.95904806319269,
,,,,30,0,30,0,,,,,,,,,,,,,,,,,,,,,,1057.9975089998916,None,,,,,,,,,,,,,,,,,native,142,31,sing,new,null,1056.1299505000934,None,1056.1299505000934,None,2,1.2915651006624103,1056.1299505000934,None,1.2915651006624103,1057.4493500003591,None,1057.9555174000561,None,1057.9555174000561,None,r,0.010205600410699844,1057.9555174000561,None,0.010205600410699844,,,78 sing,001,2022_Nov_15_1453,ProdSingRedoBetween,2021.2.3,59.95904806319269,
,,,,31,0,31,0,,,,,,,,,,,,,,,,,,,,,,1060.4843872999772,None,,,,,,,,,,,,,,,,,swift,104,32,sing,new,null,1058.5088259000331,None,1058.5088259000331,None,1,1.2088368004187942,1058.5088259000331,None,1.2088368004187942,1059.7342554004863,None,1060.2390993004665,None,1060.2390993004665,None,r,0.230456099845469,1060.2390993004665,None,0.230456099845469,,,78 sing,001,2022_Nov_15_1453,ProdSingRedoBetween,2021.2.3,59.95904806319269,
,,,,32,0,32,0,,,,,,,,,,,,,,,,,,,,,,1063.404015100561,None,,,,,,,,,,,,,,,,,pattern,38,33,sing,old,blue,1060.9958888003603,None,1060.9958888003603,None,3,1.4096534000709653,1060.9958888003603,None,1.4096534000709653,1062.4397233007476,None,1062.9545593000948,None,1062.9545593000948,None,r,0.41896940022706985,1062.9545593000948,None,0.41896940022706985,,,78 sing,001,2022_Nov_15_1453,ProdSingRedoBetween,2021.2.3,59.95904806319269,
,,,,33,0,33,0,,,,,,,,,,,,,,,,,,,,,,1067.15892310068,None,,,,,,,,,,,,,,,,,sunset,10,34,sing,old,yellow,1063.9177066003904,None,1063.9177066003904,None,3,2.023841199465096,1063.9177066003904,None,2.023841199465096,1065.9763951003551,None,1066.492303499952,None,1066.492303499952,None,r,0.6412658002227545,1066.492303499952,None,0.6412658002227545,,,78 sing,001,2022_Nov_15_1453,ProdSingRedoBetween,2021.2.3,59.95904806319269,
,,,,34,0,34,0,,,,,,,,,,,,,,,,,,,,,,1070.9948104005307,None,,,,,,,,,,,,,,,,,colonel,170,35,sing,new,null,1067.658258200623,None,1067.658258200623,None,1,2.203270999714732,1067.658258200623,None,2.203270999714732,1069.8780519999564,None,1070.38151870016,None,1070.38151870016,None,r,0.5839897003024817,1070.38151870016,None,0.5839897003024817,,,78 sing,001,2022_Nov_15_1453,ProdSingRedoBetween,2021.2.3,59.95904806319269,
,,,,35,0,35,0,,,,,,,,,,,,,,,,,,,,,,1073.898650600575,None,,,,,,,,,,,,,,,,,bicycle,101,36,sing,new,null,1071.502763800323,None,1071.502763800323,None,2,1.318800799548626,1071.502763800323,None,1.318800799548626,1072.849854500033,None,1073.364446000196,None,1073.364446000196,None,r,0.513111500069499,1073.364446000196,None,0.513111500069499,,,78 sing,001,2022_Nov_15_1453,ProdSingRedoBetween,2021.2.3,59.95904806319269,
,,,,36,0,36,0,,,,,,,,,,,,,,,,,,,,,,1076.5835636006668,None,,,,,,,,,,,,,,,,,color,97,37,sing,new,null,1074.4126277007163,None,1074.4126277007163,None,5,1.3928043991327286,1074.4126277007163,None,1.3928043991327286,1075.832968200557,None,1076.3394474005327,None,1076.3394474005327,None,r,0.22597060073167086,1076.3394474005327,None,0.22597060073167086,,,78 sing,001,2022_Nov_15_1453,ProdSingRedoBetween,2021.2.3,59.95904806319269,
,,,,37,0,37,0,,,,,,,,,,,,,,,,,,,,,,1079.4532379005104,None,,,,,,,,,,,,,,,,,appeal,37,38,sing,old,blue,1077.0855854004622,None,1077.0855854004622,None,6,1.6319574993103743,1077.0855854004622,None,1.6319574993103743,1078.737165200524,None,1079.2364853005856,None,1079.2364853005856,None,r,0.1928945006802678,1079.2364853005856,None,0.1928945006802678,,,78 sing,001,2022_Nov_15_1453,ProdSingRedoBetween,2021.2.3,59.95904806319269,
,,,,38,0,38,0,,,,,,,,,,,,,,,,,,,,,,1081.8223508000374,None,,,,,,,,,,,,,,,,,death,61,39,sing,old,red,1079.9540385007858,None,1079.9540385007858,None,6,1.251358199864626,1079.9540385007858,None,1.251358199864626,1081.2226539999247,None,1081.7224163003266,None,1081.7224163003266,None,r,0.07510679960250854,1081.7224163003266,None,0.07510679960250854,,,78 sing,001,2022_Nov_15_1453,ProdSingRedoBetween,2021.2.3,59.95904806319269,
,,,,39,0,39,0,,,,,,,,,,,,,,,,,,,,,,1083.9575832001865,None,,,,,,,,,,,,,,,,,resistance,63,40,sing,old,red,1082.3290224000812,None,1082.3290224000812,None,6,0.988477099686861,1082.3290224000812,None,0.988477099686861,1083.3422691999003,None,1083.8607050003484,None,1083.8607050003484,None,r,0.07285150047391653,1083.8607050003484,None,0.07285150047391653,,,78 sing,001,2022_Nov_15_1453,ProdSingRedoBetween,2021.2.3,59.95904806319269,
,,,,40,0,40,0,,,,,,,,,,,,,,,,,,,,,,1086.8106644004583,None,,,,,,,,,,,,,,,,,murder,87,41,sing,old,red,1084.4664179002866,None,1084.4664179002866,None,4,1.6430350001901388,1084.4664179002866,None,1.6430350001901388,1086.12665690016,None,1086.627237200737,None,1086.627237200737,None,r,0.15437190048396587,1086.627237200737,None,0.15437190048396587,,,78 sing,001,2022_Nov_15_1453,ProdSingRedoBetween,2021.2.3,59.95904806319269,
,,,,41,0,41,0,,,,,,,,,,,,,,,,,,,,,,1089.1129990005866,None,,,,,,,,,,,,,,,,,plane,24,42,sing,old,yellow,1087.316535600461,None,1087.316535600461,None,3,1.1690587000921369,1087.316535600461,None,1.1690587000921369,1088.5175636000931,None,1089.0317227998748,None,1089.0317227998748,None,r,0.05369449965655804,1089.0317227998748,None,0.05369449965655804,,,78 sing,001,2022_Nov_15_1453,ProdSingRedoBetween,2021.2.3,59.95904806319269,
,,,,42,0,42,0,,,,,,,,,,,,,,,,,,,,,,1091.9157444005832,None,,,,,,,,,,,,,,,,,career,83,43,sing,old,red,1089.619597800076,None,1089.619597800076,None,3,1.63391700014472,1089.619597800076,None,1.63391700014472,1091.2817534003407,None,1091.7857075007632,None,1091.7857075007632,None,r,0.10779310017824173,1091.7857075007632,None,0.10779310017824173,,,78 sing,001,2022_Nov_15_1453,ProdSingRedoBetween,2021.2.3,59.95904806319269,
,,,,43,0,43,0,,,,,,,,,,,,,,,,,,,,,,1094.2375431004912,None,,,,,,,,,,,,,,,,,minor,144,44,sing,new,null,1092.4242294002324,None,1092.4242294002324,None,3,1.1092162998393178,1092.4242294002324,None,1.1092162998393178,1093.5504748001695,None,1094.0521382000297,None,1094.0521382000297,None,r,0.16162099968641996,1094.0521382000297,None,0.16162099968641996,,,78 sing,001,2022_Nov_15_1453,ProdSingRedoBetween,2021.2.3,59.95904806319269,
,,,,44,0,44,0,,,,,,,,,,,,,,,,,,,,,,1096.6705525005236,None,,,,,,,,,,,,,,,,,capital,86,45,sing,old,red,1094.7548465998843,None,1094.7548465998843,None,6,1.322834100574255,1094.7548465998843,None,1.322834100574255,1096.103531899862,None,1096.6038481006399,None,1096.6038481006399,None,r,0.04955950006842613,1096.6038481006399,None,0.04955950006842613,,,78 sing,001,2022_Nov_15_1453,ProdSingRedoBetween,2021.2.3,59.95904806319269,
,,,,45,0,45,0,,,,,,,,,,,,,,,,,,,,,,1099.0394628001377,None,,,,,,,,,,,,,,,,,front,169,46,sing,new,null,1097.1708497004583,None,1097.1708497004583,None,2,1.1546514006331563,1097.1708497004583,None,1.1546514006331563,1098.3567428002134,None,1098.85909990035,None,1098.85909990035,None,r,0.16235379967838526,1098.85909990035,None,0.16235379967838526,,,78 sing,001,2022_Nov_15_1453,ProdSingRedoBetween,2021.2.3,59.95904806319269,
,,,,46,0,46,0,,,,,,,,,,,,,,,,,,,,,,1101.4426239999011,None,,,,,,,,,,,,,,,,,addition,165,47,sing,new,null,1099.5492616007105,None,1099.5492616007105,None,3,1.1202096994966269,1099.5492616007105,None,1.1202096994966269,1100.6929672006518,None,1101.2110448004678,None,1101.2110448004678,None,r,0.20244779996573925,1101.2110448004678,None,0.20244779996573925,,,78 sing,001,2022_Nov_15_1453,ProdSingRedoBetween,2021.2.3,59.95904806319269,
,,,,47,0,47,0,,,,,,,,,,,,,,,,,,,,,,1104.0129163004458,None,,,,,,,,,,,,,,,,,household,45,48,sing,old,blue,1101.9537928001955,None,1101.9537928001955,None,5,1.3795911995694041,1101.9537928001955,None,1.3795911995694041,1103.3616676004604,None,1103.8683902006596,None,1103.8683902006596,None,r,0.11309809982776642,1103.8683902006596,None,0.11309809982776642,,,78 sing,001,2022_Nov_15_1453,ProdSingRedoBetween,2021.2.3,59.95904806319269,
,,,,48,0,48,0,,,,,,,,,,,,,,,,,,,,,,1106.4635906005278,None,,,,,,,,,,,,,,,,,spoke,171,49,sing,new,null,1104.532463900745,None,1104.532463900745,None,2,1.1609952002763748,1104.532463900745,None,1.1609952002763748,1105.7203590003774,None,1106.230141600594,None,1106.230141600594,None,r,0.21531539969146252,1106.230141600594,None,0.21531539969146252,,,78 sing,001,2022_Nov_15_1453,ProdSingRedoBetween,2021.2.3,59.95904806319269,
,,,,49,0,49,0,,,,,,,,,,,,,,,,,,,,,,1109.1160319000483,None,,,,,,,,,,,,,,,,,mechanical,150,50,sing,new,null,1106.9669609004632,None,1106.9669609004632,None,2,1.3343989998102188,1106.9669609004632,None,1.3343989998102188,1108.3406863007694,None,1108.8495143000036,None,1108.8495143000036,None,r,0.2438180996105075,1108.8495143000036,None,0.2438180996105075,,,78 sing,001,2022_Nov_15_1453,ProdSingRedoBetween,2021.2.3,59.95904806319269,
,,,,50,0,50,0,,,,,,,,,,,,,,,,,,,,,,1111.4016744000837,None,,,,,,,,,,,,,,,,,quarter,17,51,sing,old,yellow,1109.6200109003112,None,1109.6200109003112,None,3,1.1854924000799656,1109.6200109003112,None,1.1854924000799656,1110.8369115004316,None,1111.3535525007173,None,1111.3535525007173,None,r,0.027976199984550476,1111.3535525007173,None,0.027976199984550476,,,78 sing,001,2022_Nov_15_1453,ProdSingRedoBetween,2021.2.3,59.95904806319269,
,,,,51,0,51,0,,,,,,,,,,,,,,,,,,,,,,1113.7542161000893,None,,,,,,,,,,,,,,,,,count,177,52,sing,new,null,1111.9084398001432,None,1111.9084398001432,None,2,1.185011999681592,1111.9084398001432,None,1.185011999681592,1113.1240568002686,None,1113.6375788999721,None,1113.6375788999721,None,r,0.0879295002669096,1113.6375788999721,None,0.0879295002669096,,,78 sing,001,2022_Nov_15_1453,ProdSingRedoBetween,2021.2.3,59.95904806319269,
,,,,52,0,52,0,,,,,,,,,,,,,,,,,,,,,,1116.3734885007143,None,,,,,,,,,,,,,,,,,private,157,53,sing,new,null,1114.2631128001958,None,1114.2631128001958,None,3,1.4142941003665328,1114.2631128001958,None,1.4142941003665328,1115.7107886001468,None,1116.223511500284,None,1116.223511500284,None,r,0.126078300178051,1116.223511500284,None,0.126078300178051,,,78 sing,001,2022_Nov_15_1453,ProdSingRedoBetween,2021.2.3,59.95904806319269,
,,,,53,0,53,0,,,,,,,,,,,,,,,,,,,,,,1119.2763471007347,None,,,,,,,,,,,,,,,,,gesture,95,54,sing,new,null,1116.874040200375,None,1116.874040200375,None,3,1.26738650072366,1116.874040200375,None,1.26738650072366,1118.1637436999008,None,1118.682651400566,None,1118.682651400566,None,r,0.5627588992938399,1118.682651400566,None,0.5627588992938399,,,78 sing,001,2022_Nov_15_1453,ProdSingRedoBetween,2021.2.3,59.95904806319269,
,,,,54,0,54,0,,,,,,,,,,,,,,,,,,,,,,1121.6287104003131,None,,,,,,,,,,,,,,,,,concern,14,55,sing,old,yellow,1119.776963500306,None,1119.776963500306,None,4,1.1803997997194529,1119.776963500306,None,1.1803997997194529,1120.986872700043,None,1121.4981510005891,None,1121.4981510005891,None,r,0.11524400021880865,1121.4981510005891,None,0.11524400021880865,,,78 sing,001,2022_Nov_15_1453,ProdSingRedoBetween,2021.2.3,59.95904806319269,
,,,,55,0,55,0,,,,,,,,,,,,,,,,,,,,,,1125.2157343002036,None,,,,,,,,,,,,,,,,,shape,20,56,sing,old,yellow,1122.1427177004516,None,1122.1427177004516,None,5,1.1347114006057382,1122.1427177004516,None,1.1347114006057382,1123.298609700054,None,1123.8035938004032,None,1123.8035938004032,None,r,1.3939691996201873,1123.8035938004032,None,1.3939691996201873,,,78 sing,001,2022_Nov_15_1453,ProdSingRedoBetween,2021.2.3,59.95904806319269,
,,,,56,0,56,0,,,,,,,,,,,,,,,,,,,,,,1127.5179169001058,None,,,,,,,,,,,,,,,,,stand,96,57,sing,new,null,1125.7186102000996,None,1125.7186102000996,None,3,1.1348033007234335,1125.7186102000996,None,1.1348033007234335,1126.884887800552,None,1127.3845969000831,None,1127.3845969000831,None,r,0.10886650066822767,1127.3845969000831,None,0.10886650066822767,,,78 sing,001,2022_Nov_15_1453,ProdSingRedoBetween,2021.2.3,59.95904806319269,
,,,,57,0,57,0,,,,,,,,,,,,,,,,,,,,,,1130.1872892007232,None,,,,,,,,,,,,,,,,,split,81,58,sing,old,red,1128.0284823998809,None,1128.0284823998809,None,6,1.5129869999364018,1128.0284823998809,None,1.5129869999364018,1129.5733617004007,None,1130.0873145004734,None,1130.0873145004734,None,r,0.07017469964921474,1130.0873145004734,None,0.07017469964921474,,,78 sing,001,2022_Nov_15_1453,ProdSingRedoBetween,2021.2.3,59.95904806319269,
,,,,58,0,58,0,,,,,,,,,,,,,,,,,,,,,,1132.4728803001344,None,,,,,,,,,,,,,,,,,distance,156,59,sing,new,null,1130.6961260000244,None,1130.6961260000244,None,4,0.9892883002758026,1130.6961260000244,None,0.9892883002758026,1131.7085255002603,None,1132.23585080076,None,1132.23585080076,None,r,0.21756269969046116,1132.23585080076,None,0.21756269969046116,,,78 sing,001,2022_Nov_15_1453,ProdSingRedoBetween,2021.2.3,59.95904806319269,
,,,,59,0,59,0,,,,,,,,,,,,,,,,,,,,,,1135.1102939005941,None,,,,,,,,,,,,,,,,,owner,23,60,sing,old,yellow,1132.9754580007866,None,1132.9754580007866,None,5,1.3580602006986737,1132.9754580007866,None,1.3580602006986737,1134.3612130004913,None,1134.8881005002186,None,1134.8881005002186,None,r,0.20539760030806065,1134.8881005002186,None,0.20539760030806065,,,78 sing,001,2022_Nov_15_1453,ProdSingRedoBetween,2021.2.3,59.95904806319269,
,,,,60,0,60,0,,,,,,,,,,,,,,,,,,,,,,1137.4455812005326,None,,,,,,,,,,,,,,,,,straight,178,61,sing,new,null,1135.6111205006018,None,1135.6111205006018,None,6,1.0263157999143004,1135.6111205006018,None,1.0263157999143004,1136.6643489999697,None,1137.1777363000438,None,1137.1777363000438,None,r,0.2437356999143958,1137.1777363000438,None,0.2437356999143958,,,78 sing,001,2022_Nov_15_1453,ProdSingRedoBetween,2021.2.3,59.95904806319269,
,,,,61,0,61,0,,,,,,,,,,,,,,,,,,,,,,1140.2656532004476,None,,,,,,,,,,,,,,,,,region,167,62,sing,new,null,1137.9449563007802,None,1137.9449563007802,None,3,1.452463099732995,1137.9449563007802,None,1.452463099732995,1139.4147739000618,None,1139.93051320035,None,1139.93051320035,None,r,0.314920200034976,1139.93051320035,None,0.314920200034976,,,78 sing,001,2022_Nov_15_1453,ProdSingRedoBetween,2021.2.3,59.95904806319269,
,,,,62,0,62,0,,,,,,,,,,,,,,,,,,,,,,1142.83322850056,None,,,,,,,,,,,,,,,,,error,153,63,sing,new,null,1140.7838600007817,None,1140.7838600007817,None,4,1.3896658001467586,1140.7838600007817,None,1.3896658001467586,1142.2091129999608,None,1142.716404400766,None,1142.716404400766,None,r,0.08888019993901253,1142.716404400766,None,0.08888019993901253,,,78 sing,001,2022_Nov_15_1453,ProdSingRedoBetween,2021.2.3,59.95904806319269,
,,,,63,0,63,0,,,,,,,,,,,,,,,,,,,,,,1145.3355109998956,None,,,,,,,,,,,,,,,,,produce,139,64,sing,new,null,1143.3353278003633,None,1143.3353278003633,None,3,1.2060152003541589,1143.3353278003633,None,1.2060152003541589,1144.5703070005402,None,1145.0854916004464,None,1145.0854916004464,None,r,0.23187590017914772,1145.0854916004464,None,0.23187590017914772,,,78 sing,001,2022_Nov_15_1453,ProdSingRedoBetween,2021.2.3,59.95904806319269,
,,,,64,0,64,0,,,,,,,,,,,,,,,,,,,,,,1147.9880584003404,None,,,,,,,,,,,,,,,,,emergency,112,65,sing,new,null,1145.8391203004867,None,1145.8391203004867,None,3,1.3903751000761986,1145.8391203004867,None,1.3903751000761986,1147.257241900079,None,1147.7754973005503,None,1147.7754973005503,None,r,0.18991809990257025,1147.7754973005503,None,0.18991809990257025,,,78 sing,001,2022_Nov_15_1453,ProdSingRedoBetween,2021.2.3,59.95904806319269,
,,,,65,0,65,0,,,,,,,,,,,,,,,,,,,,,,1150.6910655004904,None,,,,,,,,,,,,,,,,,guard,118,66,sing,new,null,1148.500502999872,None,1148.500502999872,None,3,1.4088201997801661,1148.500502999872,None,1.4088201997801661,1149.9416893003508,None,1150.441757700406,None,1150.441757700406,None,r,0.2276127003133297,1150.441757700406,None,0.2276127003133297,,,78 sing,001,2022_Nov_15_1453,ProdSingRedoBetween,2021.2.3,59.95904806319269,
,,,,66,0,66,0,,,,,,,,,,,,,,,,,,,,,,1153.3477442003787,None,,,,,,,,,,,,,,,,,reach,25,67,sing,old,yellow,1151.1959658004344,None,1151.1959658004344,None,5,1.489415899850428,1151.1959658004344,None,1.489415899850428,1152.7097648000345,None,1153.2127419002354,None,1153.2127419002354,None,r,0.11281000077724457,1153.2127419002354,None,0.11281000077724457,,,78 sing,001,2022_Nov_15_1453,ProdSingRedoBetween,2021.2.3,59.95904806319269,
,,,,67,0,67,0,,,,,,,,,,,,,,,,,,,,,,1155.762732400559,None,,,,,,,,,,,,,,,,,dozen,62,68,sing,old,red,1153.8681788006797,None,1153.8681788006797,None,6,1.1691947001963854,1153.8681788006797,None,1.1691947001963854,1155.0636726999655,None,1155.56776070036,None,1155.56776070036,None,r,0.17360910028219223,1155.56776070036,None,0.17360910028219223,,,78 sing,001,2022_Nov_15_1453,ProdSingRedoBetween,2021.2.3,59.95904806319269,
,,,,68,0,68,0,,,,,,,,,,,,,,,,,,,,,,1158.1984884003177,None,,,,,,,,,,,,,,,,,problem,11,69,sing,old,yellow,1156.2737276004627,None,1156.2737276004627,None,3,1.1876520002260804,1156.2737276004627,None,1.1876520002260804,1157.4846481001005,None,1157.9984082998708,None,1157.9984082998708,None,r,0.17500330042093992,1157.9984082998708,None,0.17500330042093992,,,78 sing,001,2022_Nov_15_1453,ProdSingRedoBetween,2021.2.3,59.95904806319269,
,,,,69,0,69,0,,,,,,,,,,,,,,,,,,,,,,1160.784381000325,None,,,,,,,,,,,,,,,,,leader,41,70,sing,old,blue,1158.6991452006623,None,1158.6991452006623,None,4,1.426218300126493,1158.6991452006623,None,1.426218300126493,1160.1513592004776,None,1160.6543655004352,None,1160.6543655004352,None,r,0.11111210007220507,1160.6543655004352,None,0.11111210007220507,,,78 sing,001,2022_Nov_15_1453,ProdSingRedoBetween,2021.2.3,59.95904806319269,
,,,,70,0,70,0,,,,,,,,,,,,,,,,,,,,,,1162.9723423002288,None,,,,,,,,,,,,,,,,,staff,4,71,sing,old,yellow,1161.2943814005703,None,1161.2943814005703,None,3,1.0069578001275659,1161.2943814005703,None,1.0069578001275659,1162.3208101000637,None,1162.8266382003203,None,1162.8266382003203,None,r,0.11492849979549646,1162.8266382003203,None,0.11492849979549646,,,78 sing,001,2022_Nov_15_1453,ProdSingRedoBetween,2021.2.3,59.95904806319269,
,,,,71,0,71,0,,,,,,,,,,,,,,,,,,,,,,1165.5725567005575,None,,,,,,,,,,,,,,,,,reading,7,72,sing,old,yellow,1163.4875882007182,None,1163.4875882007182,None,3,1.3657112997025251,1163.4875882007182,None,1.3657112997025251,1164.8750915005803,None,1165.3926462000236,None,1165.3926462000236,None,r,0.14878199994564056,1165.3926462000236,None,0.14878199994564056,,,78 sing,001,2022_Nov_15_1453,ProdSingRedoBetween,2021.2.3,59.95904806319269,
,,,,72,0,72,0,,,,,,,,,,,,,,,,,,,,,,1168.6435723006725,None,,,,,,,,,,,,,,,,,course,13,73,sing,old,yellow,1166.076898300089,None,1166.076898300089,None,2,1.056453499943018,1166.076898300089,None,1.056453499943018,1167.1589358001947,None,1167.6700870003551,None,1167.6700870003551,None,r,0.9433599002659321,1167.6700870003551,None,0.9433599002659321,,,78 sing,001,2022_Nov_15_1453,ProdSingRedoBetween,2021.2.3,59.95904806319269,
,,,,73,0,73,0,,,,,,,,,,,,,,,,,,,,,,1171.229360400699,None,,,,,,,,,,,,,,,,,empty,116,74,sing,new,null,1169.1478605000302,None,1169.1478605000302,None,2,1.2654113993048668,1169.1478605000302,None,1.2654113993048668,1170.4473285004497,None,1170.9610942006111,None,1170.9610942006111,None,r,0.2361591001972556,1170.9610942006111,None,0.2361591001972556,,,78 sing,001,2022_Nov_15_1453,ProdSingRedoBetween,2021.2.3,59.95904806319269,
,,,,74,0,74,0,,,,,,,,,,,,,,,,,,,,,,1173.7807521000504,None,,,,,,,,,,,,,,,,,expansion,122,75,sing,new,null,1171.743422199972,None,1171.743422199972,None,3,1.2618823004886508,1171.743422199972,None,1.2618823004886508,1173.0300580002367,None,1173.5330154001713,None,1173.5330154001713,None,r,0.23242060001939535,1173.5330154001713,None,0.23242060001939535,,,78 sing,001,2022_Nov_15_1453,ProdSingRedoBetween,2021.2.3,59.95904806319269,
,,,,75,0,75,0,,,,,,,,,,,,,,,,,,,,,,1176.2331662001088,None,,,,,,,,,,,,,,,,,material,164,76,sing,new,null,1174.2910903999582,None,1174.2910903999582,None,3,1.1941466992720962,1174.2910903999582,None,1.1941466992720962,1175.5156999006867,None,1176.016623900272,None,1176.016623900272,None,r,0.1967043997719884,1176.016623900272,None,0.1967043997719884,,,78 sing,001,2022_Nov_15_1453,ProdSingRedoBetween,2021.2.3,59.95904806319269,
,,,,76,0,76,0,,,,,,,,,,,,,,,,,,,,,,1178.5688510006294,None,,,,,,,,,,,,,,,,,management,39,77,sing,old,blue,1176.7397035006434,None,1176.7397035006434,None,6,1.1696577006950974,1176.7397035006434,None,1.1696577006950974,1177.936072700657,None,1178.4397565005347,None,1178.4397565005347,None,r,0.10150429978966713,1178.4397565005347,None,0.10150429978966713,,,78 sing,001,2022_Nov_15_1453,ProdSingRedoBetween,2021.2.3,59.95904806319269,
,,,,77,0,77,0,,,,,,,,,,,,,,,,,,,,,,1181.0916526000947,None,,,,,,,,,,,,,,,,,graduate,32,78,sing,old,blue,1179.0743009001017,None,1179.0743009001017,None,6,1.4350146995857358,1179.0743009001017,None,1.4350146995857358,1180.5383675005287,None,1181.0493545001373,None,1181.0493545001373,None,r,0.004284599795937538,1181.0493545001373,None,0.004284599795937538,,,78 sing,001,2022_Nov_15_1453,ProdSingRedoBetween,2021.2.3,59.95904806319269,
,,,,78,0,78,0,,,,,,,,,,,,,,,,,,,,,,1182.9085583006963,None,,,,,,,,,,,,,,,,,captain,16,79,sing,old,yellow,1181.6163081005216,None,1181.6163081005216,None,6,0.7091624001041055,1181.6163081005216,None,0.7091624001041055,1182.355833900161,None,1182.858590300195,None,1182.858590300195,None,r,0.01886099949479103,1182.858590300195,None,0.01886099949479103,,,78 sing,001,2022_Nov_15_1453,ProdSingRedoBetween,2021.2.3,59.95904806319269,
,,,,79,0,79,0,,,,,,,,,,,,,,,,,,,,,,1185.458998400718,None,,,,,,,,,,,,,,,,,thick,141,80,sing,new,null,1183.4237835006788,None,1183.4237835006788,None,3,1.341478300280869,1183.4237835006788,None,1.341478300280869,1184.7916852999479,None,1185.2950581004843,None,1185.2950581004843,None,r,0.1341364998370409,1185.2950581004843,None,0.1341364998370409,,,78 sing,001,2022_Nov_15_1453,ProdSingRedoBetween,2021.2.3,59.95904806319269,
,,,,80,0,80,0,,,,,,,,,,,,,,,,,,,,,,1187.8780891001225,None,,,,,,,,,,,,,,,,,smell,99,81,sing,new,null,1185.968411900103,None,1185.968411900103,None,2,1.0209153005853295,1185.968411900103,None,1.0209153005853295,1187.016436200589,None,1187.5343206999823,None,1187.5343206999823,None,r,0.31908820010721684,1187.5343206999823,None,0.31908820010721684,,,78 sing,001,2022_Nov_15_1453,ProdSingRedoBetween,2021.2.3,59.95904806319269,
,,,,81,0,81,0,,,,,,,,,,,,,,,,,,,,,,1190.9976641004905,None,,,,,,,,,,,,,,,,,piece,40,82,sing,old,blue,1188.3884105999023,None,1188.3884105999023,None,6,1.8088752999901772,1188.3884105999023,None,1.8088752999901772,1190.2149954000488,None,1190.7175015006214,None,1190.7175015006214,None,r,0.26377000007778406,1190.7175015006214,None,0.26377000007778406,,,78 sing,001,2022_Nov_15_1453,ProdSingRedoBetween,2021.2.3,59.95904806319269,
,,,,82,0,82,0,,,,,,,,,,,,,,,,,,,,,,1193.4000652004033,None,,,,,,,,,,,,,,,,,throw,109,83,sing,new,null,1191.509007700719,None,1191.509007700719,None,1,1.2163483006879687,1191.509007700719,None,1.2163483006879687,1192.7552396003157,None,1193.2687536003068,None,1193.2687536003068,None,r,0.11258620023727417,1193.2687536003068,None,0.11258620023727417,,,78 sing,001,2022_Nov_15_1453,ProdSingRedoBetween,2021.2.3,59.95904806319269,
,,,,83,0,83,0,,,,,,,,,,,,,,,,,,,,,,1195.7026030002162,None,,,,,,,,,,,,,,,,,platform,123,84,sing,new,null,1193.9069384001195,None,1193.9069384001195,None,2,1.138578599318862,1193.9069384001195,None,1.138578599318862,1195.0701852999628,None,1195.5754018006846,None,1195.5754018006846,None,r,0.10991060081869364,1195.5754018006846,None,0.10991060081869364,,,78 sing,001,2022_Nov_15_1453,ProdSingRedoBetween,2021.2.3,59.95904806319269,
,,,,84,0,84,0,,,,,,,,,,,,,,,,,,,,,,1198.2215739004314,None,,,,,,,,,,,,,,,,,under,71,85,sing,old,red,1196.2088780999184,None,1196.2088780999184,None,3,1.3082902003079653,1196.2088780999184,None,1.3082902003079653,1197.537965000607,None,1198.0382810002193,None,1198.0382810002193,None,r,0.1670649005100131,1198.0382810002193,None,0.1670649005100131,,,78 sing,001,2022_Nov_15_1453,ProdSingRedoBetween,2021.2.3,59.95904806319269,
,,,,85,0,85,0,,,,,,,,,,,,,,,,,,,,,,1200.4906208999455,None,,,,,,,,,,,,,,,,,display,158,86,sing,new,null,1198.7411118000746,None,1198.7411118000746,None,3,1.1201621992513537,1198.7411118000746,None,1.1201621992513537,1199.8927749004215,None,1200.4073812002316,None,1200.4073812002316,None,r,0.06196120008826256,1200.4073812002316,None,0.06196120008826256,,,78 sing,001,2022_Nov_15_1453,ProdSingRedoBetween,2021.2.3,59.95904806319269,
,,,,86,0,86,0,,,,,,,,,,,,,,,,,,,,,,1202.778174600564,None,,,,,,,,,,,,,,,,,guide,22,87,sing,old,yellow,1200.9927262002602,None,1200.9927262002602,None,6,1.180571399629116,1200.9927262002602,None,1.180571399629116,1202.1922481004149,None,1202.693098500371,None,1202.693098500371,None,r,0.06431740056723356,1202.693098500371,None,0.06431740056723356,,,78 sing,001,2022_Nov_15_1453,ProdSingRedoBetween,2021.2.3,59.95904806319269,
,,,,87,0,87,0,,,,,,,,,,,,,,,,,,,,,,1205.8291461002082,None,,,,,,,,,,,,,,,,,society,159,88,sing,new,null,1203.3001739000902,None,1203.3001739000902,None,2,1.121157200075686,1203.3001739000902,None,1.121157200075686,1204.4489825004712,None,1204.9651000006124,None,1204.9651000006124,None,r,0.8400849001482129,1204.9651000006124,None,0.8400849001482129,,,78 sing,001,2022_Nov_15_1453,ProdSingRedoBetween,2021.2.3,59.95904806319269,
,,,,88,0,88,0,,,,,,,,,,,,,,,,,,,,,,1208.1517135007307,None,,,,,,,,,,,,,,,,,minute,114,89,sing,new,null,1206.3359432006255,None,1206.3359432006255,None,2,1.085410300642252,1206.3359432006255,None,1.085410300642252,1207.4487781003118,None,1207.9526565000415,None,1207.9526565000415,None,r,0.18090769927948713,1207.9526565000415,None,0.18090769927948713,,,78 sing,001,2022_Nov_15_1453,ProdSingRedoBetween,2021.2.3,59.95904806319269,
,,,,89,0,89,0,,,,,,,,,,,,,,,,,,,,,,1210.9008175004274,None,,,,,,,,,,,,,,,,,symbol,75,90,sing,old,red,1208.665401100181,None,1208.665401100181,None,2,1.1559301996603608,1208.665401100181,None,1.1559301996603608,1209.851216500625,None,1210.3527062004432,None,1210.3527062004432,None,r,0.5326062999665737,1210.3527062004432,None,0.5326062999665737,,,78 sing,001,2022_Nov_15_1453,ProdSingRedoBetween,2021.2.3,59.95904806319269,
,,,,90,0,90,0,,,,,,,,,,,,,,,,,,,,,,1213.2866839999333,None,,,,,,,,,,,,,,,,,beauty,174,91,sing,new,null,1211.4016449004412,None,1211.4016449004412,None,2,1.0757639007642865,1211.4016449004412,None,1.0757639007642865,1212.513380500488,None,1213.0278592007235,None,1213.0278592007235,None,r,0.233390299603343,1213.0278592007235,None,0.233390299603343,,,78 sing,001,2022_Nov_15_1453,ProdSingRedoBetween,2021.2.3,59.95904806319269,
,,,,91,0,91,0,,,,,,,,,,,,,,,,,,,,,,1216.1922285007313,None,,,,,,,,,,,,,,,,,direction,56,92,sing,old,blue,1213.787373000756,None,1213.787373000756,None,6,1.8098451998084784,1213.787373000756,None,1.8098451998084784,1215.6224561007693,None,1216.1312541998923,None,1216.1312541998923,None,r,0.03430910035967827,1216.1312541998923,None,0.03430910035967827,,,78 sing,001,2022_Nov_15_1453,ProdSingRedoBetween,2021.2.3,59.95904806319269,
,,,,92,0,92,0,,,,,,,,,,,,,,,,,,,,,,1219.325932700187,None,,,,,,,,,,,,,,,,,people,15,93,sing,old,yellow,1216.7081962004304,None,1216.7081962004304,None,3,1.0890980008989573,1216.7081962004304,None,1.0890980008989573,1217.8282227003947,None,1218.3502846006304,None,1218.3502846006304,None,r,0.9589468007907271,1218.3502846006304,None,0.9589468007907271,,,78 sing,001,2022_Nov_15_1453,ProdSingRedoBetween,2021.2.3,59.95904806319269,
,,,,93,0,93,0,,,,,,,,,,,,,,,,,,,,,,1221.6117267999798,None,,,,,,,,,,,,,,,,,discovery,52,94,sing,old,blue,1219.8365128999576,None,1219.8365128999576,None,6,1.0007365997880697,1219.8365128999576,None,1.0007365997880697,1220.8623700002208,None,1221.367345600389,None,1221.367345600389,None,r,0.2139586005359888,1221.367345600389,None,0.2139586005359888,,,78 sing,001,2022_Nov_15_1453,ProdSingRedoBetween,2021.2.3,59.95904806319269,
,,,,94,0,94,0,,,,,,,,,,,,,,,,,,,,,,1223.6971532003954,None,,,,,,,,,,,,,,,,,pretty,57,95,sing,old,blue,1222.128599700518,None,1222.128599700518,None,6,0.9566534999758005,1222.128599700518,None,0.9566534999758005,1223.1144403005019,None,1223.6229886999354,None,1223.6229886999354,None,r,0.05443850066512823,1223.6229886999354,None,0.05443850066512823,,,78 sing,001,2022_Nov_15_1453,ProdSingRedoBetween,2021.2.3,59.95904806319269,
,,,,95,0,95,0,,,,,,,,,,,,,,,,,,,,,,1226.1829636003822,None,,,,,,,,,,,,,,,,,relation,79,96,sing,old,red,1224.207137499936,None,1224.207137499936,None,4,0.9180923001840711,1224.207137499936,None,0.9180923001840711,1225.150381100364,None,1225.6693525006995,None,1225.6693525006995,None,r,0.4879195997491479,1225.6693525006995,None,0.4879195997491479,,,78 sing,001,2022_Nov_15_1453,ProdSingRedoBetween,2021.2.3,59.95904806319269,
,,,,96,0,96,0,,,,,,,,,,,,,,,,,,,,,,1228.2517014006153,None,,,,,,,,,,,,,,,,,growth,132,97,sing,new,null,1226.683592500165,None,1226.683592500165,None,2,0.9856574004516006,1226.683592500165,None,0.9856574004516006,1227.6861511003226,None,1228.201754000038,None,1228.201754000038,None,r,0.01952669955790043,1228.201754000038,None,0.01952669955790043,,,78 sing,001,2022_Nov_15_1453,ProdSingRedoBetween,2021.2.3,59.95904806319269,
,,,,97,0,97,0,,,,,,,,,,,,,,,,,,,,,,1231.2712893001735,None,,,,,,,,,,,,,,,,,period,94,98,sing,new,null,1228.7586312005296,None,1228.7586312005296,None,4,1.718562399968505,1228.7586312005296,None,1.718562399968505,1230.505720000714,None,1231.0045258002356,None,1231.0045258002356,None,r,0.24862820003181696,1231.0045258002356,None,0.24862820003181696,,,78 sing,001,2022_Nov_15_1453,ProdSingRedoBetween,2021.2.3,59.95904806319269,
,,,,98,0,98,0,,,,,,,,,,,,,,,,,,,,,,1233.640218300745,None,,,,,,,,,,,,,,,,,commercial,120,99,sing,new,null,1231.7745726006106,None,1231.7745726006106,None,1,1.2066192999482155,1231.7745726006106,None,1.2066192999482155,1233.011448500678,None,1233.5237600998953,None,1233.5237600998953,None,r,0.08941590040922165,1233.5237600998953,None,0.08941590040922165,,,78 sing,001,2022_Nov_15_1453,ProdSingRedoBetween,2021.2.3,59.95904806319269,
,,,,99,0,99,0,,,,,,,,,,,,,,,,,,,,,,1235.8091032002121,None,,,,,,,,,,,,,,,,,trend,89,100,sing,old,red,1234.1409782003611,None,1234.1409782003611,None,2,0.9442579001188278,1234.1409782003611,None,0.9442579001188278,1235.1083281002939,None,1235.6094706999138,None,1235.6094706999138,None,r,0.1716807996854186,1235.6094706999138,None,0.1716807996854186,,,78 sing,001,2022_Nov_15_1453,ProdSingRedoBetween,2021.2.3,59.95904806319269,
,,,,100,0,100,0,,,,,,,,,,,,,,,,,,,,,,1238.2282776003703,None,,,,,,,,,,,,,,,,,answer,80,101,sing,old,red,1236.3194543002173,None,1236.3194543002173,None,6,1.3337660003453493,1236.3194543002173,None,1.3337660003453493,1237.6791272005066,None,1238.1783205000684,None,1238.1783205000684,None,r,0.03493189997971058,1238.1783205000684,None,0.03493189997971058,,,78 sing,001,2022_Nov_15_1453,ProdSingRedoBetween,2021.2.3,59.95904806319269,
,,,,101,0,101,0,,,,,,,,,,,,,,,,,,,,,,1240.3802834004164,None,,,,,,,,,,,,,,,,,interview,176,102,sing,new,null,1238.7456475002691,None,1238.7456475002691,None,3,0.9555684998631477,1238.7456475002691,None,0.9555684998631477,1239.731326800771,None,1240.2448988007382,None,1240.2448988007382,None,r,0.1123427003622055,1240.2448988007382,None,0.1123427003622055,,,78 sing,001,2022_Nov_15_1453,ProdSingRedoBetween,2021.2.3,59.95904806319269,
,,,,102,0,102,0,,,,,,,,,,,,,,,,,,,,,,1242.9889390002936,None,,,,,,,,,,,,,,,,,goose,126,103,sing,new,null,1240.8841841006652,None,1240.8841841006652,None,1,1.0010610995814204,1240.8841841006652,None,1.0010610995814204,1241.9163426002488,None,1242.4211357999593,None,1242.4211357999593,None,r,0.5441434001550078,1242.4211357999593,None,0.5441434001550078,,,78 sing,001,2022_Nov_15_1453,ProdSingRedoBetween,2021.2.3,59.95904806319269,
,,,,103,0,103,0,,,,,,,,,,,,,,,,,,,,,,1245.2686312003061,None,,,,,,,,,,,,,,,,,defeat,27,104,sing,old,yellow,1243.5132012004033,None,1243.5132012004033,None,3,0.9640665994957089,1243.5132012004033,None,0.9640665994957089,1244.506906900555,None,1245.018716700375,None,1245.018716700375,None,r,0.23449070006608963,1245.018716700375,None,0.23449070006608963,,,78 sing,001,2022_Nov_15_1453,ProdSingRedoBetween,2021.2.3,59.95904806319269,
,,,,104,0,104,0,,,,,,,,,,,,,,,,,,,,,,1248.1048317998648,None,,,,,,,,,,,,,,,,,fight,0,105,sing,old,yellow,1245.7794214002788,None,1245.7794214002788,None,6,1.4738520001992583,1245.7794214002788,None,1.4738520001992583,1247.2761809006333,None,1247.8039337005466,None,1247.8039337005466,None,r,0.2813421003520489,1247.8039337005466,None,0.2813421003520489,,,78 sing,001,2022_Nov_15_1453,ProdSingRedoBetween,2021.2.3,59.95904806319269,
,,,,105,0,105,0,,,,,,,,,,,,,,,,,,,,,,1250.45707949996,None,,,,,,,,,,,,,,,,,fellow,84,106,sing,old,red,1248.611728399992,None,1248.611728399992,None,3,1.1534748002886772,1248.611728399992,None,1.1534748002886772,1249.7915873005986,None,1250.3025622004643,None,1250.3025622004643,None,r,0.13467569928616285,1250.3025622004643,None,0.13467569928616285,,,78 sing,001,2022_Nov_15_1453,ProdSingRedoBetween,2021.2.3,59.95904806319269,
,,,,106,0,106,0,,,,,,,,,,,,,,,,,,,,,,1254.911613500677,None,,,,,,,,,,,,,,,,,bureau,175,107,sing,new,null,1250.9591808002442,None,1250.9591808002442,None,1,1.5343439001590014,1250.9591808002442,None,1.5343439001590014,1252.5190714001656,None,1253.0300183007494,None,1253.0300183007494,None,f,1.8631437998265028,1253.0300183007494,None,1.8631437998265028,,,78 sing,001,2022_Nov_15_1453,ProdSingRedoBetween,2021.2.3,59.95904806319269,
,,,,107,0,107,0,,,,,,,,,,,,,,,,,,,,,,1258.0313769001514,None,,,,,,,,,,,,,,,,,orchestra,58,108,sing,old,blue,1255.4222106002271,None,1255.4222106002271,None,6,1.3830332001671195,1255.4222106002271,None,1.3830332001671195,1256.837145499885,None,1257.3485130006447,None,1257.3485130006447,None,r,0.6645643003284931,1257.3485130006447,None,0.6645643003284931,,,78 sing,001,2022_Nov_15_1453,ProdSingRedoBetween,2021.2.3,59.95904806319269,
,,,,108,0,108,0,,,,,,,,,,,,,,,,,,,,,,1260.6840607002378,None,,,,,,,,,,,,,,,,,literature,117,109,sing,new,null,1258.539452300407,None,1258.539452300407,None,1,1.281874700449407,1258.539452300407,None,1.281874700449407,1259.8603763999417,None,1260.3672326998785,None,1260.3672326998785,None,r,0.2940032994374633,1260.3672326998785,None,0.2940032994374633,,,78 sing,001,2022_Nov_15_1453,ProdSingRedoBetween,2021.2.3,59.95904806319269,
,,,,109,0,109,0,,,,,,,,,,,,,,,,,,,,,,1263.470558900386,None,,,,,,,,,,,,,,,,,quantity,53,110,sing,old,blue,1261.1944418000057,None,1261.1944418000057,None,2,1.490747299976647,1261.1944418000057,None,1.490747299976647,1262.7052474003285,None,1263.2203149003908,None,1263.2203149003908,None,r,0.22478049993515015,1263.2203149003908,None,0.22478049993515015,,,78 sing,001,2022_Nov_15_1453,ProdSingRedoBetween,2021.2.3,59.95904806319269,
,,,,110,0,110,0,,,,,,,,,,,,,,,,,,,,,,1266.1728833001107,None,,,,,,,,,,,,,,,,,surprise,168,111,sing,new,null,1263.97341830004,None,1263.97341830004,None,2,1.4556494997814298,1263.97341830004,None,1.4556494997814298,1265.459791299887,None,1265.9726408002898,None,1265.9726408002898,None,r,0.18444169964641333,1265.9726408002898,None,0.18444169964641333,,,78 sing,001,2022_Nov_15_1453,ProdSingRedoBetween,2021.2.3,59.95904806319269,
,,,,111,0,111,0,,,,,,,,,,,,,,,,,,,,,,1268.5251878006384,None,,,,,,,,,,,,,,,,,background,136,112,sing,new,null,1266.6737112002447,None,1266.6737112002447,None,6,1.0594840999692678,1266.6737112002447,None,1.0594840999692678,1267.7598345000297,None,1268.2765859998763,None,1268.2765859998763,None,r,0.22459609992802143,1268.2765859998763,None,0.22459609992802143,,,78 sing,001,2022_Nov_15_1453,ProdSingRedoBetween,2021.2.3,59.95904806319269,
,,,,112,0,112,0,,,,,,,,,,,,,,,,,,,,,,1271.6956470999867,None,,,,,,,,,,,,,,,,,message,19,113,sing,old,yellow,1269.029409199953,None,1269.029409199953,None,6,0.9997053993865848,1269.029409199953,None,0.9997053993865848,1270.0610201004893,None,1270.5655102003366,None,1270.5655102003366,None,r,1.1036782003939152,1270.5655102003366,None,1.1036782003939152,,,78 sing,001,2022_Nov_15_1453,ProdSingRedoBetween,2021.2.3,59.95904806319269,
,,,,113,0,113,0,,,,,,,,,,,,,,,,,,,,,,1274.3992191003636,None,,,,,,,,,,,,,,,,,religion,9,114,sing,old,yellow,1272.1968951001763,None,1272.1968951001763,None,5,1.4083151994273067,1272.1968951001763,None,1.4083151994273067,1273.6332724001259,None,1274.1491263005883,None,1274.1491263005883,None,r,0.2241684002801776,1274.1491263005883,None,0.2241684002801776,,,78 sing,001,2022_Nov_15_1453,ProdSingRedoBetween,2021.2.3,59.95904806319269,
,,,,114,0,114,0,,,,,,,,,,,,,,,,,,,,,,1276.8538983007893,None,,,,,,,,,,,,,,,,,vision,2,115,sing,old,yellow,1274.907708399929,None,1274.907708399929,None,5,1.0015011997893453,1274.907708399929,None,1.0015011997893453,1275.9378685001284,None,1276.4522403003648,None,1276.4522403003648,None,r,0.376974799670279,1276.4522403003648,None,0.376974799670279,,,78 sing,001,2022_Nov_15_1453,ProdSingRedoBetween,2021.2.3,59.95904806319269,
,,,,115,0,115,0,,,,,,,,,,,,,,,,,,,,,,1279.686155400239,None,,,,,,,,,,,,,,,,,shear,102,116,sing,new,null,1277.3706621006131,None,1277.3706621006131,None,1,1.2744972994551063,1277.3706621006131,None,1.2744972994551063,1278.6701146000996,None,1279.1764906998724,None,1279.1764906998724,None,r,0.48473200015723705,1279.1764906998724,None,0.48473200015723705,,,78 sing,001,2022_Nov_15_1453,ProdSingRedoBetween,2021.2.3,59.95904806319269,
,,,,116,0,116,0,,,,,,,,,,,,,,,,,,,,,,1282.1887453002855,None,,,,,,,,,,,,,,,,,review,121,117,sing,new,null,1280.191357200034,None,1280.191357200034,None,2,1.1178182996809483,1280.191357200034,None,1.1178182996809483,1281.3396528000012,None,1281.8552689999342,None,1281.8552689999342,None,r,0.3098298991099,1281.8552689999342,None,0.3098298991099,,,78 sing,001,2022_Nov_15_1453,ProdSingRedoBetween,2021.2.3,59.95904806319269,
,,,,117,0,117,0,,,,,,,,,,,,,,,,,,,,,,1284.741306600161,None,,,,,,,,,,,,,,,,,education,50,118,sing,old,blue,1282.6895031007007,None,1282.6895031007007,None,5,1.2836245000362396,1282.6895031007007,None,1.2836245000362396,1283.9917023004964,None,1284.4956411002204,None,1284.4956411002204,None,r,0.22156619932502508,1284.4956411002204,None,0.22156619932502508,,,78 sing,001,2022_Nov_15_1453,ProdSingRedoBetween,2021.2.3,59.95904806319269,
,,,,118,0,118,0,,,,,,,,,,,,,,,,,,,,,,1288.096246700734,None,,,,,,,,,,,,,,,,,pancakes,5,119,sing,old,yellow,1285.2585237007588,None,1285.2585237007588,None,6,2.082620299421251,1285.2585237007588,None,2.082620299421251,1287.362239700742,None,1287.861324599944,None,1287.861324599944,None,r,0.2079381002113223,1287.861324599944,None,0.2079381002113223,,,78 sing,001,2022_Nov_15_1453,ProdSingRedoBetween,2021.2.3,59.95904806319269,
,,,,119,0,119,0,,,,,,,,,,,,,,,,,,,,,,1290.3970293002203,None,,,,,,,,,,,,,,,,,travel,154,120,sing,new,null,1288.6071752998978,None,1288.6071752998978,None,3,0.9900471996515989,1288.6071752998978,None,0.9900471996515989,1289.6207141000777,None,1290.1406155005097,None,1290.1406155005097,None,r,0.2325736004859209,1290.1406155005097,None,0.2325736004859209,,,78 sing,001,2022_Nov_15_1453,ProdSingRedoBetween,2021.2.3,59.95904806319269,
,,,,120,0,120,0,,,,,,,,,,,,,,,,,,,,,,1292.5196048999205,None,,,,,,,,,,,,,,,,,opening,48,121,sing,old,blue,1290.9077783999965,None,1290.9077783999965,None,2,1.0334181999787688,1290.9077783999965,None,1.0334181999787688,1291.9687219001353,None,1292.488675000146,None,1292.488675000146,None,r,0.012524900026619434,1292.488675000146,None,0.012524900026619434,,,78 sing,001,2022_Nov_15_1453,ProdSingRedoBetween,2021.2.3,59.95904806319269,
,,,,121,0,121,0,,,,,,,,,,,,,,,,,,,,,,1294.6186156002805,None,,,,,,,,,,,,,,,,,balance,140,122,sing,new,null,1293.0362132005394,None,1293.0362132005394,None,2,0.9450089996680617,1293.0362132005394,None,0.9450089996680617,1294.0032144002616,None,1294.5176452007145,None,1294.5176452007145,None,r,0.07941870018839836,1294.5176452007145,None,0.07941870018839836,,,78 sing,001,2022_Nov_15_1453,ProdSingRedoBetween,2021.2.3,59.95904806319269,
,,,,122,0,122,0,,,,,,,,,,,,,,,,,,,,,,1297.003597500734,None,,,,,,,,,,,,,,,,,pressure,173,123,sing,new,null,1295.1251704003662,None,1295.1251704003662,None,3,0.8638833006843925,1295.1251704003662,None,0.8638833006843925,1296.0203676000237,None,1296.5200049001724,None,1296.5200049001724,None,r,0.46120649948716164,1296.5200049001724,None,0.46120649948716164,,,78 sing,001,2022_Nov_15_1453,ProdSingRedoBetween,2021.2.3,59.95904806319269,
,,,,123,0,123,0,,,,,,,,,,,,,,,,,,,,,,1299.1889589000493,None,,,,,,,,,,,,,,,,,hunger,129,124,sing,new,null,1297.5096339005977,None,1297.5096339005977,None,1,0.9995679995045066,1297.5096339005977,None,0.9995679995045066,1298.5399515004829,None,1299.0434050001204,None,1299.0434050001204,None,r,0.12169789988547564,1299.0434050001204,None,0.12169789988547564,,,78 sing,001,2022_Nov_15_1453,ProdSingRedoBetween,2021.2.3,59.95904806319269,
,,,,124,0,124,0,,,,,,,,,,,,,,,,,,,,,,1301.5258328001946,None,,,,,,,,,,,,,,,,,character,98,125,sing,new,null,1299.6901994002983,None,1299.6901994002983,None,4,1.1632681004703045,1299.6901994002983,None,1.1632681004703045,1300.8800359005108,None,1301.391455099918,None,1301.391455099918,None,r,0.10969779919832945,1301.391455099918,None,0.10969779919832945,,,78 sing,001,2022_Nov_15_1453,ProdSingRedoBetween,2021.2.3,59.95904806319269,
,,,,125,0,125,0,,,,,,,,,,,,,,,,,,,,,,1304.010658500716,None,,,,,,,,,,,,,,,,,audience,100,126,sing,new,null,1302.033743900247,None,1302.033743900247,None,3,1.1716048996895552,1302.033743900247,None,1.1716048996895552,1303.2358055999503,None,1303.7438417002559,None,1303.7438417002559,None,r,0.23730099946260452,1303.7438417002559,None,0.23730099946260452,,,78 sing,001,2022_Nov_15_1453,ProdSingRedoBetween,2021.2.3,59.95904806319269,
,,,,126,0,126,0,,,,,,,,,,,,,,,,,,,,,,1306.3128933999687,None,,,,,,,,,,,,,,,,,style,107,127,sing,new,null,1304.5246921004727,None,1304.5246921004727,None,2,1.0164078995585442,1304.5246921004727,None,1.0164078995585442,1305.5646128002554,None,1306.0826333006844,None,1306.0826333006844,None,r,0.21057009976357222,1306.0826333006844,None,0.21057009976357222,,,78 sing,001,2022_Nov_15_1453,ProdSingRedoBetween,2021.2.3,59.95904806319269,
,,,,127,0,127,0,,,,,,,,,,,,,,,,,,,,,,1308.8154078004882,None,,,,,,,,,,,,,,,,,edition,145,128,sing,new,null,1306.8195914002135,None,1306.8195914002135,None,1,1.2895165998488665,1306.8195914002135,None,1.2895165998488665,1308.1311972001567,None,1308.6319186007604,None,1308.6319186007604,None,r,0.15710380021482706,1308.6319186007604,None,0.15710380021482706,,,78 sing,001,2022_Nov_15_1453,ProdSingRedoBetween,2021.2.3,59.95904806319269,
,,,,128,0,128,0,,,,,,,,,,,,,,,,,,,,,,1311.0841168006882,None,,,,,,,,,,,,,,,,,place,35,129,sing,old,blue,1309.3184171998873,None,1309.3184171998873,None,2,1.0146766006946564,1309.3184171998873,None,1.0146766006946564,1310.356299600564,None,1310.8680425006896,None,1310.8680425006896,None,r,0.20108390040695667,1310.8680425006896,None,0.20108390040695667,,,78 sing,001,2022_Nov_15_1453,ProdSingRedoBetween,2021.2.3,59.95904806319269,
,,,,129,0,129,0,,,,,,,,,,,,,,,,,,,,,,1313.2697944007814,None,,,,,,,,,,,,,,,,,health,179,130,sing,new,null,1311.5863532004878,None,1311.5863532004878,None,3,0.9306684006005526,1311.5863532004878,None,0.9306684006005526,1312.5355071006343,None,1313.04015730042,None,1313.04015730042,None,r,0.21293129958212376,1313.04015730042,None,0.21293129958212376,,,78 sing,001,2022_Nov_15_1453,ProdSingRedoBetween,2021.2.3,59.95904806319269,
,,,,130,0,130,0,,,,,,,,,,,,,,,,,,,,,,1315.6388379000127,None,,,,,,,,,,,,,,,,,equipment,166,131,sing,new,null,1313.7796122999862,None,1313.7796122999862,None,2,1.0574324000626802,1313.7796122999862,None,1.0574324000626802,1314.8575341003016,None,1315.3761797007173,None,1315.3761797007173,None,r,0.24489689990878105,1315.3761797007173,None,0.24489689990878105,,,78 sing,001,2022_Nov_15_1453,ProdSingRedoBetween,2021.2.3,59.95904806319269,
,,,,131,0,131,0,,,,,,,,,,,,,,,,,,,,,,1318.0580589007586,None,,,,,,,,,,,,,,,,,executive,161,132,sing,new,null,1316.1523999003693,None,1316.1523999003693,None,1,1.156632600352168,1316.1523999003693,None,1.156632600352168,1317.3412701999769,None,1317.8426531003788,None,1317.8426531003788,None,r,0.19436000008136034,1317.8426531003788,None,0.19436000008136034,,,78 sing,001,2022_Nov_15_1453,ProdSingRedoBetween,2021.2.3,59.95904806319269,
,,,,132,0,132,0,,,,,,,,,,,,,,,,,,,,,,1320.5103131001815,None,,,,,,,,,,,,,,,,,harmony,160,133,sing,new,null,1318.558836299926,None,1318.558836299926,None,2,1.1262108003720641,1318.558836299926,None,1.1262108003720641,1319.7161568002775,None,1320.2298902003095,None,1320.2298902003095,None,r,0.2552004000172019,1320.2298902003095,None,0.2552004000172019,,,78 sing,001,2022_Nov_15_1453,ProdSingRedoBetween,2021.2.3,59.95904806319269,
,,,,133,0,133,0,,,,,,,,,,,,,,,,,,,,,,1323.329861100763,None,,,,,,,,,,,,,,,,,dream,64,134,sing,old,red,1321.0137133998796,None,1321.0137133998796,None,1,1.4073700001463294,1321.0137133998796,None,1.4073700001463294,1322.446623600088,None,1322.9500064998865,None,1322.9500064998865,None,r,0.3510855995118618,1322.9500064998865,None,0.3510855995118618,,,78 sing,001,2022_Nov_15_1453,ProdSingRedoBetween,2021.2.3,59.95904806319269,
,,,,134,0,134,0,,,,,,,,,,,,,,,,,,,,,,1325.7153674000874,None,,,,,,,,,,,,,,,,,rural,124,135,sing,new,null,1323.836521600373,None,1323.836521600373,None,1,1.1205476997420192,1323.836521600373,None,1.1205476997420192,1324.9833174003288,None,1325.4987512007356,None,1325.4987512007356,None,r,0.19425109960138798,1325.4987512007356,None,0.19425109960138798,,,78 sing,001,2022_Nov_15_1453,ProdSingRedoBetween,2021.2.3,59.95904806319269,
,,,,135,0,135,0,,,,,,,,,,,,,,,,,,,,,,1327.8752305004746,None,,,,,,,,,,,,,,,,,weight,49,136,sing,old,blue,1326.224394400604,None,1326.224394400604,None,2,0.9566175993531942,1326.224394400604,None,0.9566175993531942,1327.200454399921,None,1327.7103277007118,None,1327.7103277007118,None,r,0.12700749933719635,1327.7103277007118,None,0.12700749933719635,,,78 sing,001,2022_Nov_15_1453,ProdSingRedoBetween,2021.2.3,59.95904806319269,
,,,,136,0,136,0,,,,,,,,,,,,,,,,,,,,,,1330.1062268000096,None,,,,,,,,,,,,,,,,,stranger,138,137,sing,new,null,1328.405956200324,None,1328.405956200324,None,3,1.0392225999385118,1328.405956200324,None,1.0392225999385118,1329.4755739001557,None,1329.9904227005318,None,1329.9904227005318,None,r,0.09493619948625565,1329.9904227005318,None,0.09493619948625565,,,78 sing,001,2022_Nov_15_1453,ProdSingRedoBetween,2021.2.3,59.95904806319269,
,,,,137,0,137,0,,,,,,,,,,,,,,,,,,,,,,1333.2448028000072,None,,,,,,,,,,,,,,,,,voice,90,138,sing,new,null,1330.6274874005467,None,1330.6274874005467,None,2,1.5135478004813194,1330.6274874005467,None,1.5135478004813194,1332.174110500142,None,1332.6942519005388,None,1332.6942519005388,None,r,0.5269405003637075,1332.6942519005388,None,0.5269405003637075,,,78 sing,001,2022_Nov_15_1453,ProdSingRedoBetween,2021.2.3,59.95904806319269,
,,,,138,0,138,0,,,,,,,,,,,,,,,,,,,,,,1335.692081000656,None,,,,,,,,,,,,,,,,,personnel,92,139,sing,new,null,1333.7643331000581,None,1333.7643331000581,None,1,1.328787099570036,1333.7643331000581,None,1.328787099570036,1335.1156045002863,None,1335.6270833006129,None,1335.6270833006129,None,r,0.04997839964926243,1335.6270833006129,None,0.04997839964926243,,,78 sing,001,2022_Nov_15_1453,ProdSingRedoBetween,2021.2.3,59.95904806319269,
,,,,139,0,139,0,,,,,,,,,,,,,,,,,,,,,,1337.8442601999268,None,,,,,,,,,,,,,,,,,substance,59,140,sing,old,yellow,1336.1960006002337,None,1336.1960006002337,None,2,1.0090933004394174,1336.1960006002337,None,1.0090933004394174,1337.2321595000103,None,1337.7457534000278,None,1337.7457534000278,None,r,0.08343120012432337,1337.7457534000278,None,0.08343120012432337,,,78 sing,001,2022_Nov_15_1453,ProdSingRedoBetween,2021.2.3,59.95904806319269,
,,,,140,0,140,0,,,,,,,,,,,,,,,,,,,,,,1340.146374700591,None,,,,,,,,,,,,,,,,,industry,111,141,sing,new,null,1338.35703210067,None,1338.35703210067,None,2,1.0959576005116105,1338.35703210067,None,1.0959576005116105,1339.4808357004076,None,1339.9804790001363,None,1339.9804790001363,None,r,0.14461269974708557,1339.9804790001363,None,0.14461269974708557,,,78 sing,001,2022_Nov_15_1453,ProdSingRedoBetween,2021.2.3,59.95904806319269,
,,,,141,0,141,0,,,,,,,,,,,,,,,,,,,,,,1342.4489253005013,None,,,,,,,,,,,,,,,,,agency,6,142,sing,old,yellow,1340.6583767998964,None,1340.6583767998964,None,2,0.9786494998261333,1340.6583767998964,None,0.9786494998261333,1341.666135000065,None,1342.1653594998643,None,1342.1653594998643,None,r,0.26369510032236576,1342.1653594998643,None,0.26369510032236576,,,78 sing,001,2022_Nov_15_1453,ProdSingRedoBetween,2021.2.3,59.95904806319269,
,,,,142,0,142,0,,,,,,,,,,,,,,,,,,,,,,1344.7512456001714,None,,,,,,,,,,,,,,,,,finance,60,143,sing,old,red,1342.9587496006861,None,1342.9587496006861,None,4,1.1422234000638127,1342.9587496006861,None,1.1422234000638127,1344.1189914001152,None,1344.636598000303,None,1344.636598000303,None,r,0.09638070035725832,1344.636598000303,None,0.09638070035725832,,,78 sing,001,2022_Nov_15_1453,ProdSingRedoBetween,2021.2.3,59.95904806319269,
,,,,143,0,143,0,,,,,,,,,,,,,,,,,,,,,,1347.3705656006932,None,,,,,,,,,,,,,,,,,congress,66,144,sing,old,red,1345.262878300622,None,1345.262878300622,None,5,1.2221062993630767,1345.262878300622,None,1.2221062993630767,1346.5031993007287,None,1347.0065815001726,None,1347.0065815001726,None,f,0.34254909958690405,1347.0065815001726,None,0.34254909958690405,,,78 sing,001,2022_Nov_15_1453,ProdSingRedoBetween,2021.2.3,59.95904806319269,
,,,,144,0,144,0,,,,,,,,,,,,,,,,,,,,,,1349.6227135006338,None,,,,,,,,,,,,,,,,,enemy,42,145,sing,old,blue,1347.8781878007576,None,1347.8781878007576,None,4,1.0708504002541304,1347.8781878007576,None,1.0708504002541304,1348.9736273000017,None,1349.4774616006762,None,1349.4774616006762,None,r,0.1196494996547699,1349.4774616006762,None,0.1196494996547699,,,78 sing,001,2022_Nov_15_1453,ProdSingRedoBetween,2021.2.3,59.95904806319269,
,,,,145,0,145,0,,,,,,,,,,,,,,,,,,,,,,1352.0750482007861,None,,,,,,,,,,,,,,,,,working,115,146,sing,new,null,1350.1270041000098,None,1350.1270041000098,None,2,1.3259554002434015,1350.1270041000098,None,1.3259554002434015,1351.4772252999246,None,1351.9919835003093,None,1351.9919835003093,None,r,0.052941600792109966,1351.9919835003093,None,0.052941600792109966,,,78 sing,001,2022_Nov_15_1453,ProdSingRedoBetween,2021.2.3,59.95904806319269,
,,,,146,0,146,0,,,,,,,,,,,,,,,,,,,,,,1354.5275972001255,None,,,,,,,,,,,,,,,,,charter,135,147,sing,new,null,1352.5756998006254,None,1352.5756998006254,None,1,1.221344300545752,1352.5756998006254,None,1.221344300545752,1353.827664299868,None,1354.3279277998954,None,1354.3279277998954,None,r,0.18111649993807077,1354.3279277998954,None,0.18111649993807077,,,78 sing,001,2022_Nov_15_1453,ProdSingRedoBetween,2021.2.3,59.95904806319269,
,,,,147,0,147,0,,,,,,,,,,,,,,,,,,,,,,1357.1135407006368,None,,,,,,,,,,,,,,,,,court,108,148,sing,new,null,1355.0361389005557,None,1355.0361389005557,None,2,1.360984799452126,1355.0361389005557,None,1.360984799452126,1356.4140625,None,1356.913193100132,None,1356.913193100132,None,r,0.17173399962484837,1356.913193100132,None,0.17173399962484837,,,78 sing,001,2022_Nov_15_1453,ProdSingRedoBetween,2021.2.3,59.95904806319269,
,,,,148,0,148,0,,,,,,,,,,,,,,,,,,,,,,1359.5659984005615,None,,,,,,,,,,,,,,,,,scale,103,149,sing,new,null,1357.617650900036,None,1357.617650900036,None,3,1.05936190020293,1357.617650900036,None,1.05936190020293,1358.7003856003284,None,1359.2157075004652,None,1359.2157075004652,None,r,0.3253685003146529,1359.2157075004652,None,0.3253685003146529,,,78 sing,001,2022_Nov_15_1453,ProdSingRedoBetween,2021.2.3,59.95904806319269,
,,,,149,0,149,0,,,,,,,,,,,,,,,,,,,,,,1362.0707335006446,None,,,,,,,,,,,,,,,,,drove,72,150,sing,old,red,1360.0688014999032,None,1360.0688014999032,None,6,1.2323308000341058,1360.0688014999032,None,1.2323308000341058,1361.3189414003864,None,1361.8183254003525,None,1361.8183254003525,None,r,0.22659690026193857,1361.8183254003525,None,0.22659690026193857,,,78 sing,001,2022_Nov_15_1453,ProdSingRedoBetween,2021.2.3,59.95904806319269,
,,,,150,0,150,0,,,,,,,,,,,,,,,,,,,,,,1364.7378126000986,None,,,,,,,,,,,,,,,,,mankind,76,151,sing,old,red,1362.588978299871,None,1362.588978299871,None,5,1.344060500152409,1362.588978299871,None,1.344060500152409,1363.9564463002607,None,1364.4744416000322,None,1364.4744416000322,None,r,0.23458970058709383,1364.4744416000322,None,0.23458970058709383,,,78 sing,001,2022_Nov_15_1453,ProdSingRedoBetween,2021.2.3,59.95904806319269,
,,,,151,0,151,0,,,,,,,,,,,,,,,,,,,,,,1367.190284700133,None,,,,,,,,,,,,,,,,,space,91,152,sing,new,null,1365.250069300644,None,1365.250069300644,None,2,1.2029617000371218,1365.250069300644,None,1.2029617000371218,1366.47466980014,None,1366.9954080004245,None,1366.9954080004245,None,r,0.16979249939322472,1366.9954080004245,None,0.16979249939322472,,,78 sing,001,2022_Nov_15_1453,ProdSingRedoBetween,2021.2.3,59.95904806319269,
,,,,152,0,152,0,,,,,,,,,,,,,,,,,,,,,,1369.575935200788,None,,,,,,,,,,,,,,,,,close,8,153,sing,old,yellow,1367.6942562004551,None,1367.6942562004551,None,3,1.0627605002373457,1367.6942562004551,None,1.0627605002373457,1368.7750011002645,None,1369.2829664004967,None,1369.2829664004967,None,r,0.2740509994328022,1369.2829664004967,None,0.2740509994328022,,,78 sing,001,2022_Nov_15_1453,ProdSingRedoBetween,2021.2.3,59.95904806319269,
,,,,153,0,153,0,,,,,,,,,,,,,,,,,,,,,,1371.6011830000207,None,,,,,,,,,,,,,,,,,little,30,154,sing,old,blue,1370.0830431003124,None,1370.0830431003124,None,4,0.9139291997998953,1370.0830431003124,None,0.9139291997998953,1371.0281194001436,None,1371.5372812002897,None,1371.5372812002897,None,r,0.02822470013052225,1371.5372812002897,None,0.02822470013052225,,,78 sing,001,2022_Nov_15_1453,ProdSingRedoBetween,2021.2.3,59.95904806319269,
,,,,154,0,154,0,,,,,,,,,,,,,,,,,,,,,,1374.4474952006713,None,,,,,,,,,,,,,,,,,territory,73,155,sing,old,red,1372.1200677007437,None,1372.1200677007437,None,5,1.1009370004758239,1372.1200677007437,None,1.1009370004758239,1373.24866090063,None,1373.7656224006787,None,1373.7656224006787,None,r,0.6552891992032528,1373.7656224006787,None,0.6552891992032528,,,78 sing,001,2022_Nov_15_1453,ProdSingRedoBetween,2021.2.3,59.95904806319269,
,,,,155,0,155,0,,,,,,,,,,,,,,,,,,,,,,1376.8182776002213,None,,,,,,,,,,,,,,,,,agreement,137,156,sing,new,null,1374.9555363003165,None,1374.9555363003165,None,5,1.2414785996079445,1374.9555363003165,None,1.2414785996079445,1376.217536800541,None,1376.733240400441,None,1376.733240400441,None,r,0.05578720010817051,1376.733240400441,None,0.05578720010817051,,,78 sing,001,2022_Nov_15_1453,ProdSingRedoBetween,2021.2.3,59.95904806319269,
,,,,156,0,156,0,,,,,,,,,,,,,,,,,,,,,,1379.1023353002965,None,,,,,,,,,,,,,,,,,season,106,157,sing,new,null,1377.337453099899,None,1377.337453099899,None,4,0.9556570006534457,1377.337453099899,None,0.9556570006534457,1378.31922110077,None,1378.8260029004887,None,1378.8260029004887,None,r,0.2589930007234216,1378.8260029004887,None,0.2589930007234216,,,78 sing,001,2022_Nov_15_1453,ProdSingRedoBetween,2021.2.3,59.95904806319269,
,,,,157,0,157,0,,,,,,,,,,,,,,,,,,,,,,1381.4209211003035,None,,,,,,,,,,,,,,,,,budget,67,158,sing,old,red,1379.6055370001122,None,1379.6055370001122,None,4,1.0633899997919798,1379.6055370001122,None,1.0633899997919798,1380.688935900107,None,1381.20437949989,None,1381.20437949989,None,r,0.20052680000662804,1381.20437949989,None,0.20052680000662804,,,78 sing,001,2022_Nov_15_1453,ProdSingRedoBetween,2021.2.3,59.95904806319269,
,,,,158,0,158,0,,,,,,,,,,,,,,,,,,,,,,1383.7735331002623,None,,,,,,,,,,,,,,,,,dispute,33,159,sing,old,blue,1381.9217899003997,None,1381.9217899003997,None,4,1.1711769998073578,1381.9217899003997,None,1.1711769998073578,1383.1241831006482,None,1383.6401243004948,None,1383.6401243004948,None,r,0.1168809998780489,1383.6401243004948,None,0.1168809998780489,,,78 sing,001,2022_Nov_15_1453,ProdSingRedoBetween,2021.2.3,59.95904806319269,
,,,,159,0,159,0,,,,,,,,,,,,,,,,,,,,,,1386.0756659004837,None,,,,,,,,,,,,,,,,,country,26,160,sing,old,yellow,1384.2814680999145,None,1384.2814680999145,None,3,1.1634209007024765,1384.2814680999145,None,1.1634209007024765,1385.4811185998842,None,1385.9922569002956,None,1385.9922569002956,None,r,0.06864290032535791,1385.9922569002956,None,0.06864290032535791,,,78 sing,001,2022_Nov_15_1453,ProdSingRedoBetween,2021.2.3,59.95904806319269,
,,,,160,0,160,0,,,,,,,,,,,,,,,,,,,,,,1388.4114239001647,None,,,,,,,,,,,,,,,,,build,147,161,sing,new,null,1386.5888964002952,None,1386.5888964002952,None,3,1.240051900036633,1386.5888964002952,None,1.240051900036633,1387.8459652001038,None,1388.3627463001758,None,1388.3627463001758,None,r,0.026317300274968147,1388.3627463001758,None,0.026317300274968147,,,78 sing,001,2022_Nov_15_1453,ProdSingRedoBetween,2021.2.3,59.95904806319269,
,,,,161,0,161,0,,,,,,,,,,,,,,,,,,,,,,1391.5478576002643,None,,,,,,,,,,,,,,,,,appearance,131,162,sing,new,null,1388.928153499961,None,1388.928153499961,None,6,1.852786399424076,1388.928153499961,None,1.852786399424076,1390.804513600655,None,1391.3173826001585,None,1391.3173826001585,None,r,0.2075894996523857,1391.3173826001585,None,0.2075894996523857,,,78 sing,001,2022_Nov_15_1453,ProdSingRedoBetween,2021.2.3,59.95904806319269,
,,,,162,0,162,0,,,,,,,,,,,,,,,,,,,,,,1393.700021199882,None,,,,,,,,,,,,,,,,,junior,163,163,sing,new,null,1392.0583303999156,None,1392.0583303999156,None,2,0.9387427000328898,1392.0583303999156,None,0.9387427000328898,1393.0178709002212,None,1393.5383247006685,None,1393.5383247006685,None,r,0.13866839930415154,1393.5383247006685,None,0.13866839930415154,,,78 sing,001,2022_Nov_15_1453,ProdSingRedoBetween,2021.2.3,59.95904806319269,
,,,,163,0,163,0,,,,,,,,,,,,,,,,,,,,,,1395.7876754002646,None,,,,,,,,,,,,,,,,,payment,155,164,sing,new,null,1394.2082992000505,None,1394.2082992000505,None,3,0.9326951997354627,1394.2082992000505,None,0.9326951997354627,1395.1709843007848,None,1395.6908661006019,None,1395.6908661006019,None,r,0.07436420023441315,1395.6908661006019,None,0.07436420023441315,,,78 sing,001,2022_Nov_15_1453,ProdSingRedoBetween,2021.2.3,59.95904806319269,
,,,,164,0,164,0,,,,,,,,,,,,,,,,,,,,,,1397.9877086998895,None,,,,,,,,,,,,,,,,,property,46,165,sing,old,blue,1396.3036382002756,None,1396.3036382002756,None,6,1.0293171992525458,1396.3036382002756,None,1.0293171992525458,1397.3545957999304,None,1397.854284199886,None,1397.854284199886,None,r,0.11866459995508194,1397.854284199886,None,0.11866459995508194,,,78 sing,001,2022_Nov_15_1453,ProdSingRedoBetween,2021.2.3,59.95904806319269,
,,,,165,0,165,0,,,,,,,,,,,,,,,,,,,,,,1400.6402596002445,None,,,,,,,,,,,,,,,,,hearing,148,166,sing,new,null,1398.4933083001524,None,1398.4933083001524,None,3,1.0796982999891043,1398.4933083001524,None,1.0796982999891043,1399.5905396007001,None,1400.0897607998922,None,1400.0897607998922,None,r,0.5231165001168847,1400.0897607998922,None,0.5231165001168847,,,78 sing,001,2022_Nov_15_1453,ProdSingRedoBetween,2021.2.3,59.95904806319269,
,,,,166,0,166,0,,,,,,,,,,,,,,,,,,,,,,1403.1426408002153,None,,,,,,,,,,,,,,,,,quick,88,167,sing,old,red,1401.1492804000154,None,1401.1492804000154,None,2,0.9997729994356632,1401.1492804000154,None,0.9997729994356632,1402.1784222004935,None,1402.6923436000943,None,1402.6923436000943,None,r,0.4245731998234987,1402.6923436000943,None,0.4245731998234987,,,78 sing,001,2022_Nov_15_1453,ProdSingRedoBetween,2021.2.3,59.95904806319269,
,,,,167,0,167,0,,,,,,,,,,,,,,,,,,,,,,1405.5952014001086,None,,,,,,,,,,,,,,,,,motion,34,168,sing,old,blue,1403.6530453003943,None,1403.6530453003943,None,3,0.8798720994964242,1403.6530453003943,None,0.8798720994964242,1404.5606408007443,None,1405.061545399949,None,1405.061545399949,None,r,0.5034143002703786,1405.061545399949,None,0.5034143002703786,,,78 sing,001,2022_Nov_15_1453,ProdSingRedoBetween,2021.2.3,59.95904806319269,
,,,,168,0,168,0,,,,,,,,,,,,,,,,,,,,,,1407.6305862003937,None,,,,,,,,,,,,,,,,,universal,78,169,sing,old,red,1406.1109819998965,None,1406.1109819998965,None,4,0.9499295996502042,1406.1109819998965,None,0.9499295996502042,1407.0849047005177,None,1407.5972748007625,None,1407.5972748007625,None,r,0.015617799945175648,1407.5972748007625,None,0.015617799945175648,,,78 sing,001,2022_Nov_15_1453,ProdSingRedoBetween,2021.2.3,59.95904806319269,
,,,,169,0,169,0,,,,,,,,,,,,,,,,,,,,,,1410.0330329006538,None,,,,,,,,,,,,,,,,,mayor,54,170,sing,old,blue,1408.1397402007133,None,1408.1397402007133,None,2,1.0972010996192694,1408.1397402007133,None,1.0972010996192694,1409.266532599926,None,1409.7661843001842,None,1409.7661843001842,None,r,0.24685140047222376,1409.7661843001842,None,0.24685140047222376,,,78 sing,001,2022_Nov_15_1453,ProdSingRedoBetween,2021.2.3,59.95904806319269,
,,,,170,0,170,0,,,,,,,,,,,,,,,,,,,,,,1412.1707403007895,None,,,,,,,,,,,,,,,,,figure,74,171,sing,old,red,1410.5451521007344,None,1410.5451521007344,None,6,0.9877074994146824,1410.5451521007344,None,0.9877074994146824,1411.556548400782,None,1412.0731580005959,None,1412.0731580005959,None,r,0.06782529968768358,1412.0731580005959,None,0.06782529968768358,,,78 sing,001,2022_Nov_15_1453,ProdSingRedoBetween,2021.2.3,59.95904806319269,
,,,,171,0,171,0,,,,,,,,,,,,,,,,,,,,,,1414.470704300329,None,,,,,,,,,,,,,,,,,sleep,125,172,sing,new,null,1412.6915366007015,None,1412.6915366007015,None,3,1.0412769000977278,1412.6915366007015,None,1.0412769000977278,1413.7562858005986,None,1414.2740211999044,None,1414.2740211999044,None,r,0.1789371995255351,1414.2740211999044,None,0.1789371995255351,,,78 sing,001,2022_Nov_15_1453,ProdSingRedoBetween,2021.2.3,59.95904806319269,
,,,,172,0,172,0,,,,,,,,,,,,,,,,,,,,,,1416.5728221004829,None,,,,,,,,,,,,,,,,,degree,51,173,sing,old,blue,1414.9771912004799,None,1414.9771912004799,None,6,0.8916809996590018,1414.9771912004799,None,0.8916809996590018,1415.8887157002464,None,1416.3925886005163,None,1416.3925886005163,None,r,0.1564851002767682,1416.3925886005163,None,0.1564851002767682,,,78 sing,001,2022_Nov_15_1453,ProdSingRedoBetween,2021.2.3,59.95904806319269,
,,,,173,0,173,0,,,,,,,,,,,,,,,,,,,,,,1418.9452352998778,None,,,,,,,,,,,,,,,,,safety,133,174,sing,new,null,1417.0735431006178,None,1417.0735431006178,None,4,1.027556300163269,1417.0735431006178,None,1.027556300163269,1418.1257750000805,None,1418.6285926001146,None,1418.6285926001146,None,r,0.2883172994479537,1418.6285926001146,None,0.2883172994479537,,,78 sing,001,2022_Nov_15_1453,ProdSingRedoBetween,2021.2.3,59.95904806319269,
,,,,174,0,174,0,,,,,,,,,,,,,,,,,,,,,,1421.1604748005047,None,,,,,,,,,,,,,,,,,south,31,175,sing,old,blue,1419.458868900314,None,1419.458868900314,None,1,0.994073299691081,1419.458868900314,None,0.994073299691081,1420.4885948002338,None,1420.994346600026,None,1420.994346600026,None,r,0.1465655006468296,1420.994346600026,None,0.1465655006468296,,,78 sing,001,2022_Nov_15_1453,ProdSingRedoBetween,2021.2.3,59.95904806319269,
,,,,175,0,175,0,,,,,,,,,,,,,,,,,,,,,,1423.597444999963,None,,,,,,,,,,,,,,,,,general,3,176,sing,old,yellow,1421.6706322003156,None,1421.6706322003156,None,2,1.302263299934566,1421.6706322003156,None,1.302263299934566,1422.9969145003706,None,1423.4964855005965,None,1423.4964855005965,None,r,0.08445800002664328,1423.4964855005965,None,0.08445800002664328,,,78 sing,001,2022_Nov_15_1453,ProdSingRedoBetween,2021.2.3,59.95904806319269,
