StudyLoop.thisRepN,StudyLoop.thisTrialN,StudyLoop.thisN,StudyLoop.thisIndex,TestLoop.thisRepN,TestLoop.thisTrialN,TestLoop.thisN,TestLoop.thisIndex,textCondition.started,textCondition.stopped,keyCondition.keys,keyCondition.rt,keyCondition.started,keyCondition.stopped,Condition,textWelcome.started,textWelcome.stopped,keyWelcome.keys,keyWelcome.rt,keyWelcome.started,keyWelcome.stopped,textAloud.started,textAloud.stopped,textSilent.started,textSilent.stopped,textSing.started,textSing.stopped,conditional_text.started,conditional_text.stopped,textBlank500.started,textBlank500.stopped,study_word,study_num,study_order,study_type,word_color,textStudy.started,textStudy.stopped,keyStudy.keys,keyStudy.rt,keyStudy.started,keyStudy.stopped,textTestInstructions.started,textTestInstructions.stopped,key_resp_3.keys,key_resp_3.rt,key_resp_3.started,key_resp_3.stopped,test_word,test_num,test_order,test_condition,old_new_test,test_word_original_color,textConf.started,textConf.stopped,textConfScale.started,textConfScale.stopped,keyConf.keys,keyConf.rt,keyConf.started,keyConf.stopped,confidence response time,textTestBlank.started,textTestBlank.stopped,textRKN.started,textRKN.stopped,textRKNScale.started,textRKNScale.stopped,keyRKN.keys,keyRKN.rt,keyRKN.started,keyRKN.stopped,rkn response time,textEnd.started,textEnd.stopped,participant,session,date,expName,psychopyVersion,frameRate,
,,,,,,,,34.55875140056014,None,a,4.959316000342369,34.55875140056014,None,,,,,,,,,,,,,,,,,,,,,,,,,,,,,,,,,,,,,,,,,,,,,,,,,,,,,,,,,,,,,,,79 Silent,001,2022_Nov_15_1522,ProdSingRedoBetween,2021.2.3,59.79112566422879,
,,,,,,,,,,,,,,SilentTest,39.55671070050448,None,space,816.3839389998466,39.55671070050448,None,,,,,,,,,,,,,,,,,,,,,,,,,,,,,,,,,,,,,,,,,,,,,,,,,,,,,,,,79 Silent,001,2022_Nov_15_1522,ProdSingRedoBetween,2021.2.3,59.79112566422879,
0,0,0,0,,,,,,,,,,,,,,,,,,39.55671070050448,None,39.55671070050448,None,39.55671070050448,None,39.55671070050448,None,858.4886581003666,None,weight,71,1,silent,red,856.4784384006634,None,space,1.8142210002988577,856.4784384006634,None,,,,,,,,,,,,,,,,,,,,,,,,,,,,,,,,,,,79 Silent,001,2022_Nov_15_1522,ProdSingRedoBetween,2021.2.3,59.79112566422879,
1,0,1,0,,,,,,,,,,,,,,,,,,,,,,,,,,861.0078762006015,None,phrase,76,2,silent,red,858.995816600509,None,space,1.1287462003529072,858.995816600509,None,,,,,,,,,,,,,,,,,,,,,,,,,,,,,,,,,,,79 Silent,001,2022_Nov_15_1522,ProdSingRedoBetween,2021.2.3,59.79112566422879,
2,0,2,0,,,,,,,,,,,,,,,,,,,,,,,,,,863.5270560001954,None,object,44,3,silent,blue,861.5144542008638,None,space,1.090387599542737,861.5144542008638,None,,,,,,,,,,,,,,,,,,,,,,,,,,,,,,,,,,,79 Silent,001,2022_Nov_15_1522,ProdSingRedoBetween,2021.2.3,59.79112566422879,
3,0,3,0,,,,,,,,,,,,,,,,,,,,,,,,,,866.0461797006428,None,people,3,4,silent,yellow,864.0334865003824,None,space,0.8753208005800843,864.0334865003824,None,,,,,,,,,,,,,,,,,,,,,,,,,,,,,,,,,,,79 Silent,001,2022_Nov_15_1522,ProdSingRedoBetween,2021.2.3,59.79112566422879,
4,0,4,0,,,,,,,,,,,,,,,,,,,,,,,,,,868.5653219008818,None,search,29,5,silent,blue,866.5511466003954,None,space,0.8374590994790196,866.5511466003954,None,,,,,,,,,,,,,,,,,,,,,,,,,,,,,,,,,,,79 Silent,001,2022_Nov_15_1522,ProdSingRedoBetween,2021.2.3,59.79112566422879,
5,0,5,0,,,,,,,,,,,,,,,,,,,,,,,,,,871.0676350006834,None,present,24,6,silent,yellow,869.065873500891,None,space,0.7550202999264002,869.065873500891,None,,,,,,,,,,,,,,,,,,,,,,,,,,,,,,,,,,,79 Silent,001,2022_Nov_15_1522,ProdSingRedoBetween,2021.2.3,59.79112566422879,
6,0,6,0,,,,,,,,,,,,,,,,,,,,,,,,,,873.5702876001596,None,session,89,7,silent,red,871.5706135006621,None,space,0.6980325998738408,871.5706135006621,None,,,,,,,,,,,,,,,,,,,,,,,,,,,,,,,,,,,79 Silent,001,2022_Nov_15_1522,ProdSingRedoBetween,2021.2.3,59.79112566422879,
7,0,7,0,,,,,,,,,,,,,,,,,,,,,,,,,,876.08951440081,None,skill,34,8,silent,blue,874.0741814002395,None,space,0.5863987002521753,874.0741814002395,None,,,,,,,,,,,,,,,,,,,,,,,,,,,,,,,,,,,79 Silent,001,2022_Nov_15_1522,ProdSingRedoBetween,2021.2.3,59.79112566422879,
8,0,8,0,,,,,,,,,,,,,,,,,,,,,,,,,,878.5920928008854,None,prime,2,9,silent,yellow,876.5900493999943,None,space,0.44675320014357567,876.5900493999943,None,,,,,,,,,,,,,,,,,,,,,,,,,,,,,,,,,,,79 Silent,001,2022_Nov_15_1522,ProdSingRedoBetween,2021.2.3,59.79112566422879,
9,0,9,0,,,,,,,,,,,,,,,,,,,,,,,,,,881.11102890037,None,recall,62,10,silent,red,879.0971552003175,None,space,0.5154983997344971,879.0971552003175,None,,,,,,,,,,,,,,,,,,,,,,,,,,,,,,,,,,,79 Silent,001,2022_Nov_15_1522,ProdSingRedoBetween,2021.2.3,59.79112566422879,
10,0,10,0,,,,,,,,,,,,,,,,,,,,,,,,,,883.6136810006574,None,little,18,11,silent,yellow,881.6116813002154,None,space,0.5049300007522106,881.6116813002154,None,,,,,,,,,,,,,,,,,,,,,,,,,,,,,,,,,,,79 Silent,001,2022_Nov_15_1522,ProdSingRedoBetween,2021.2.3,59.79112566422879,
11,0,11,0,,,,,,,,,,,,,,,,,,,,,,,,,,886.1162716001272,None,minute,13,12,silent,yellow,884.1142225004733,None,space,0.5783363999798894,884.1142225004733,None,,,,,,,,,,,,,,,,,,,,,,,,,,,,,,,,,,,79 Silent,001,2022_Nov_15_1522,ProdSingRedoBetween,2021.2.3,59.79112566422879,
12,0,12,0,,,,,,,,,,,,,,,,,,,,,,,,,,888.6351127000526,None,degree,35,13,silent,blue,886.6243571005762,None,space,0.5880663003772497,886.6243571005762,None,,,,,,,,,,,,,,,,,,,,,,,,,,,,,,,,,,,79 Silent,001,2022_Nov_15_1522,ProdSingRedoBetween,2021.2.3,59.79112566422879,
13,0,13,0,,,,,,,,,,,,,,,,,,,,,,,,,,891.1378431003541,None,threat,54,14,silent,blue,889.1385200005025,None,space,0.594026000238955,889.1385200005025,None,,,,,,,,,,,,,,,,,,,,,,,,,,,,,,,,,,,79 Silent,001,2022_Nov_15_1522,ProdSingRedoBetween,2021.2.3,59.79112566422879,
14,0,14,0,,,,,,,,,,,,,,,,,,,,,,,,,,893.6570778004825,None,reach,12,15,silent,yellow,891.6497582001612,None,space,0.451269100420177,891.6497582001612,None,,,,,,,,,,,,,,,,,,,,,,,,,,,,,,,,,,,79 Silent,001,2022_Nov_15_1522,ProdSingRedoBetween,2021.2.3,59.79112566422879,
15,0,15,0,,,,,,,,,,,,,,,,,,,,,,,,,,896.1595603004098,None,message,26,16,silent,yellow,894.1589192003012,None,space,0.5018213000148535,894.1589192003012,None,,,,,,,,,,,,,,,,,,,,,,,,,,,,,,,,,,,79 Silent,001,2022_Nov_15_1522,ProdSingRedoBetween,2021.2.3,59.79112566422879,
16,0,16,0,,,,,,,,,,,,,,,,,,,,,,,,,,898.6620191000402,None,shape,46,17,silent,blue,896.6600319007412,None,space,0.47256969939917326,896.6600319007412,None,,,,,,,,,,,,,,,,,,,,,,,,,,,,,,,,,,,79 Silent,001,2022_Nov_15_1522,ProdSingRedoBetween,2021.2.3,59.79112566422879,
17,0,17,0,,,,,,,,,,,,,,,,,,,,,,,,,,901.181242200546,None,accident,73,18,silent,red,899.1724850004539,None,space,0.4960206998512149,899.1724850004539,None,,,,,,,,,,,,,,,,,,,,,,,,,,,,,,,,,,,79 Silent,001,2022_Nov_15_1522,ProdSingRedoBetween,2021.2.3,59.79112566422879,
18,0,18,0,,,,,,,,,,,,,,,,,,,,,,,,,,903.6837484007701,None,drink,58,19,silent,blue,901.6836757007986,None,space,0.44105289969593287,901.6836757007986,None,,,,,,,,,,,,,,,,,,,,,,,,,,,,,,,,,,,79 Silent,001,2022_Nov_15_1522,ProdSingRedoBetween,2021.2.3,59.79112566422879,
19,0,19,0,,,,,,,,,,,,,,,,,,,,,,,,,,906.2025633007288,None,crime,72,20,silent,red,904.1888247001916,None,space,0.4796013003215194,904.1888247001916,None,,,,,,,,,,,,,,,,,,,,,,,,,,,,,,,,,,,79 Silent,001,2022_Nov_15_1522,ProdSingRedoBetween,2021.2.3,59.79112566422879,
20,0,20,0,,,,,,,,,,,,,,,,,,,,,,,,,,908.7054106006399,None,worker,17,21,silent,yellow,906.7032375000417,None,space,0.4053058000281453,906.7032375000417,None,,,,,,,,,,,,,,,,,,,,,,,,,,,,,,,,,,,79 Silent,001,2022_Nov_15_1522,ProdSingRedoBetween,2021.2.3,59.79112566422879,
21,0,21,0,,,,,,,,,,,,,,,,,,,,,,,,,,911.2079487005249,None,signal,42,22,silent,blue,909.206735400483,None,space,0.42176120076328516,909.206735400483,None,,,,,,,,,,,,,,,,,,,,,,,,,,,,,,,,,,,79 Silent,001,2022_Nov_15_1522,ProdSingRedoBetween,2021.2.3,59.79112566422879,
22,0,22,0,,,,,,,,,,,,,,,,,,,,,,,,,,913.7103666001931,None,mechanical,79,23,silent,red,911.7087632007897,None,space,0.4156598998233676,911.7087632007897,None,,,,,,,,,,,,,,,,,,,,,,,,,,,,,,,,,,,79 Silent,001,2022_Nov_15_1522,ProdSingRedoBetween,2021.2.3,59.79112566422879,
23,0,23,0,,,,,,,,,,,,,,,,,,,,,,,,,,916.2128048008308,None,light,60,24,silent,red,914.2108623003587,None,space,0.35394089948385954,914.2108623003587,None,,,,,,,,,,,,,,,,,,,,,,,,,,,,,,,,,,,79 Silent,001,2022_Nov_15_1522,ProdSingRedoBetween,2021.2.3,59.79112566422879,
24,0,24,0,,,,,,,,,,,,,,,,,,,,,,,,,,918.732142300345,None,charter,63,25,silent,red,916.7477682000026,None,space,0.40057049971073866,916.7477682000026,None,,,,,,,,,,,,,,,,,,,,,,,,,,,,,,,,,,,79 Silent,001,2022_Nov_15_1522,ProdSingRedoBetween,2021.2.3,59.79112566422879,
25,0,25,0,,,,,,,,,,,,,,,,,,,,,,,,,,921.2344803009182,None,author,56,26,silent,blue,919.2324972003698,None,space,0.5639909999445081,919.2324972003698,None,,,,,,,,,,,,,,,,,,,,,,,,,,,,,,,,,,,79 Silent,001,2022_Nov_15_1522,ProdSingRedoBetween,2021.2.3,59.79112566422879,
26,0,26,0,,,,,,,,,,,,,,,,,,,,,,,,,,923.7370780007914,None,concern,83,27,silent,red,921.7353094005957,None,space,0.47716130036860704,921.7353094005957,None,,,,,,,,,,,,,,,,,,,,,,,,,,,,,,,,,,,79 Silent,001,2022_Nov_15_1522,ProdSingRedoBetween,2021.2.3,59.79112566422879,
27,0,27,0,,,,,,,,,,,,,,,,,,,,,,,,,,926.239581300877,None,solution,22,28,silent,yellow,924.2391772000119,None,space,0.36532749980688095,924.2391772000119,None,,,,,,,,,,,,,,,,,,,,,,,,,,,,,,,,,,,79 Silent,001,2022_Nov_15_1522,ProdSingRedoBetween,2021.2.3,59.79112566422879,
28,0,28,0,,,,,,,,,,,,,,,,,,,,,,,,,,928.7420427007601,None,touch,1,29,silent,yellow,926.7427743002772,None,space,0.373798799701035,926.7427743002772,None,,,,,,,,,,,,,,,,,,,,,,,,,,,,,,,,,,,79 Silent,001,2022_Nov_15_1522,ProdSingRedoBetween,2021.2.3,59.79112566422879,
29,0,29,0,,,,,,,,,,,,,,,,,,,,,,,,,,931.2612075004727,None,sound,15,30,silent,yellow,929.2510617002845,None,space,0.44128530006855726,929.2510617002845,None,,,,,,,,,,,,,,,,,,,,,,,,,,,,,,,,,,,79 Silent,001,2022_Nov_15_1522,ProdSingRedoBetween,2021.2.3,59.79112566422879,
30,0,30,0,,,,,,,,,,,,,,,,,,,,,,,,,,933.7637008000165,None,member,4,31,silent,yellow,931.7616616003215,None,space,0.38678770046681166,931.7616616003215,None,,,,,,,,,,,,,,,,,,,,,,,,,,,,,,,,,,,79 Silent,001,2022_Nov_15_1522,ProdSingRedoBetween,2021.2.3,59.79112566422879,
31,0,31,0,,,,,,,,,,,,,,,,,,,,,,,,,,936.2661727005616,None,staff,8,32,silent,yellow,934.2642180006951,None,space,0.3482625000178814,934.2642180006951,None,,,,,,,,,,,,,,,,,,,,,,,,,,,,,,,,,,,79 Silent,001,2022_Nov_15_1522,ProdSingRedoBetween,2021.2.3,59.79112566422879,
32,0,32,0,,,,,,,,,,,,,,,,,,,,,,,,,,938.7853772006929,None,appearance,20,33,silent,yellow,936.773115100339,None,space,0.4154995996505022,936.773115100339,None,,,,,,,,,,,,,,,,,,,,,,,,,,,,,,,,,,,79 Silent,001,2022_Nov_15_1522,ProdSingRedoBetween,2021.2.3,59.79112566422879,
33,0,33,0,,,,,,,,,,,,,,,,,,,,,,,,,,941.2878344003111,None,engineer,21,34,silent,yellow,939.2859712000936,None,space,0.26251430064439774,939.2859712000936,None,,,,,,,,,,,,,,,,,,,,,,,,,,,,,,,,,,,79 Silent,001,2022_Nov_15_1522,ProdSingRedoBetween,2021.2.3,59.79112566422879,
34,0,34,0,,,,,,,,,,,,,,,,,,,,,,,,,,943.7903150003403,None,leader,53,35,silent,blue,941.7893594000489,None,space,0.38302059937268496,941.7893594000489,None,,,,,,,,,,,,,,,,,,,,,,,,,,,,,,,,,,,79 Silent,001,2022_Nov_15_1522,ProdSingRedoBetween,2021.2.3,59.79112566422879,
35,0,35,0,,,,,,,,,,,,,,,,,,,,,,,,,,946.2928747003898,None,suggestion,33,36,silent,blue,944.2922063004225,None,space,0.33626800030469894,944.2922063004225,None,,,,,,,,,,,,,,,,,,,,,,,,,,,,,,,,,,,79 Silent,001,2022_Nov_15_1522,ProdSingRedoBetween,2021.2.3,59.79112566422879,
36,0,36,0,,,,,,,,,,,,,,,,,,,,,,,,,,948.7953260000795,None,portion,36,37,silent,blue,946.7935040006414,None,space,0.3148508006706834,946.7935040006414,None,,,,,,,,,,,,,,,,,,,,,,,,,,,,,,,,,,,79 Silent,001,2022_Nov_15_1522,ProdSingRedoBetween,2021.2.3,59.79112566422879,
37,0,37,0,,,,,,,,,,,,,,,,,,,,,,,,,,951.3145741000772,None,track,47,38,silent,blue,949.3074935004115,None,space,0.34498830046504736,949.3074935004115,None,,,,,,,,,,,,,,,,,,,,,,,,,,,,,,,,,,,79 Silent,001,2022_Nov_15_1522,ProdSingRedoBetween,2021.2.3,59.79112566422879,
38,0,38,0,,,,,,,,,,,,,,,,,,,,,,,,,,953.8337397007272,None,evidence,32,39,silent,blue,951.819258400239,None,space,0.4174096994102001,951.819258400239,None,,,,,,,,,,,,,,,,,,,,,,,,,,,,,,,,,,,79 Silent,001,2022_Nov_15_1522,ProdSingRedoBetween,2021.2.3,59.79112566422879,
39,0,39,0,,,,,,,,,,,,,,,,,,,,,,,,,,956.3534773001447,None,produce,70,40,silent,red,954.3425117004663,None,space,0.4062180994078517,954.3425117004663,None,,,,,,,,,,,,,,,,,,,,,,,,,,,,,,,,,,,79 Silent,001,2022_Nov_15_1522,ProdSingRedoBetween,2021.2.3,59.79112566422879,
40,0,40,0,,,,,,,,,,,,,,,,,,,,,,,,,,958.8552040001377,None,community,80,41,silent,red,956.8534024003893,None,space,0.5268954001367092,956.8534024003893,None,,,,,,,,,,,,,,,,,,,,,,,,,,,,,,,,,,,79 Silent,001,2022_Nov_15_1522,ProdSingRedoBetween,2021.2.3,59.79112566422879,
41,0,41,0,,,,,,,,,,,,,,,,,,,,,,,,,,961.3577158004045,None,debate,78,42,silent,red,959.3582503004,None,space,0.4143780991435051,959.3582503004,None,,,,,,,,,,,,,,,,,,,,,,,,,,,,,,,,,,,79 Silent,001,2022_Nov_15_1522,ProdSingRedoBetween,2021.2.3,59.79112566422879,
42,0,42,0,,,,,,,,,,,,,,,,,,,,,,,,,,963.8601897004992,None,discovery,16,43,silent,yellow,961.8581966003403,None,space,0.4901802996173501,961.8581966003403,None,,,,,,,,,,,,,,,,,,,,,,,,,,,,,,,,,,,79 Silent,001,2022_Nov_15_1522,ProdSingRedoBetween,2021.2.3,59.79112566422879,
43,0,43,0,,,,,,,,,,,,,,,,,,,,,,,,,,966.3627879004925,None,native,86,44,silent,red,964.3607863001525,None,space,0.3956012995913625,964.3607863001525,None,,,,,,,,,,,,,,,,,,,,,,,,,,,,,,,,,,,79 Silent,001,2022_Nov_15_1522,ProdSingRedoBetween,2021.2.3,59.79112566422879,
44,0,44,0,,,,,,,,,,,,,,,,,,,,,,,,,,968.8650397006422,None,breath,57,45,silent,blue,966.8631710000336,None,space,0.35713270027190447,966.8631710000336,None,,,,,,,,,,,,,,,,,,,,,,,,,,,,,,,,,,,79 Silent,001,2022_Nov_15_1522,ProdSingRedoBetween,2021.2.3,59.79112566422879,
45,0,45,0,,,,,,,,,,,,,,,,,,,,,,,,,,971.3675958001986,None,stranger,65,46,silent,red,969.3655724003911,None,space,0.3987012002617121,969.3655724003911,None,,,,,,,,,,,,,,,,,,,,,,,,,,,,,,,,,,,79 Silent,001,2022_Nov_15_1522,ProdSingRedoBetween,2021.2.3,59.79112566422879,
46,0,46,0,,,,,,,,,,,,,,,,,,,,,,,,,,973.870102500543,None,weather,67,47,silent,red,971.8681382006034,None,space,0.3761473000049591,971.8681382006034,None,,,,,,,,,,,,,,,,,,,,,,,,,,,,,,,,,,,79 Silent,001,2022_Nov_15_1522,ProdSingRedoBetween,2021.2.3,59.79112566422879,
47,0,47,0,,,,,,,,,,,,,,,,,,,,,,,,,,976.3725264007226,None,waste,11,48,silent,yellow,974.3707001004368,None,space,0.42558899987488985,974.3707001004368,None,,,,,,,,,,,,,,,,,,,,,,,,,,,,,,,,,,,79 Silent,001,2022_Nov_15_1522,ProdSingRedoBetween,2021.2.3,59.79112566422879,
48,0,48,0,,,,,,,,,,,,,,,,,,,,,,,,,,978.8751045009121,None,minor,66,49,silent,red,976.8730297004804,None,space,0.3712542001157999,976.8730297004804,None,,,,,,,,,,,,,,,,,,,,,,,,,,,,,,,,,,,79 Silent,001,2022_Nov_15_1522,ProdSingRedoBetween,2021.2.3,59.79112566422879,
49,0,49,0,,,,,,,,,,,,,,,,,,,,,,,,,,981.3776661008596,None,department,39,50,silent,blue,979.3755966005847,None,space,0.4126803996041417,979.3755966005847,None,,,,,,,,,,,,,,,,,,,,,,,,,,,,,,,,,,,79 Silent,001,2022_Nov_15_1522,ProdSingRedoBetween,2021.2.3,59.79112566422879,
50,0,50,0,,,,,,,,,,,,,,,,,,,,,,,,,,983.8800602005795,None,brief,85,51,silent,red,981.8781493008137,None,space,0.31810730043798685,981.8781493008137,None,,,,,,,,,,,,,,,,,,,,,,,,,,,,,,,,,,,79 Silent,001,2022_Nov_15_1522,ProdSingRedoBetween,2021.2.3,59.79112566422879,
51,0,51,0,,,,,,,,,,,,,,,,,,,,,,,,,,986.3826589006931,None,trail,27,52,silent,yellow,984.3805615007877,None,space,0.49584650062024593,984.3805615007877,None,,,,,,,,,,,,,,,,,,,,,,,,,,,,,,,,,,,79 Silent,001,2022_Nov_15_1522,ProdSingRedoBetween,2021.2.3,59.79112566422879,
52,0,52,0,,,,,,,,,,,,,,,,,,,,,,,,,,988.902030300349,None,block,64,53,silent,red,986.8893539002165,None,space,0.46698869951069355,986.8893539002165,None,,,,,,,,,,,,,,,,,,,,,,,,,,,,,,,,,,,79 Silent,001,2022_Nov_15_1522,ProdSingRedoBetween,2021.2.3,59.79112566422879,
53,0,53,0,,,,,,,,,,,,,,,,,,,,,,,,,,991.4045256003737,None,dispute,19,54,silent,yellow,989.4023529002443,None,space,0.5459351995959878,989.4023529002443,None,,,,,,,,,,,,,,,,,,,,,,,,,,,,,,,,,,,79 Silent,001,2022_Nov_15_1522,ProdSingRedoBetween,2021.2.3,59.79112566422879,
54,0,54,0,,,,,,,,,,,,,,,,,,,,,,,,,,993.9070506002754,None,month,77,55,silent,red,991.90500740055,None,space,0.3473831005394459,991.90500740055,None,,,,,,,,,,,,,,,,,,,,,,,,,,,,,,,,,,,79 Silent,001,2022_Nov_15_1522,ProdSingRedoBetween,2021.2.3,59.79112566422879,
55,0,55,0,,,,,,,,,,,,,,,,,,,,,,,,,,996.4094655001536,None,discussion,23,56,silent,yellow,994.4075679006055,None,space,0.38873619958758354,994.4075679006055,None,,,,,,,,,,,,,,,,,,,,,,,,,,,,,,,,,,,79 Silent,001,2022_Nov_15_1522,ProdSingRedoBetween,2021.2.3,59.79112566422879,
56,0,56,0,,,,,,,,,,,,,,,,,,,,,,,,,,998.9118763003498,None,contract,9,57,silent,yellow,996.9098616000265,None,space,0.4785187002271414,996.9098616000265,None,,,,,,,,,,,,,,,,,,,,,,,,,,,,,,,,,,,79 Silent,001,2022_Nov_15_1522,ProdSingRedoBetween,2021.2.3,59.79112566422879,
57,0,57,0,,,,,,,,,,,,,,,,,,,,,,,,,,1001.4312080005184,None,order,40,58,silent,blue,999.4169597001746,None,space,0.48349929973483086,999.4169597001746,None,,,,,,,,,,,,,,,,,,,,,,,,,,,,,,,,,,,79 Silent,001,2022_Nov_15_1522,ProdSingRedoBetween,2021.2.3,59.79112566422879,
58,0,58,0,,,,,,,,,,,,,,,,,,,,,,,,,,1003.9336592005566,None,literature,68,59,silent,red,1001.9315788000822,None,space,0.40080379974097013,1001.9315788000822,None,,,,,,,,,,,,,,,,,,,,,,,,,,,,,,,,,,,79 Silent,001,2022_Nov_15_1522,ProdSingRedoBetween,2021.2.3,59.79112566422879,
59,0,59,0,,,,,,,,,,,,,,,,,,,,,,,,,,1006.4358923006803,None,burden,45,60,silent,blue,1004.4341991003603,None,space,0.45803309977054596,1004.4341991003603,None,,,,,,,,,,,,,,,,,,,,,,,,,,,,,,,,,,,79 Silent,001,2022_Nov_15_1522,ProdSingRedoBetween,2021.2.3,59.79112566422879,
60,0,60,0,,,,,,,,,,,,,,,,,,,,,,,,,,1008.9386978000402,None,birth,75,61,silent,red,1006.9362459005788,None,space,0.34004610031843185,1006.9362459005788,None,,,,,,,,,,,,,,,,,,,,,,,,,,,,,,,,,,,79 Silent,001,2022_Nov_15_1522,ProdSingRedoBetween,2021.2.3,59.79112566422879,
61,0,61,0,,,,,,,,,,,,,,,,,,,,,,,,,,1011.4409526009113,None,permit,49,62,silent,blue,1009.439264700748,None,space,0.3570541003718972,1009.439264700748,None,,,,,,,,,,,,,,,,,,,,,,,,,,,,,,,,,,,79 Silent,001,2022_Nov_15_1522,ProdSingRedoBetween,2021.2.3,59.79112566422879,
62,0,62,0,,,,,,,,,,,,,,,,,,,,,,,,,,1013.9437189009041,None,pancakes,84,63,silent,red,1011.9414975000545,None,space,0.4630196997895837,1011.9414975000545,None,,,,,,,,,,,,,,,,,,,,,,,,,,,,,,,,,,,79 Silent,001,2022_Nov_15_1522,ProdSingRedoBetween,2021.2.3,59.79112566422879,
63,0,63,0,,,,,,,,,,,,,,,,,,,,,,,,,,1016.4461804004386,None,nature,28,64,silent,yellow,1014.4470349000767,None,space,0.4852649001404643,1014.4470349000767,None,,,,,,,,,,,,,,,,,,,,,,,,,,,,,,,,,,,79 Silent,001,2022_Nov_15_1522,ProdSingRedoBetween,2021.2.3,59.79112566422879,
64,0,64,0,,,,,,,,,,,,,,,,,,,,,,,,,,1018.9485511006787,None,education,51,65,silent,blue,1016.947886700742,None,space,0.4086683001369238,1016.947886700742,None,,,,,,,,,,,,,,,,,,,,,,,,,,,,,,,,,,,79 Silent,001,2022_Nov_15_1522,ProdSingRedoBetween,2021.2.3,59.79112566422879,
65,0,65,0,,,,,,,,,,,,,,,,,,,,,,,,,,1021.4511592006311,None,colonel,52,66,silent,blue,1019.4488548003137,None,space,0.41945580020546913,1019.4488548003137,None,,,,,,,,,,,,,,,,,,,,,,,,,,,,,,,,,,,79 Silent,001,2022_Nov_15_1522,ProdSingRedoBetween,2021.2.3,59.79112566422879,
66,0,66,0,,,,,,,,,,,,,,,,,,,,,,,,,,1023.9535328000784,None,piece,6,67,silent,yellow,1021.9516290007159,None,space,0.4609527001157403,1021.9516290007159,None,,,,,,,,,,,,,,,,,,,,,,,,,,,,,,,,,,,79 Silent,001,2022_Nov_15_1522,ProdSingRedoBetween,2021.2.3,59.79112566422879,
67,0,67,0,,,,,,,,,,,,,,,,,,,,,,,,,,1026.456132600084,None,murder,87,68,silent,red,1024.4551134007052,None,space,0.5331961996853352,1024.4551134007052,None,,,,,,,,,,,,,,,,,,,,,,,,,,,,,,,,,,,79 Silent,001,2022_Nov_15_1522,ProdSingRedoBetween,2021.2.3,59.79112566422879,
68,0,68,0,,,,,,,,,,,,,,,,,,,,,,,,,,1028.9752306006849,None,character,59,69,silent,yellow,1026.9660179000348,None,space,0.49424139969050884,1026.9660179000348,None,,,,,,,,,,,,,,,,,,,,,,,,,,,,,,,,,,,79 Silent,001,2022_Nov_15_1522,ProdSingRedoBetween,2021.2.3,59.79112566422879,
69,0,69,0,,,,,,,,,,,,,,,,,,,,,,,,,,1031.4777671005577,None,taste,74,70,silent,red,1029.4760971004143,None,space,0.40817200019955635,1029.4760971004143,None,,,,,,,,,,,,,,,,,,,,,,,,,,,,,,,,,,,79 Silent,001,2022_Nov_15_1522,ProdSingRedoBetween,2021.2.3,59.79112566422879,
70,0,70,0,,,,,,,,,,,,,,,,,,,,,,,,,,1033.9803110007197,None,mayor,10,71,silent,yellow,1031.978309600614,None,space,0.46607229951769114,1031.978309600614,None,,,,,,,,,,,,,,,,,,,,,,,,,,,,,,,,,,,79 Silent,001,2022_Nov_15_1522,ProdSingRedoBetween,2021.2.3,59.79112566422879,
71,0,71,0,,,,,,,,,,,,,,,,,,,,,,,,,,1036.482815200463,None,turkey,82,72,silent,red,1034.4815331008285,None,space,0.394662800244987,1034.4815331008285,None,,,,,,,,,,,,,,,,,,,,,,,,,,,,,,,,,,,79 Silent,001,2022_Nov_15_1522,ProdSingRedoBetween,2021.2.3,59.79112566422879,
72,0,72,0,,,,,,,,,,,,,,,,,,,,,,,,,,1038.9852668000385,None,society,30,73,silent,blue,1036.9832231001928,None,space,0.5409785006195307,1036.9832231001928,None,,,,,,,,,,,,,,,,,,,,,,,,,,,,,,,,,,,79 Silent,001,2022_Nov_15_1522,ProdSingRedoBetween,2021.2.3,59.79112566422879,
73,0,73,0,,,,,,,,,,,,,,,,,,,,,,,,,,1041.5045082001016,None,agency,43,74,silent,blue,1039.491707100533,None,space,0.6808165004476905,1039.491707100533,None,,,,,,,,,,,,,,,,,,,,,,,,,,,,,,,,,,,79 Silent,001,2022_Nov_15_1522,ProdSingRedoBetween,2021.2.3,59.79112566422879,
74,0,74,0,,,,,,,,,,,,,,,,,,,,,,,,,,1044.0067404005677,None,production,0,75,silent,yellow,1042.0050114002079,None,space,0.5511493999511003,1042.0050114002079,None,,,,,,,,,,,,,,,,,,,,,,,,,,,,,,,,,,,79 Silent,001,2022_Nov_15_1522,ProdSingRedoBetween,2021.2.3,59.79112566422879,
75,0,75,0,,,,,,,,,,,,,,,,,,,,,,,,,,1046.5094182007015,None,general,81,76,silent,red,1044.507735600695,None,space,0.6645573005080223,1044.507735600695,None,,,,,,,,,,,,,,,,,,,,,,,,,,,,,,,,,,,79 Silent,001,2022_Nov_15_1522,ProdSingRedoBetween,2021.2.3,59.79112566422879,
76,0,76,0,,,,,,,,,,,,,,,,,,,,,,,,,,1049.0121051007882,None,committee,50,77,silent,blue,1047.0103884004056,None,space,0.6417894996702671,1047.0103884004056,None,,,,,,,,,,,,,,,,,,,,,,,,,,,,,,,,,,,79 Silent,001,2022_Nov_15_1522,ProdSingRedoBetween,2021.2.3,59.79112566422879,
77,0,77,0,,,,,,,,,,,,,,,,,,,,,,,,,,1051.5310321003199,None,season,14,78,silent,yellow,1049.5241045001894,None,space,0.5121948001906276,1049.5241045001894,None,,,,,,,,,,,,,,,,,,,,,,,,,,,,,,,,,,,79 Silent,001,2022_Nov_15_1522,ProdSingRedoBetween,2021.2.3,59.79112566422879,
78,0,78,0,,,,,,,,,,,,,,,,,,,,,,,,,,1054.0337121002376,None,incident,5,79,silent,yellow,1052.031451800838,None,space,0.5888113994151354,1052.031451800838,None,,,,,,,,,,,,,,,,,,,,,,,,,,,,,,,,,,,79 Silent,001,2022_Nov_15_1522,ProdSingRedoBetween,2021.2.3,59.79112566422879,
79,0,79,0,,,,,,,,,,,,,,,,,,,,,,,,,,1056.5360799003392,None,carry,61,80,silent,red,1054.536464500241,None,space,0.5318620000034571,1054.536464500241,None,,,,,,,,,,,,,,,,,,,,,,,,,,,,,,,,,,,79 Silent,001,2022_Nov_15_1522,ProdSingRedoBetween,2021.2.3,59.79112566422879,
80,0,80,0,,,,,,,,,,,,,,,,,,,,,,,,,,1059.0387911004946,None,notice,55,81,silent,blue,1057.0361690009013,None,space,0.5280674993991852,1057.0361690009013,None,,,,,,,,,,,,,,,,,,,,,,,,,,,,,,,,,,,79 Silent,001,2022_Nov_15_1522,ProdSingRedoBetween,2021.2.3,59.79112566422879,
81,0,81,0,,,,,,,,,,,,,,,,,,,,,,,,,,1061.5410750005394,None,company,41,82,silent,blue,1059.5389099000022,None,space,0.5615341002121568,1059.5389099000022,None,,,,,,,,,,,,,,,,,,,,,,,,,,,,,,,,,,,79 Silent,001,2022_Nov_15_1522,ProdSingRedoBetween,2021.2.3,59.79112566422879,
82,0,82,0,,,,,,,,,,,,,,,,,,,,,,,,,,1064.0435742000118,None,interior,31,83,silent,blue,1062.04158390034,None,space,0.45064490009099245,1062.04158390034,None,,,,,,,,,,,,,,,,,,,,,,,,,,,,,,,,,,,79 Silent,001,2022_Nov_15_1522,ProdSingRedoBetween,2021.2.3,59.79112566422879,
83,0,83,0,,,,,,,,,,,,,,,,,,,,,,,,,,1066.5460219001397,None,fashion,37,84,silent,blue,1064.544532400556,None,space,0.6436783000826836,1064.544532400556,None,,,,,,,,,,,,,,,,,,,,,,,,,,,,,,,,,,,79 Silent,001,2022_Nov_15_1522,ProdSingRedoBetween,2021.2.3,59.79112566422879,
84,0,84,0,,,,,,,,,,,,,,,,,,,,,,,,,,1069.0484028002247,None,space,69,85,silent,red,1067.0472680004314,None,space,0.8289336999878287,1067.0472680004314,None,,,,,,,,,,,,,,,,,,,,,,,,,,,,,,,,,,,79 Silent,001,2022_Nov_15_1522,ProdSingRedoBetween,2021.2.3,59.79112566422879,
85,0,85,0,,,,,,,,,,,,,,,,,,,,,,,,,,1071.5509709008038,None,interview,38,86,silent,blue,1069.5495761008933,None,space,1.3267833003774285,1069.5495761008933,None,,,,,,,,,,,,,,,,,,,,,,,,,,,,,,,,,,,79 Silent,001,2022_Nov_15_1522,ProdSingRedoBetween,2021.2.3,59.79112566422879,
86,0,86,0,,,,,,,,,,,,,,,,,,,,,,,,,,1074.0700289001688,None,welcome,88,87,silent,red,1072.0601441999897,None,space,1.2239378998056054,1072.0601441999897,None,,,,,,,,,,,,,,,,,,,,,,,,,,,,,,,,,,,79 Silent,001,2022_Nov_15_1522,ProdSingRedoBetween,2021.2.3,59.79112566422879,
87,0,87,0,,,,,,,,,,,,,,,,,,,,,,,,,,1076.5723869008943,None,guard,48,88,silent,blue,1074.5706842001528,None,space,0.8894036002457142,1074.5706842001528,None,,,,,,,,,,,,,,,,,,,,,,,,,,,,,,,,,,,79 Silent,001,2022_Nov_15_1522,ProdSingRedoBetween,2021.2.3,59.79112566422879,
88,0,88,0,,,,,,,,,,,,,,,,,,,,,,,,,,1079.0749975005165,None,primary,7,89,silent,yellow,1077.0732801007107,None,space,0.6748065995052457,1077.0732801007107,None,,,,,,,,,,,,,,,,,,,,,,,,,,,,,,,,,,,79 Silent,001,2022_Nov_15_1522,ProdSingRedoBetween,2021.2.3,59.79112566422879,
89,0,89,0,,,,,,,,,,,,,,,,,,,,,,,,,,1081.5773071004078,None,cross,25,90,silent,yellow,1079.575394200161,None,space,0.612678200006485,1079.575394200161,None,,,,,,,,,,,,,,,,,,,,,,,,,,,,,,,,,,,79 Silent,001,2022_Nov_15_1522,ProdSingRedoBetween,2021.2.3,59.79112566422879,
,,,,,,,,,,,,,,,,,,,,,,,,,,,,,,,,,,,,,,,,,,1082.0782312005758,None,k,225.1735606007278,1082.0782312005758,None,,,,,,,,,,,,,,,,,,,,,,,,,,,,,79 Silent,001,2022_Nov_15_1522,ProdSingRedoBetween,2021.2.3,59.79112566422879,
,,,,0,0,0,0,,,,,,,,,,,,,,,,,,,,,,1330.2424546005204,None,,,,,,,,,,,,,,,,,,phrase,76,1,silent,old,red,1307.7729790005833,None,1307.7729790005833,None,1,6.782986399717629,1307.7729790005833,None,6.782986399717629,1314.5885225003585,None,1315.1057479009032,None,1315.1057479009032,None,f,15.105976600199938,1315.1057479009032,None,15.105976600199938,,,79 Silent,001,2022_Nov_15_1522,ProdSingRedoBetween,2021.2.3,59.79112566422879,
,,,,1,0,1,0,,,,,,,,,,,,,,,,,,,,,,1348.244096500799,None,,,,,,,,,,,,,,,,,,pressure,115,2,silent,new,null,1330.7584273004904,None,1330.7584273004904,None,6,8.237316600047052,1330.7584273004904,None,8.237316600047052,1339.0192188005894,None,1339.5209214007482,None,1339.5209214007482,None,f,8.706723500043154,1339.5209214007482,None,8.706723500043154,,,79 Silent,001,2022_Nov_15_1522,ProdSingRedoBetween,2021.2.3,59.79112566422879,
,,,,2,0,2,0,,,,,,,,,,,,,,,,,,,,,,1361.55695520062,None,,,,,,,,,,,,,,,,,,benefit,157,3,silent,new,null,1348.7480293000117,None,1348.7480293000117,None,6,6.071675599552691,1348.7480293000117,None,6.071675599552691,1354.8530741007999,None,1355.3753364002332,None,1355.3753364002332,None,r,6.156366400420666,1355.3753364002332,None,6.156366400420666,,,79 Silent,001,2022_Nov_15_1522,ProdSingRedoBetween,2021.2.3,59.79112566422879,
,,,,3,0,3,0,,,,,,,,,,,,,,,,,,,,,,1371.4668272007257,None,,,,,,,,,,,,,,,,,,season,14,4,silent,old,yellow,1362.068436600268,None,1362.068436600268,None,6,4.215254999697208,1362.068436600268,None,4.215254999697208,1366.3128342004493,None,1366.8136180005968,None,1366.8136180005968,None,r,4.630092799663544,1366.8136180005968,None,4.630092799663544,,,79 Silent,001,2022_Nov_15_1522,ProdSingRedoBetween,2021.2.3,59.79112566422879,
,,,,4,0,4,0,,,,,,,,,,,,,,,,,,,,,,1383.9293499002233,None,,,,,,,,,,,,,,,,,,entrance,174,5,silent,new,null,1371.9733523000032,None,1371.9733523000032,None,1,6.6623724000528455,1371.9733523000032,None,6.6623724000528455,1378.6620094003156,None,1379.179446700029,None,1379.179446700029,None,f,4.728218299336731,1379.179446700029,None,4.728218299336731,,,79 Silent,001,2022_Nov_15_1522,ProdSingRedoBetween,2021.2.3,59.79112566422879,
,,,,5,0,5,0,,,,,,,,,,,,,,,,,,,,,,1395.4631605008617,None,,,,,,,,,,,,,,,,,,incident,5,6,silent,old,yellow,1384.4362648008391,None,1384.4362648008391,None,6,7.351437399163842,1384.4362648008391,None,7.351437399163842,1391.8037935001776,None,1392.310425400734,None,1392.310425400734,None,f,3.1253891000524163,1392.310425400734,None,3.1253891000524163,,,79 Silent,001,2022_Nov_15_1522,ProdSingRedoBetween,2021.2.3,59.79112566422879,
,,,,6,0,6,0,,,,,,,,,,,,,,,,,,,,,,1404.3836117004976,None,,,,,,,,,,,,,,,,,,broad,134,7,silent,new,null,1395.9762827008963,None,1395.9762827008963,None,6,3.5633586002513766,1395.9762827008963,None,3.5633586002513766,1399.563318100758,None,1400.08012060076,None,1400.08012060076,None,f,4.275412700138986,1400.08012060076,None,4.275412700138986,,,79 Silent,001,2022_Nov_15_1522,ProdSingRedoBetween,2021.2.3,59.79112566422879,
,,,,7,0,7,0,,,,,,,,,,,,,,,,,,,,,,1412.390785900876,None,,,,,,,,,,,,,,,,,,light,60,8,silent,old,red,1404.8843737002462,None,1404.8843737002462,None,6,4.6952697997912765,1404.8843737002462,None,4.6952697997912765,1409.6066680001095,None,1410.1243530008942,None,1410.1243530008942,None,f,2.2392167998477817,1410.1243530008942,None,2.2392167998477817,,,79 Silent,001,2022_Nov_15_1522,ProdSingRedoBetween,2021.2.3,59.79112566422879,
,,,,8,0,8,0,,,,,,,,,,,,,,,,,,,,,,1421.650220000185,None,,,,,,,,,,,,,,,,,,recall,62,9,silent,old,red,1412.8996976008639,None,1412.8996976008639,None,6,3.5439186999574304,1412.8996976008639,None,3.5439186999574304,1416.467458200641,None,1416.980948600918,None,1416.980948600918,None,f,4.638654300011694,1416.980948600918,None,4.638654300011694,,,79 Silent,001,2022_Nov_15_1522,ProdSingRedoBetween,2021.2.3,59.79112566422879,
,,,,9,0,9,0,,,,,,,,,,,,,,,,,,,,,,1435.664201900363,None,,,,,,,,,,,,,,,,,,spoke,141,10,silent,new,null,1422.1586512001231,None,1422.1586512001231,None,5,7.476920699700713,1422.1586512001231,None,7.476920699700713,1429.6611045002937,None,1430.1754064001143,None,1430.1754064001143,None,f,5.468172799795866,1430.1754064001143,None,5.468172799795866,,,79 Silent,001,2022_Nov_15_1522,ProdSingRedoBetween,2021.2.3,59.79112566422879,
,,,,10,0,10,0,,,,,,,,,,,,,,,,,,,,,,1444.4414297007024,None,,,,,,,,,,,,,,,,,,stranger,65,11,silent,old,red,1436.1735164001584,None,1436.1735164001584,None,1,3.533981299959123,1436.1735164001584,None,3.533981299959123,1439.7401177007705,None,1440.2522124005482,None,1440.2522124005482,None,f,4.167355600744486,1440.2522124005482,None,4.167355600744486,,,79 Silent,001,2022_Nov_15_1522,ProdSingRedoBetween,2021.2.3,59.79112566422879,
,,,,11,0,11,0,,,,,,,,,,,,,,,,,,,,,,1457.4689272008836,None,,,,,,,,,,,,,,,,,,skill,34,12,silent,old,blue,1444.959045900032,None,1444.959045900032,None,6,5.0204483000561595,1444.959045900032,None,5.0204483000561595,1450.0027247006074,None,1450.5185635006055,None,1450.5185635006055,None,f,6.924871500581503,1450.5185635006055,None,6.924871500581503,,,79 Silent,001,2022_Nov_15_1522,ProdSingRedoBetween,2021.2.3,59.79112566422879,
,,,,12,0,12,0,,,,,,,,,,,,,,,,,,,,,,1467.1955536007881,None,,,,,,,,,,,,,,,,,,disease,92,13,silent,new,null,1457.9763987008482,None,1457.9763987008482,None,1,5.923045600764453,1457.9763987008482,None,5.923045600764453,1463.9275541007519,None,1464.4466521004215,None,1464.4466521004215,None,f,2.732942300848663,1464.4466521004215,None,2.732942300848663,,,79 Silent,001,2022_Nov_15_1522,ProdSingRedoBetween,2021.2.3,59.79112566422879,
,,,,13,0,13,0,,,,,,,,,,,,,,,,,,,,,,1474.1045588003471,None,,,,,,,,,,,,,,,,,,taste,74,14,silent,old,red,1467.7117178002372,None,1467.7117178002372,None,6,2.979816099628806,1467.7117178002372,None,2.979816099628806,1470.718056300655,None,1471.2329987008125,None,1471.2329987008125,None,f,2.8505613999441266,1471.2329987008125,None,2.8505613999441266,,,79 Silent,001,2022_Nov_15_1522,ProdSingRedoBetween,2021.2.3,59.79112566422879,
,,,,14,0,14,0,,,,,,,,,,,,,,,,,,,,,,1481.6098307007924,None,,,,,,,,,,,,,,,,,,object,44,15,silent,old,blue,1474.6226368006319,None,1474.6226368006319,None,6,2.3648009998723865,1474.6226368006319,None,2.3648009998723865,1477.0095481006429,None,1477.5255129002035,None,1477.5255129002035,None,f,4.053855000063777,1477.5255129002035,None,4.053855000063777,,,79 Silent,001,2022_Nov_15_1522,ProdSingRedoBetween,2021.2.3,59.79112566422879,
,,,,15,0,15,0,,,,,,,,,,,,,,,,,,,,,,1488.0497883008793,None,,,,,,,,,,,,,,,,,,bureau,103,16,silent,new,null,1482.1196042001247,None,1482.1196042001247,None,1,2.3638674998655915,1482.1196042001247,None,2.3638674998655915,1484.5138067007065,None,1485.0134242000058,None,1485.0134242000058,None,f,3.014039699919522,1485.0134242000058,None,3.014039699919522,,,79 Silent,001,2022_Nov_15_1522,ProdSingRedoBetween,2021.2.3,59.79112566422879,
,,,,16,0,16,0,,,,,,,,,,,,,,,,,,,,,,1497.5552152004093,None,,,,,,,,,,,,,,,,,,mayor,10,17,silent,old,yellow,1488.5572551004589,None,1488.5572551004589,None,1,2.06250930018723,1488.5572551004589,None,2.06250930018723,1490.6459663007408,None,1491.1530497008935,None,1491.1530497008935,None,n,6.362349200062454,1491.1530497008935,None,6.362349200062454,,,79 Silent,001,2022_Nov_15_1522,ProdSingRedoBetween,2021.2.3,59.79112566422879,
,,,,17,0,17,0,,,,,,,,,,,,,,,,,,,,,,1501.663404300809,None,,,,,,,,,,,,,,,,,,finance,167,18,silent,new,null,1498.0633270004764,None,1498.0633270004764,None,1,1.6040524002164602,1498.0633270004764,None,1.6040524002164602,1499.6983796004206,None,1500.212075800635,None,1500.212075800635,None,f,1.431390699930489,1500.212075800635,None,1.431390699930489,,,79 Silent,001,2022_Nov_15_1522,ProdSingRedoBetween,2021.2.3,59.79112566422879,
,,,,18,0,18,0,,,,,,,,,,,,,,,,,,,,,,1509.3543702000752,None,,,,,,,,,,,,,,,,,,discovery,16,19,silent,old,yellow,1502.169354800135,None,1502.169354800135,None,6,3.898041999898851,1502.169354800135,None,3.898041999898851,1506.0852272007614,None,1506.5957110002637,None,1506.5957110002637,None,f,2.735708700492978,1506.5957110002637,None,2.735708700492978,,,79 Silent,001,2022_Nov_15_1522,ProdSingRedoBetween,2021.2.3,59.79112566422879,
,,,,19,0,19,0,,,,,,,,,,,,,,,,,,,,,,1515.8441373007372,None,,,,,,,,,,,,,,,,,,group,118,20,silent,new,null,1509.8663336001337,None,1509.8663336001337,None,1,3.769105799496174,1509.8663336001337,None,3.769105799496174,1513.6611356008798,None,1514.1793126007542,None,1514.1793126007542,None,r,1.6480935998260975,1514.1793126007542,None,1.6480935998260975,,,79 Silent,001,2022_Nov_15_1522,ProdSingRedoBetween,2021.2.3,59.79112566422879,
,,,,20,0,20,0,,,,,,,,,,,,,,,,,,,,,,1522.6173933008686,None,,,,,,,,,,,,,,,,,,present,24,21,silent,old,yellow,1516.355329000391,None,1516.355329000391,None,1,3.2560964999720454,1516.355329000391,None,3.2560964999720454,1519.6342346007004,None,1520.152831800282,None,1520.152831800282,None,f,2.442631999962032,1520.152831800282,None,2.442631999962032,,,79 Silent,001,2022_Nov_15_1522,ProdSingRedoBetween,2021.2.3,59.79112566422879,
,,,,21,0,21,0,,,,,,,,,,,,,,,,,,,,,,1532.243568200618,None,,,,,,,,,,,,,,,,,,sight,143,22,silent,new,null,1523.12397530023,None,1523.12397530023,None,6,6.575561999343336,1523.12397530023,None,6.575561999343336,1529.7345538008958,None,1530.250359300524,None,1530.250359300524,None,f,1.9770518001168966,1530.250359300524,None,1.9770518001168966,,,79 Silent,001,2022_Nov_15_1522,ProdSingRedoBetween,2021.2.3,59.79112566422879,
,,,,22,0,22,0,,,,,,,,,,,,,,,,,,,,,,1545.49047040008,None,,,,,,,,,,,,,,,,,,interview,38,23,silent,old,blue,1532.761415200308,None,1532.761415200308,None,6,9.210095399990678,1532.761415200308,None,9.210095399990678,1541.992370100692,None,1542.5042716003954,None,1542.5042716003954,None,f,2.9711098996922374,1542.5042716003954,None,2.9711098996922374,,,79 Silent,001,2022_Nov_15_1522,ProdSingRedoBetween,2021.2.3,59.79112566422879,
,,,,23,0,23,0,,,,,,,,,,,,,,,,,,,,,,1551.2461079005152,None,,,,,,,,,,,,,,,,,,match,108,24,silent,new,null,1546.0030434001237,None,1546.0030434001237,None,1,2.5043222000822425,1546.0030434001237,None,2.5043222000822425,1548.5326827000827,None,1549.0515976008028,None,1549.0515976008028,None,f,2.167711900547147,1549.0515976008028,None,2.167711900547147,,,79 Silent,001,2022_Nov_15_1522,ProdSingRedoBetween,2021.2.3,59.79112566422879,
,,,,24,0,24,0,,,,,,,,,,,,,,,,,,,,,,1558.153087200597,None,,,,,,,,,,,,,,,,,,symbol,122,25,silent,new,null,1551.7556853005663,None,1551.7556853005663,None,1,1.679653700441122,1551.7556853005663,None,1.679653700441122,1553.4662800002843,None,1553.965610800311,None,1553.965610800311,None,f,4.15773310046643,1553.965610800311,None,4.15773310046643,,,79 Silent,001,2022_Nov_15_1522,ProdSingRedoBetween,2021.2.3,59.79112566422879,
,,,,25,0,25,0,,,,,,,,,,,,,,,,,,,,,,1562.7910419004038,None,,,,,,,,,,,,,,,,,,sound,15,26,silent,old,yellow,1558.6653375001624,None,1558.6653375001624,None,1,2.0340430000796914,1558.6653375001624,None,2.0340430000796914,1560.7259770007804,None,1561.2480755001307,None,1561.2480755001307,None,f,1.515233799815178,1561.2480755001307,None,1.515233799815178,,,79 Silent,001,2022_Nov_15_1522,ProdSingRedoBetween,2021.2.3,59.79112566422879,
,,,,26,0,26,0,,,,,,,,,,,,,,,,,,,,,,1572.6174283009022,None,,,,,,,,,,,,,,,,,,theme,132,27,silent,new,null,1563.2979609007016,None,1563.2979609007016,None,1,2.16155849955976,1563.2979609007016,None,2.16155849955976,1565.4817052008584,None,1565.994252900593,None,1565.994252900593,None,f,6.593216899782419,1565.994252900593,None,6.593216899782419,,,79 Silent,001,2022_Nov_15_1522,ProdSingRedoBetween,2021.2.3,59.79112566422879,
,,,,27,0,27,0,,,,,,,,,,,,,,,,,,,,,,1577.9628708008677,None,,,,,,,,,,,,,,,,,,budget,93,28,silent,new,null,1573.1244898000732,None,1573.1244898000732,None,1,1.950764199718833,1573.1244898000732,None,1.950764199718833,1575.1049793008715,None,1575.6205369001254,None,1575.6205369001254,None,n,2.31107070017606,1575.6205369001254,None,2.31107070017606,,,79 Silent,001,2022_Nov_15_1522,ProdSingRedoBetween,2021.2.3,59.79112566422879,
,,,,28,0,28,0,,,,,,,,,,,,,,,,,,,,,,1583.6328822001815,None,,,,,,,,,,,,,,,,,,search,29,29,silent,old,blue,1578.481641200371,None,1578.481641200371,None,1,2.2736776992678642,1578.481641200371,None,2.2736776992678642,1580.7784893000498,None,1581.2974574007094,None,1581.2974574007094,None,f,2.313902299851179,1581.2974574007094,None,2.313902299851179,,,79 Silent,001,2022_Nov_15_1522,ProdSingRedoBetween,2021.2.3,59.79112566422879,
,,,,29,0,29,0,,,,,,,,,,,,,,,,,,,,,,1587.5156457005069,None,,,,,,,,,,,,,,,,,,figure,173,30,silent,new,null,1584.1569396005943,None,1584.1569396005943,None,1,1.1663752999156713,1584.1569396005943,None,1.1663752999156713,1585.3488371009007,None,1585.8640930000693,None,1585.8640930000693,None,n,1.6351546999067068,1585.8640930000693,None,1.6351546999067068,,,79 Silent,001,2022_Nov_15_1522,ProdSingRedoBetween,2021.2.3,59.79112566422879,
,,,,30,0,30,0,,,,,,,,,,,,,,,,,,,,,,1594.9731349004433,None,,,,,,,,,,,,,,,,,,crime,72,31,silent,old,red,1588.0354501008987,None,1588.0354501008987,None,1,3.407811500132084,1588.0354501008987,None,3.407811500132084,1591.4713946003467,None,1591.9897691002116,None,1591.9897691002116,None,f,2.9655168997123837,1591.9897691002116,None,2.9655168997123837,,,79 Silent,001,2022_Nov_15_1522,ProdSingRedoBetween,2021.2.3,59.79112566422879,
,,,,31,0,31,0,,,,,,,,,,,,,,,,,,,,,,1600.9124148003757,None,,,,,,,,,,,,,,,,,,native,86,32,silent,old,red,1595.4799022004008,None,1595.4799022004008,None,1,1.4593797996640205,1595.4799022004008,None,1.4593797996640205,1596.961112900637,None,1597.4834217000753,None,1597.4834217000753,None,r,3.408059800043702,1597.4834217000753,None,3.408059800043702,,,79 Silent,001,2022_Nov_15_1522,ProdSingRedoBetween,2021.2.3,59.79112566422879,
,,,,32,0,32,0,,,,,,,,,,,,,,,,,,,,,,1604.916343900375,None,,,,,,,,,,,,,,,,,,country,95,33,silent,new,null,1601.4199124006554,None,1601.4199124006554,None,1,1.5353864999487996,1601.4199124006554,None,1.5353864999487996,1602.9838637001812,None,1603.5021484000608,None,1603.5021484000608,None,f,1.3970638997852802,1603.5021484000608,None,1.3970638997852802,,,79 Silent,001,2022_Nov_15_1522,ProdSingRedoBetween,2021.2.3,59.79112566422879,
,,,,33,0,33,0,,,,,,,,,,,,,,,,,,,,,,1610.5052963001654,None,,,,,,,,,,,,,,,,,,count,123,34,silent,new,null,1605.4269009009004,None,1605.4269009009004,None,1,1.9442323995754123,1605.4269009009004,None,1.9442323995754123,1607.407641700469,None,1607.9195003006607,None,1607.9195003006607,None,f,2.555748499929905,1607.9195003006607,None,2.555748499929905,,,79 Silent,001,2022_Nov_15_1522,ProdSingRedoBetween,2021.2.3,59.79112566422879,
,,,,34,0,34,0,,,,,,,,,,,,,,,,,,,,,,1614.0254675000906,None,,,,,,,,,,,,,,,,,,turkey,82,35,silent,old,red,1611.0188868008554,None,1611.0188868008554,None,1,1.3203702997416258,1611.0188868008554,None,1.3203702997416258,1612.3624619003385,None,1612.8744344003499,None,1612.8744344003499,None,f,1.1288659004494548,1612.8744344003499,None,1.1288659004494548,,,79 Silent,001,2022_Nov_15_1522,ProdSingRedoBetween,2021.2.3,59.79112566422879,
,,,,35,0,35,0,,,,,,,,,,,,,,,,,,,,,,1617.7291505001485,None,,,,,,,,,,,,,,,,,,bright,158,36,silent,new,null,1614.533699400723,None,1614.533699400723,None,1,1.2377781998366117,1614.533699400723,None,1.2377781998366117,1615.802834700793,None,1616.311196400784,None,1616.311196400784,None,f,1.3880324000492692,1616.311196400784,None,1.3880324000492692,,,79 Silent,001,2022_Nov_15_1522,ProdSingRedoBetween,2021.2.3,59.79112566422879,
,,,,36,0,36,0,,,,,,,,,,,,,,,,,,,,,,1621.182549500838,None,,,,,,,,,,,,,,,,,,solution,22,37,silent,old,yellow,1618.235843100585,None,1618.235843100585,None,1,1.1354855997487903,1618.235843100585,None,1.1354855997487903,1619.407632600516,None,1619.9176460001618,None,1619.9176460001618,None,f,1.2375611001625657,1619.9176460001618,None,1.2375611001625657,,,79 Silent,001,2022_Nov_15_1522,ProdSingRedoBetween,2021.2.3,59.79112566422879,
,,,,37,0,37,0,,,,,,,,,,,,,,,,,,,,,,1626.4544981000945,None,,,,,,,,,,,,,,,,,,welcome,88,38,silent,old,red,1621.6913944007829,None,1621.6913944007829,None,1,1.6478646006435156,1621.6913944007829,None,1.6478646006435156,1623.3692907001823,None,1623.8785596005619,None,1623.8785596005619,None,f,2.548628400079906,1623.8785596005619,None,2.548628400079906,,,79 Silent,001,2022_Nov_15_1522,ProdSingRedoBetween,2021.2.3,59.79112566422879,
,,,,38,0,38,0,,,,,,,,,,,,,,,,,,,,,,1630.4751254003495,None,,,,,,,,,,,,,,,,,,literature,68,39,silent,old,red,1626.9646065002307,None,1626.9646065002307,None,1,1.5585628002882004,1626.9646065002307,None,1.5585628002882004,1628.5408906005323,None,1629.0404083002359,None,1629.0404083002359,None,f,1.4029582999646664,1629.0404083002359,None,1.4029582999646664,,,79 Silent,001,2022_Nov_15_1522,ProdSingRedoBetween,2021.2.3,59.79112566422879,
,,,,39,0,39,0,,,,,,,,,,,,,,,,,,,,,,1635.196520300582,None,,,,,,,,,,,,,,,,,,orchestra,127,40,silent,new,null,1630.9841505000368,None,1630.9841505000368,None,1,1.323255299590528,1630.9841505000368,None,1.323255299590528,1632.3344673002139,None,1632.8443299001083,None,1632.8443299001083,None,f,2.3268328001722693,1632.8443299001083,None,2.3268328001722693,,,79 Silent,001,2022_Nov_15_1522,ProdSingRedoBetween,2021.2.3,59.79112566422879,
,,,,40,0,40,0,,,,,,,,,,,,,,,,,,,,,,1639.200587800704,None,,,,,,,,,,,,,,,,,,answer,164,41,silent,new,null,1635.700545400381,None,1635.700545400381,None,1,1.2626173002645373,1635.700545400381,None,1.2626173002645373,1636.99071510043,None,1637.4989739004523,None,1637.4989739004523,None,f,1.6723341001197696,1637.4989739004523,None,1.6723341001197696,,,79 Silent,001,2022_Nov_15_1522,ProdSingRedoBetween,2021.2.3,59.79112566422879,
,,,,41,0,41,0,,,,,,,,,,,,,,,,,,,,,,1643.2222580006346,None,,,,,,,,,,,,,,,,,,health,153,42,silent,new,null,1639.7062263004482,None,1639.7062263004482,None,1,1.4649893995374441,1639.7062263004482,None,1.4649893995374441,1641.2048548003659,None,1641.720547400415,None,1641.720547400415,None,r,1.4747529001906514,1641.720547400415,None,1.4747529001906514,,,79 Silent,001,2022_Nov_15_1522,ProdSingRedoBetween,2021.2.3,59.79112566422879,
,,,,42,0,42,0,,,,,,,,,,,,,,,,,,,,,,1649.361259500496,None,,,,,,,,,,,,,,,,,,session,89,43,silent,old,red,1643.727852200158,None,1643.727852200158,None,1,1.24342679977417,1643.727852200158,None,1.24342679977417,1644.9954673005268,None,1645.511457000859,None,1645.511457000859,None,r,3.827727200463414,1645.511457000859,None,3.827727200463414,,,79 Silent,001,2022_Nov_15_1522,ProdSingRedoBetween,2021.2.3,59.79112566422879,
,,,,43,0,43,0,,,,,,,,,,,,,,,,,,,,,,1653.2308996003121,None,,,,,,,,,,,,,,,,,,touch,1,44,silent,old,yellow,1649.8692533001304,None,1649.8692533001304,None,1,1.15822060033679,1649.8692533001304,None,1.15822060033679,1651.0690411003307,None,1651.579713000916,None,1651.579713000916,None,f,1.6234541004523635,1651.579713000916,None,1.6234541004523635,,,79 Silent,001,2022_Nov_15_1522,ProdSingRedoBetween,2021.2.3,59.79112566422879,
,,,,44,0,44,0,,,,,,,,,,,,,,,,,,,,,,1657.721419800073,None,,,,,,,,,,,,,,,,,,majority,135,45,silent,new,null,1653.7402584003285,None,1653.7402584003285,None,1,1.174898900091648,1653.7402584003285,None,1.174898900091648,1654.9357116008177,None,1655.453709400259,None,1655.453709400259,None,r,2.2374922996386886,1655.453709400259,None,2.2374922996386886,,,79 Silent,001,2022_Nov_15_1522,ProdSingRedoBetween,2021.2.3,59.79112566422879,
,,,,45,0,45,0,,,,,,,,,,,,,,,,,,,,,,1661.5728018004447,None,,,,,,,,,,,,,,,,,,threat,54,46,silent,old,blue,1658.2377048004419,None,1658.2377048004419,None,1,1.2134368997067213,1658.2377048004419,None,1.2134368997067213,1659.4707502005622,None,1659.9754065005109,None,1659.9754065005109,None,r,1.5716850999742746,1659.9754065005109,None,1.5716850999742746,,,79 Silent,001,2022_Nov_15_1522,ProdSingRedoBetween,2021.2.3,59.79112566422879,
,,,,46,0,46,0,,,,,,,,,,,,,,,,,,,,,,1664.9094821000472,None,,,,,,,,,,,,,,,,,,exchange,146,47,silent,new,null,1662.0879126004875,None,1662.0879126004875,None,1,1.163311400450766,1662.0879126004875,None,1.163311400450766,1663.2797113005072,None,1663.7919355006889,None,1663.7919355006889,None,f,1.0912528000772,1663.7919355006889,None,1.0912528000772,,,79 Silent,001,2022_Nov_15_1522,ProdSingRedoBetween,2021.2.3,59.79112566422879,
,,,,47,0,47,0,,,,,,,,,,,,,,,,,,,,,,1670.2483999002725,None,,,,,,,,,,,,,,,,,,oxygen,107,48,silent,new,null,1665.4124756008387,None,1665.4124756008387,None,1,0.9907119004055858,1665.4124756008387,None,0.9907119004055858,1666.429070200771,None,1666.9448613002896,None,1666.9448613002896,None,f,3.282300199382007,1666.9448613002896,None,3.282300199382007,,,79 Silent,001,2022_Nov_15_1522,ProdSingRedoBetween,2021.2.3,59.79112566422879,
,,,,48,0,48,0,,,,,,,,,,,,,,,,,,,,,,1674.302228900604,None,,,,,,,,,,,,,,,,,,business,149,49,silent,new,null,1670.757848000154,None,1670.757848000154,None,1,1.0613229991868138,1670.757848000154,None,1.0613229991868138,1671.852872600779,None,1672.3688036007807,None,1672.3688036007807,None,f,1.91447089985013,1672.3688036007807,None,1.91447089985013,,,79 Silent,001,2022_Nov_15_1522,ProdSingRedoBetween,2021.2.3,59.79112566422879,
,,,,49,0,49,0,,,,,,,,,,,,,,,,,,,,,,1680.4249808005989,None,,,,,,,,,,,,,,,,,,brief,85,50,silent,old,red,1674.815073900856,None,1674.815073900856,None,1,1.2921361001208425,1674.815073900856,None,1.2921361001208425,1676.1462453007698,None,1676.6592366006225,None,1676.6592366006225,None,n,3.7440055003389716,1676.6592366006225,None,3.7440055003389716,,,79 Silent,001,2022_Nov_15_1522,ProdSingRedoBetween,2021.2.3,59.79112566422879,
,,,,50,0,50,0,,,,,,,,,,,,,,,,,,,,,,1684.3954735007137,None,,,,,,,,,,,,,,,,,,community,80,51,silent,old,red,1680.9300770005211,None,1680.9300770005211,None,1,1.5530772004276514,1680.9300770005211,None,1.5530772004276514,1682.5118524003774,None,1683.010984800756,None,1683.010984800756,None,f,1.3601470002904534,1683.010984800756,None,1.3601470002904534,,,79 Silent,001,2022_Nov_15_1522,ProdSingRedoBetween,2021.2.3,59.79112566422879,
,,,,51,0,51,0,,,,,,,,,,,,,,,,,,,,,,1690.5042392006144,None,,,,,,,,,,,,,,,,,,mechanical,79,52,silent,old,red,1684.8980054007843,None,1684.8980054007843,None,1,1.7211477998644114,1684.8980054007843,None,1.7211477998644114,1686.648771200329,None,1687.1528910007328,None,1687.1528910007328,None,n,3.3223951002582908,1687.1528910007328,None,3.3223951002582908,,,79 Silent,001,2022_Nov_15_1522,ProdSingRedoBetween,2021.2.3,59.79112566422879,
,,,,52,0,52,0,,,,,,,,,,,,,,,,,,,,,,1698.4596015000716,None,,,,,,,,,,,,,,,,,,evidence,32,53,silent,old,blue,1691.0212278002873,None,1691.0212278002873,None,1,1.5339524000883102,1691.0212278002873,None,1.5339524000883102,1692.578181100078,None,1693.09106240049,None,1693.09106240049,None,f,5.3440425004810095,1693.09106240049,None,5.3440425004810095,,,79 Silent,001,2022_Nov_15_1522,ProdSingRedoBetween,2021.2.3,59.79112566422879,
,,,,53,0,53,0,,,,,,,,,,,,,,,,,,,,,,1703.2311094002798,None,,,,,,,,,,,,,,,,,,period,110,54,silent,new,null,1698.9619462005794,None,1698.9619462005794,None,1,1.3531641997396946,1698.9619462005794,None,1.3531641997396946,1700.3460021000355,None,1700.8454610006884,None,1700.8454610006884,None,f,2.3576189996674657,1700.8454610006884,None,2.3576189996674657,,,79 Silent,001,2022_Nov_15_1522,ProdSingRedoBetween,2021.2.3,59.79112566422879,
,,,,54,0,54,0,,,,,,,,,,,,,,,,,,,,,,1706.8179221004248,None,,,,,,,,,,,,,,,,,,clear,138,55,silent,new,null,1703.7400291003287,None,1703.7400291003287,None,1,1.1030593998730183,1703.7400291003287,None,1.1030593998730183,1704.8670099005103,None,1705.372433100827,None,1705.372433100827,None,f,1.4226633999496698,1705.372433100827,None,1.4226633999496698,,,79 Silent,001,2022_Nov_15_1522,ProdSingRedoBetween,2021.2.3,59.79112566422879,
,,,,55,0,55,0,,,,,,,,,,,,,,,,,,,,,,1711.9064242001623,None,,,,,,,,,,,,,,,,,,cross,25,56,silent,old,yellow,1707.3238263009116,None,1707.3238263009116,None,1,1.1992611000314355,1707.3238263009116,None,1.1992611000314355,1708.5544115006924,None,1709.0594871006906,None,1709.0594871006906,None,r,2.8315885001793504,1709.0594871006906,None,2.8315885001793504,,,79 Silent,001,2022_Nov_15_1522,ProdSingRedoBetween,2021.2.3,59.79112566422879,
,,,,56,0,56,0,,,,,,,,,,,,,,,,,,,,,,1717.928958300501,None,,,,,,,,,,,,,,,,,,guard,48,57,silent,old,blue,1712.4074480002746,None,1712.4074480002746,None,1,1.4595584003254771,1712.4074480002746,None,1.4595584003254771,1713.9013071004301,None,1714.4092817008495,None,1714.4092817008495,None,f,3.4897694997489452,1714.4092817008495,None,3.4897694997489452,,,79 Silent,001,2022_Nov_15_1522,ProdSingRedoBetween,2021.2.3,59.79112566422879,
,,,,57,0,57,0,,,,,,,,,,,,,,,,,,,,,,1721.2823081007227,None,,,,,,,,,,,,,,,,,,company,41,58,silent,old,blue,1718.4507789006457,None,1718.4507789006457,None,1,1.1362336995080113,1718.4507789006457,None,1.1362336995080113,1719.6153224008158,None,1720.1145754000172,None,1720.1145754000172,None,r,1.1365858996286988,1720.1145754000172,None,1.1365858996286988,,,79 Silent,001,2022_Nov_15_1522,ProdSingRedoBetween,2021.2.3,59.79112566422879,
,,,,58,0,58,0,,,,,,,,,,,,,,,,,,,,,,1725.4536619000137,None,,,,,,,,,,,,,,,,,,school,128,59,silent,new,null,1721.7914505004883,None,1721.7914505004883,None,1,1.2999007999897003,1721.7914505004883,None,1.2999007999897003,1723.1240762006491,None,1723.6354228006676,None,1723.6354228006676,None,f,1.7995653999969363,1723.6354228006676,None,1.7995653999969363,,,79 Silent,001,2022_Nov_15_1522,ProdSingRedoBetween,2021.2.3,59.79112566422879,
,,,,59,0,59,0,,,,,,,,,,,,,,,,,,,,,,1733.3277255007997,None,,,,,,,,,,,,,,,,,,society,30,60,silent,old,blue,1725.9670481001958,None,1725.9670481001958,None,1,3.5559890000149608,1725.9670481001958,None,3.5559890000149608,1729.5421228008345,None,1730.0506489006802,None,1730.0506489006802,None,r,3.2484125001356006,1730.0506489006802,None,3.2484125001356006,,,79 Silent,001,2022_Nov_15_1522,ProdSingRedoBetween,2021.2.3,59.79112566422879,
,,,,60,0,60,0,,,,,,,,,,,,,,,,,,,,,,1736.6991414008662,None,,,,,,,,,,,,,,,,,,atmosphere,97,61,silent,new,null,1733.8334502000362,None,1733.8334502000362,None,1,1.2494882000610232,1733.8334502000362,None,1.2494882000610232,1735.1137652006,None,1735.615433100611,None,1735.615433100611,None,f,1.0596258006989956,1735.615433100611,None,1.0596258006989956,,,79 Silent,001,2022_Nov_15_1522,ProdSingRedoBetween,2021.2.3,59.79112566422879,
,,,,61,0,61,0,,,,,,,,,,,,,,,,,,,,,,1740.835188000463,None,,,,,,,,,,,,,,,,,,waste,11,62,silent,old,yellow,1737.2039181003347,None,1737.2039181003347,None,1,1.4312206003814936,1737.2039181003347,None,1.4312206003814936,1738.6674617007375,None,1739.1669946005568,None,1739.1669946005568,None,f,1.6520359003916383,1739.1669946005568,None,1.6520359003916383,,,79 Silent,001,2022_Nov_15_1522,ProdSingRedoBetween,2021.2.3,59.79112566422879,
,,,,62,0,62,0,,,,,,,,,,,,,,,,,,,,,,1745.1228759000078,None,,,,,,,,,,,,,,,,,,weight,71,63,silent,old,red,1741.3391019003466,None,1741.3391019003466,None,1,1.735938400030136,1741.3391019003466,None,1.735938400030136,1743.1081172004342,None,1743.6275696000084,None,1743.6275696000084,None,f,1.4714625999331474,1743.6275696000084,None,1.4714625999331474,,,79 Silent,001,2022_Nov_15_1522,ProdSingRedoBetween,2021.2.3,59.79112566422879,
,,,,63,0,63,0,,,,,,,,,,,,,,,,,,,,,,1750.7286425000057,None,,,,,,,,,,,,,,,,,,direction,117,64,silent,new,null,1745.6321222009137,None,1745.6321222009137,None,1,2.1229351004585624,1745.6321222009137,None,2.1229351004585624,1747.7776046004146,None,1748.300153100863,None,1748.300153100863,None,f,2.4067875994369388,1748.300153100863,None,2.4067875994369388,,,79 Silent,001,2022_Nov_15_1522,ProdSingRedoBetween,2021.2.3,59.79112566422879,
,,,,64,0,64,0,,,,,,,,,,,,,,,,,,,,,,1754.7323549007997,None,,,,,,,,,,,,,,,,,,reading,130,65,silent,new,null,1751.2386867003515,None,1751.2386867003515,None,1,1.6202560998499393,1751.2386867003515,None,1.6202560998499393,1752.8815339002758,None,1753.3812195006758,None,1753.3812195006758,None,r,1.3257933994755149,1753.3812195006758,None,1.3257933994755149,,,79 Silent,001,2022_Nov_15_1522,ProdSingRedoBetween,2021.2.3,59.79112566422879,
,,,,65,0,65,0,,,,,,,,,,,,,,,,,,,,,,1759.2535863006487,None,,,,,,,,,,,,,,,,,,worker,17,66,silent,old,yellow,1755.237693800591,None,1755.237693800591,None,1,1.2773214001208544,1755.237693800591,None,1.2773214001208544,1756.5364838000387,None,1757.0512157008052,None,1757.0512157008052,None,f,2.1757813999429345,1757.0512157008052,None,2.1757813999429345,,,79 Silent,001,2022_Nov_15_1522,ProdSingRedoBetween,2021.2.3,59.79112566422879,
,,,,66,0,66,0,,,,,,,,,,,,,,,,,,,,,,1762.556852900423,None,,,,,,,,,,,,,,,,,,device,179,67,silent,new,null,1759.7619161000475,None,1759.7619161000475,None,1,1.2010892005637288,1759.7619161000475,None,1.2010892005637288,1760.9916962003335,None,1761.5082220006734,None,1761.5082220006734,None,r,1.022699799388647,1761.5082220006734,None,1.022699799388647,,,79 Silent,001,2022_Nov_15_1522,ProdSingRedoBetween,2021.2.3,59.79112566422879,
,,,,67,0,67,0,,,,,,,,,,,,,,,,,,,,,,1767.3116505006328,None,,,,,,,,,,,,,,,,,,background,98,68,silent,new,null,1763.0654987003654,None,1763.0654987003654,None,1,2.089715600013733,1763.0654987003654,None,2.089715600013733,1765.183755600825,None,1765.6934942007065,None,1765.6934942007065,None,f,1.5975105995312333,1765.6934942007065,None,1.5975105995312333,,,79 Silent,001,2022_Nov_15_1522,ProdSingRedoBetween,2021.2.3,59.79112566422879,
,,,,68,0,68,0,,,,,,,,,,,,,,,,,,,,,,1771.33198000025,None,,,,,,,,,,,,,,,,,,fashion,37,69,silent,old,blue,1767.8149415003136,None,1767.8149415003136,None,1,1.1880186004564166,1767.8149415003136,None,1.1880186004564166,1769.0326896002516,None,1769.5473663005978,None,1769.5473663005978,None,f,1.7675786996260285,1769.5473663005978,None,1.7675786996260285,,,79 Silent,001,2022_Nov_15_1522,ProdSingRedoBetween,2021.2.3,59.79112566422879,
,,,,69,0,69,0,,,,,,,,,,,,,,,,,,,,,,1775.0693490002304,None,,,,,,,,,,,,,,,,,,author,56,70,silent,old,blue,1771.8419499006122,None,1771.8419499006122,None,1,1.2649940997362137,1771.8419499006122,None,1.2649940997362137,1773.1341323005036,None,1773.6406912002712,None,1773.6406912002712,None,f,1.4023024998605251,1773.6406912002712,None,1.4023024998605251,,,79 Silent,001,2022_Nov_15_1522,ProdSingRedoBetween,2021.2.3,59.79112566422879,
,,,,70,0,70,0,,,,,,,,,,,,,,,,,,,,,,1778.5730201005936,None,,,,,,,,,,,,,,,,,,title,101,71,silent,new,null,1775.5695747006685,None,1775.5695747006685,None,1,1.1373398005962372,1775.5695747006685,None,1.1373398005962372,1776.7453679004684,None,1777.254702700302,None,1777.254702700302,None,f,1.2922716001048684,1777.254702700302,None,1.2922716001048684,,,79 Silent,001,2022_Nov_15_1522,ProdSingRedoBetween,2021.2.3,59.79112566422879,
,,,,71,0,71,0,,,,,,,,,,,,,,,,,,,,,,1783.5945053007454,None,,,,,,,,,,,,,,,,,,danger,169,72,silent,new,null,1779.0817426005378,None,1779.0817426005378,None,1,1.0172869991511106,1779.0817426005378,None,1.0172869991511106,1780.126117400825,None,1780.641376200132,None,1780.641376200132,None,r,2.921551199629903,1780.641376200132,None,2.921551199629903,,,79 Silent,001,2022_Nov_15_1522,ProdSingRedoBetween,2021.2.3,59.79112566422879,
,,,,72,0,72,0,,,,,,,,,,,,,,,,,,,,,,1787.081060600467,None,,,,,,,,,,,,,,,,,,capital,150,73,silent,new,null,1784.1063362006098,None,1784.1063362006098,None,1,1.1765918005257845,1784.1063362006098,None,1.1765918005257845,1785.3200777005404,None,1785.829920200631,None,1785.829920200631,None,f,1.2208914998918772,1785.829920200631,None,1.2208914998918772,,,79 Silent,001,2022_Nov_15_1522,ProdSingRedoBetween,2021.2.3,59.79112566422879,
,,,,73,0,73,0,,,,,,,,,,,,,,,,,,,,,,1790.534844700247,None,,,,,,,,,,,,,,,,,,husband,100,74,silent,new,null,1787.581923400052,None,1787.581923400052,None,1,1.5329422997310758,1787.581923400052,None,1.5329422997310758,1789.134640100412,None,1789.6387532008812,None,1789.6387532008812,None,f,0.8681210000067949,1789.6387532008812,None,0.8681210000067949,,,79 Silent,001,2022_Nov_15_1522,ProdSingRedoBetween,2021.2.3,59.79112566422879,
,,,,74,0,74,0,,,,,,,,,,,,,,,,,,,,,,1796.8241904005408,None,,,,,,,,,,,,,,,,,,space,69,75,silent,old,red,1791.038898400031,None,1791.038898400031,None,1,2.0199935007840395,1791.038898400031,None,2.0199935007840395,1793.088433000259,None,1793.596016800031,None,1793.596016800031,None,r,3.1989350002259016,1793.596016800031,None,3.1989350002259016,,,79 Silent,001,2022_Nov_15_1522,ProdSingRedoBetween,2021.2.3,59.79112566422879,
,,,,75,0,75,0,,,,,,,,,,,,,,,,,,,,,,1800.0442615002394,None,,,,,,,,,,,,,,,,,,beginning,168,76,silent,new,null,1797.3322693007067,None,1797.3322693007067,None,1,1.1986937997862697,1797.3322693007067,None,1.1986937997862697,1798.5620582001284,None,1799.0911691002548,None,1799.0911691002548,None,f,0.9357659006491303,1799.0911691002548,None,0.9357659006491303,,,79 Silent,001,2022_Nov_15_1522,ProdSingRedoBetween,2021.2.3,59.79112566422879,
,,,,76,0,76,0,,,,,,,,,,,,,,,,,,,,,,1804.882414500229,None,,,,,,,,,,,,,,,,,,strain,152,77,silent,new,null,1800.5544966002926,None,1800.5544966002926,None,1,1.0725932996720076,1800.5544966002926,None,1.0725932996720076,1801.6575784003362,None,1802.1634769001976,None,1802.1634769001976,None,r,2.7034542998299003,1802.1634769001976,None,2.7034542998299003,,,79 Silent,001,2022_Nov_15_1522,ProdSingRedoBetween,2021.2.3,59.79112566422879,
,,,,77,0,77,0,,,,,,,,,,,,,,,,,,,,,,1807.737788100727,None,,,,,,,,,,,,,,,,,,running,166,78,silent,new,null,1805.3867950001732,None,1805.3867950001732,None,1,1.0162295000627637,1805.3867950001732,None,1.0162295000627637,1806.436556700617,None,1806.951300800778,None,1806.951300800778,None,f,0.7638564994558692,1806.951300800778,None,0.7638564994558692,,,79 Silent,001,2022_Nov_15_1522,ProdSingRedoBetween,2021.2.3,59.79112566422879,
,,,,78,0,78,0,,,,,,,,,,,,,,,,,,,,,,1810.8550587007776,None,,,,,,,,,,,,,,,,,,build,112,79,silent,new,null,1808.2584530999884,None,1808.2584530999884,None,1,1.120482200756669,1808.2584530999884,None,1.120482200756669,1809.4093441003934,None,1809.9211387000978,None,1809.9211387000978,None,f,0.9057855000719428,1809.9211387000978,None,0.9057855000719428,,,79 Silent,001,2022_Nov_15_1522,ProdSingRedoBetween,2021.2.3,59.79112566422879,
,,,,79,0,79,0,,,,,,,,,,,,,,,,,,,,,,1815.2594258002937,None,,,,,,,,,,,,,,,,,,break,104,80,silent,new,null,1811.361707600765,None,1811.361707600765,None,1,1.6654121996834874,1811.361707600765,None,1.6654121996834874,1813.0608171001077,None,1813.5802955003455,None,1813.5802955003455,None,f,1.6626535998657346,1813.5802955003455,None,1.6626535998657346,,,79 Silent,001,2022_Nov_15_1522,ProdSingRedoBetween,2021.2.3,59.79112566422879,
,,,,80,0,80,0,,,,,,,,,,,,,,,,,,,,,,1819.9308248003945,None,,,,,,,,,,,,,,,,,,judge,161,81,silent,new,null,1815.7737406007946,None,1815.7737406007946,None,1,1.2530754003673792,1815.7737406007946,None,1.2530754003673792,1817.0510999001563,None,1817.5614846004173,None,1817.5614846004173,None,r,2.345435299910605,1817.5614846004173,None,2.345435299910605,,,79 Silent,001,2022_Nov_15_1522,ProdSingRedoBetween,2021.2.3,59.79112566422879,
,,,,81,0,81,0,,,,,,,,,,,,,,,,,,,,,,1823.4176017008722,None,,,,,,,,,,,,,,,,,,poetry,140,82,silent,new,null,1820.4431545007974,None,1820.4431545007974,None,1,1.2077887002378702,1820.4431545007974,None,1.2077887002378702,1821.683907800354,None,1822.1861949004233,None,1822.1861949004233,None,f,1.2086926000192761,1822.1861949004233,None,1.2086926000192761,,,79 Silent,001,2022_Nov_15_1522,ProdSingRedoBetween,2021.2.3,59.79112566422879,
,,,,82,0,82,0,,,,,,,,,,,,,,,,,,,,,,1829.1898388005793,None,,,,,,,,,,,,,,,,,,accident,73,83,silent,old,red,1823.9274297002703,None,1823.9274297002703,None,1,3.7634237008169293,1823.9274297002703,None,3.7634237008169293,1827.7241947008297,None,1828.2435211008415,None,1828.2435211008415,None,f,0.9273610999807715,1828.2435211008415,None,0.9273610999807715,,,79 Silent,001,2022_Nov_15_1522,ProdSingRedoBetween,2021.2.3,59.79112566422879,
,,,,83,0,83,0,,,,,,,,,,,,,,,,,,,,,,1832.27633990068,None,,,,,,,,,,,,,,,,,,column,102,84,silent,new,null,1829.699806900695,None,1829.699806900695,None,1,1.0871206000447273,1829.699806900695,None,1.0871206000447273,1830.8146956004202,None,1831.327769100666,None,1831.327769100666,None,f,0.9311760999262333,1831.327769100666,None,0.9311760999262333,,,79 Silent,001,2022_Nov_15_1522,ProdSingRedoBetween,2021.2.3,59.79112566422879,
,,,,84,0,84,0,,,,,,,,,,,,,,,,,,,,,,1836.080252200365,None,,,,,,,,,,,,,,,,,,military,113,85,silent,new,null,1832.7773581007496,None,1832.7773581007496,None,1,1.5855382001027465,1832.7773581007496,None,1.5855382001027465,1834.3817099006847,None,1834.8958584005013,None,1834.8958584005013,None,r,1.1630416000261903,1834.8958584005013,None,1.1630416000261903,,,79 Silent,001,2022_Nov_15_1522,ProdSingRedoBetween,2021.2.3,59.79112566422879,
,,,,85,0,85,0,,,,,,,,,,,,,,,,,,,,,,1839.6739947004244,None,,,,,,,,,,,,,,,,,,government,162,86,silent,new,null,1836.590244400315,None,1836.590244400315,None,1,1.3726364998146892,1836.590244400315,None,1.3726364998146892,1837.9877925002947,None,1838.4993674000725,None,1838.4993674000725,None,f,1.1514174994081259,1838.4993674000725,None,1.1514174994081259,,,79 Silent,001,2022_Nov_15_1522,ProdSingRedoBetween,2021.2.3,59.79112566422879,
,,,,86,0,86,0,,,,,,,,,,,,,,,,,,,,,,1843.404353200458,None,,,,,,,,,,,,,,,,,,appearance,20,87,silent,old,yellow,1840.1987774008885,None,1840.1987774008885,None,1,1.6360352002084255,1840.1987774008885,None,1.6360352002084255,1841.8524311007932,None,1842.354292000644,None,1842.354292000644,None,f,1.0327375996857882,1842.354292000644,None,1.0327375996857882,,,79 Silent,001,2022_Nov_15_1522,ProdSingRedoBetween,2021.2.3,59.79112566422879,
,,,,87,0,87,0,,,,,,,,,,,,,,,,,,,,,,1846.8742320006713,None,,,,,,,,,,,,,,,,,,express,159,88,silent,new,null,1843.9086195006967,None,1843.9086195006967,None,1,1.1501523004844785,1843.9086195006967,None,1.1501523004844785,1845.0977483000606,None,1845.6116669001058,None,1845.6116669001058,None,r,1.2470533000305295,1845.6116669001058,None,1.2470533000305295,,,79 Silent,001,2022_Nov_15_1522,ProdSingRedoBetween,2021.2.3,59.79112566422879,
,,,,88,0,88,0,,,,,,,,,,,,,,,,,,,,,,1850.5110624004155,None,,,,,,,,,,,,,,,,,,signal,42,89,silent,old,blue,1847.3777423007414,None,1847.3777423007414,None,1,1.7210325999185443,1847.3777423007414,None,1.7210325999185443,1849.1264040004462,None,1849.6271999003366,None,1849.6271999003366,None,f,0.8556754002347589,1849.6271999003366,None,0.8556754002347589,,,79 Silent,001,2022_Nov_15_1522,ProdSingRedoBetween,2021.2.3,59.79112566422879,
,,,,89,0,89,0,,,,,,,,,,,,,,,,,,,,,,1853.7812220007181,None,,,,,,,,,,,,,,,,,,produce,70,90,silent,old,red,1851.021301300265,None,1851.021301300265,None,1,1.221578499302268,1851.021301300265,None,1.221578499302268,1852.2668264005333,None,1852.7804781002924,None,1852.7804781002924,None,f,0.9824023004621267,1852.7804781002924,None,0.9824023004621267,,,79 Silent,001,2022_Nov_15_1522,ProdSingRedoBetween,2021.2.3,59.79112566422879,
,,,,90,0,90,0,,,,,,,,,,,,,,,,,,,,,,1857.1846305001527,None,,,,,,,,,,,,,,,,,,engineer,21,91,silent,old,yellow,1854.290507000871,None,1854.290507000871,None,1,1.1283382000401616,1854.290507000871,None,1.1283382000401616,1855.4519776003435,None,1855.9666668009013,None,1855.9666668009013,None,r,1.188170500099659,1855.9666668009013,None,1.188170500099659,,,79 Silent,001,2022_Nov_15_1522,ProdSingRedoBetween,2021.2.3,59.79112566422879,
,,,,91,0,91,0,,,,,,,,,,,,,,,,,,,,,,1860.6567544005811,None,,,,,,,,,,,,,,,,,,hearing,114,92,silent,new,null,1857.6958070006222,None,1857.6958070006222,None,1,1.0912031000480056,1857.6958070006222,None,1.0912031000480056,1858.80404680036,None,1859.306160600856,None,1859.306160600856,None,r,1.3207298992201686,1859.306160600856,None,1.3207298992201686,,,79 Silent,001,2022_Nov_15_1522,ProdSingRedoBetween,2021.2.3,59.79112566422879,
,,,,92,0,92,0,,,,,,,,,,,,,,,,,,,,,,1863.6744452007115,None,,,,,,,,,,,,,,,,,,murder,87,93,silent,old,red,1861.1754451002926,None,1861.1754451002926,None,1,1.0434825997799635,1861.1754451002926,None,1.0434825997799635,1862.2414319003,None,1862.7617771001533,None,1862.7617771001533,None,r,0.8970818007364869,1862.7617771001533,None,0.8970818007364869,,,79 Silent,001,2022_Nov_15_1522,ProdSingRedoBetween,2021.2.3,59.79112566422879,
,,,,93,0,93,0,,,,,,,,,,,,,,,,,,,,,,1867.0110737001523,None,,,,,,,,,,,,,,,,,,travel,170,94,silent,new,null,1864.1831788001582,None,1864.1831788001582,None,1,1.3076424999162555,1864.1831788001582,None,1.3076424999162555,1865.5124692004174,None,1866.0338916005567,None,1866.0338916005567,None,f,0.9529189001768827,1866.0338916005567,None,0.9529189001768827,,,79 Silent,001,2022_Nov_15_1522,ProdSingRedoBetween,2021.2.3,59.79112566422879,
,,,,94,0,94,0,,,,,,,,,,,,,,,,,,,,,,1870.6146272001788,None,,,,,,,,,,,,,,,,,,committee,50,95,silent,old,blue,1867.5197223005816,None,1867.5197223005816,None,1,1.4509750008583069,1867.5197223005816,None,1.4509750008583069,1869.0013224007562,None,1869.5140872001648,None,1869.5140872001648,None,f,1.0807742001488805,1869.5140872001648,None,1.0807742001488805,,,79 Silent,001,2022_Nov_15_1522,ProdSingRedoBetween,2021.2.3,59.79112566422879,
,,,,95,0,95,0,,,,,,,,,,,,,,,,,,,,,,1874.3356522005051,None,,,,,,,,,,,,,,,,,,ground,105,96,silent,new,null,1871.117802400142,None,1871.117802400142,None,1,1.1570572005584836,1871.117802400142,None,1.1570572005584836,1872.3017140002921,None,1872.816771700047,None,1872.816771700047,None,r,1.4900690000504255,1872.816771700047,None,1.4900690000504255,,,79 Silent,001,2022_Nov_15_1522,ProdSingRedoBetween,2021.2.3,59.79112566422879,
,,,,96,0,96,0,,,,,,,,,,,,,,,,,,,,,,1880.5245959004387,None,,,,,,,,,,,,,,,,,,distance,90,97,silent,new,null,1874.8374940007925,None,1874.8374940007925,None,1,1.6453252006322145,1874.8374940007925,None,1.6453252006322145,1876.505342900753,None,1877.0222189007327,None,1877.0222189007327,None,r,3.4845210993662477,1877.0222189007327,None,3.4845210993662477,,,79 Silent,001,2022_Nov_15_1522,ProdSingRedoBetween,2021.2.3,59.79112566422879,
,,,,97,0,97,0,,,,,,,,,,,,,,,,,,,,,,1885.0789060005918,None,,,,,,,,,,,,,,,,,,block,64,98,silent,old,red,1881.033973700367,None,1881.033973700367,None,1,1.328817899338901,1881.033973700367,None,1.328817899338901,1882.395884600468,None,1882.9103224007413,None,1882.9103224007413,None,f,2.148694400675595,1882.9103224007413,None,2.148694400675595,,,79 Silent,001,2022_Nov_15_1522,ProdSingRedoBetween,2021.2.3,59.79112566422879,
,,,,98,0,98,0,,,,,,,,,,,,,,,,,,,,,,1890.4678082000464,None,,,,,,,,,,,,,,,,,,order,40,99,silent,old,blue,1885.5902748005465,None,1885.5902748005465,None,1,2.6045028995722532,1885.5902748005465,None,2.6045028995722532,1888.2180680008605,None,1888.7328877002,None,1888.7328877002,None,f,1.7180317994207144,1888.7328877002,None,1.7180317994207144,,,79 Silent,001,2022_Nov_15_1522,ProdSingRedoBetween,2021.2.3,59.79112566422879,
,,,,99,0,99,0,,,,,,,,,,,,,,,,,,,,,,1894.2215556008741,None,,,,,,,,,,,,,,,,,,burden,45,100,silent,old,blue,1890.9734546002,None,1890.9734546002,None,1,1.1973278997465968,1890.9734546002,None,1.1973278997465968,1892.1879645008594,None,1892.7055695001036,None,1892.7055695001036,None,r,1.497213900089264,1892.7055695001036,None,1.497213900089264,,,79 Silent,001,2022_Nov_15_1522,ProdSingRedoBetween,2021.2.3,59.79112566422879,
,,,,100,0,100,0,,,,,,,,,,,,,,,,,,,,,,1897.6749690007418,None,,,,,,,,,,,,,,,,,,colonel,52,101,silent,old,blue,1894.730660800822,None,1894.730660800822,None,1,1.2641495997086167,1894.730660800822,None,1.2641495997086167,1896.0259896004573,None,1896.5426264004782,None,1896.5426264004782,None,f,1.116190799511969,1896.5426264004782,None,1.116190799511969,,,79 Silent,001,2022_Nov_15_1522,ProdSingRedoBetween,2021.2.3,59.79112566422879,
,,,,101,0,101,0,,,,,,,,,,,,,,,,,,,,,,1901.5504482006654,None,,,,,,,,,,,,,,,,,,alert,139,102,silent,new,null,1898.1773082008585,None,1898.1773082008585,None,1,1.1614856999367476,1898.1773082008585,None,1.1614856999367476,1899.3626165008172,None,1899.8769929008558,None,1899.8769929008558,None,r,1.6456988006830215,1899.8769929008558,None,1.6456988006830215,,,79 Silent,001,2022_Nov_15_1522,ProdSingRedoBetween,2021.2.3,59.79112566422879,
,,,,102,0,102,0,,,,,,,,,,,,,,,,,,,,,,1905.2659301003441,None,,,,,,,,,,,,,,,,,,science,172,103,silent,new,null,1902.0778349004686,None,1902.0778349004686,None,1,1.2129901004955173,1902.0778349004686,None,1.2129901004955173,1903.3225207002833,None,1903.8312304001302,None,1903.8312304001302,None,r,1.4195326995104551,1903.8312304001302,None,1.4195326995104551,,,79 Silent,001,2022_Nov_15_1522,ProdSingRedoBetween,2021.2.3,59.79112566422879,
,,,,103,0,103,0,,,,,,,,,,,,,,,,,,,,,,1909.3032073006034,None,,,,,,,,,,,,,,,,,,short,126,104,silent,new,null,1905.7743370002136,None,1905.7743370002136,None,1,1.16430430021137,1905.7743370002136,None,1.16430430021137,1906.9753781007603,None,1907.4848042000085,None,1907.4848042000085,None,r,1.7899621995165944,1907.4848042000085,None,1.7899621995165944,,,79 Silent,001,2022_Nov_15_1522,ProdSingRedoBetween,2021.2.3,59.79112566422879,
,,,,104,0,104,0,,,,,,,,,,,,,,,,,,,,,,1912.63997830078,None,,,,,,,,,,,,,,,,,,portion,36,105,silent,old,blue,1909.8149388004094,None,1909.8149388004094,None,1,1.099808500148356,1909.8149388004094,None,1.099808500148356,1910.9414888005704,None,1911.4575440008193,None,1911.4575440008193,None,f,1.1612048000097275,1911.4575440008193,None,1.1612048000097275,,,79 Silent,001,2022_Nov_15_1522,ProdSingRedoBetween,2021.2.3,59.79112566422879,
,,,,105,0,105,0,,,,,,,,,,,,,,,,,,,,,,1916.160151200369,None,,,,,,,,,,,,,,,,,,birth,75,106,silent,old,red,1913.1503385007381,None,1913.1503385007381,None,1,1.2284102998673916,1913.1503385007381,None,1.2284102998673916,1914.4107137005776,None,1914.9256867002696,None,1914.9256867002696,None,r,1.2130958000198007,1914.9256867002696,None,1.2130958000198007,,,79 Silent,001,2022_Nov_15_1522,ProdSingRedoBetween,2021.2.3,59.79112566422879,
,,,,106,0,106,0,,,,,,,,,,,,,,,,,,,,,,1920.6312397001311,None,,,,,,,,,,,,,,,,,,suggestion,33,107,silent,old,blue,1916.6716900002211,None,1916.6716900002211,None,1,1.3230206007137895,1916.6716900002211,None,1.3230206007137895,1918.0131932999939,None,1918.5188293000683,None,1918.5188293000683,None,f,2.091916900128126,1918.5188293000683,None,2.091916900128126,,,79 Silent,001,2022_Nov_15_1522,ProdSingRedoBetween,2021.2.3,59.79112566422879,
,,,,107,0,107,0,,,,,,,,,,,,,,,,,,,,,,1923.669068600051,None,,,,,,,,,,,,,,,,,,trail,27,108,silent,old,yellow,1921.140780000016,None,1921.140780000016,None,1,1.2059899000450969,1921.140780000016,None,1.2059899000450969,1922.3705205004662,None,1922.8847296005115,None,1922.8847296005115,None,r,0.7662348998710513,1922.8847296005115,None,0.7662348998710513,,,79 Silent,001,2022_Nov_15_1522,ProdSingRedoBetween,2021.2.3,59.79112566422879,
,,,,108,0,108,0,,,,,,,,,,,,,,,,,,,,,,1927.3213022006676,None,,,,,,,,,,,,,,,,,,degree,35,109,silent,old,blue,1924.17541260086,None,1924.17541260086,None,1,1.419195200316608,1924.17541260086,None,1.419195200316608,1925.6255703000352,None,1926.1367623005062,None,1926.1367623005062,None,r,1.1619813004508615,1926.1367623005062,None,1.1619813004508615,,,79 Silent,001,2022_Nov_15_1522,ProdSingRedoBetween,2021.2.3,59.79112566422879,
,,,,109,0,109,0,,,,,,,,,,,,,,,,,,,,,,1931.6419583000243,None,,,,,,,,,,,,,,,,,,shape,46,110,silent,old,blue,1927.8302530003712,None,1927.8302530003712,None,1,1.460355599410832,1927.8302530003712,None,1.460355599410832,1929.3095684004948,None,1929.8241052003577,None,1929.8241052003577,None,f,1.7867629993706942,1929.8241052003577,None,1.7867629993706942,,,79 Silent,001,2022_Nov_15_1522,ProdSingRedoBetween,2021.2.3,59.79112566422879,
,,,,110,0,110,0,,,,,,,,,,,,,,,,,,,,,,1935.4456665003672,None,,,,,,,,,,,,,,,,,,narrow,177,111,silent,new,null,1932.1534690000117,None,1932.1534690000117,None,1,1.7372263995930552,1932.1534690000117,None,1.7372263995930552,1933.9126040004194,None,1934.4152453001589,None,1934.4152453001589,None,r,1.0114532997831702,1934.4152453001589,None,1.0114532997831702,,,79 Silent,001,2022_Nov_15_1522,ProdSingRedoBetween,2021.2.3,59.79112566422879,
,,,,111,0,111,0,,,,,,,,,,,,,,,,,,,,,,1938.365554800257,None,,,,,,,,,,,,,,,,,,leader,53,112,silent,old,blue,1935.9516782006249,None,1935.9516782006249,None,1,1.106937499716878,1935.9516782006249,None,1.106937499716878,1937.0845172004774,None,1937.5980057008564,None,1937.5980057008564,None,r,0.7487449999898672,1937.5980057008564,None,0.7487449999898672,,,79 Silent,001,2022_Nov_15_1522,ProdSingRedoBetween,2021.2.3,59.79112566422879,
,,,,112,0,112,0,,,,,,,,,,,,,,,,,,,,,,1941.8190021002665,None,,,,,,,,,,,,,,,,,,carry,61,113,silent,old,red,1938.8737323004752,None,1938.8737323004752,None,1,1.0650022001937032,1938.8737323004752,None,1.0650022001937032,1939.9703505001962,None,1940.4862767001614,None,1940.4862767001614,None,f,1.308479600585997,1940.4862767001614,None,1.308479600585997,,,79 Silent,001,2022_Nov_15_1522,ProdSingRedoBetween,2021.2.3,59.79112566422879,
,,,,113,0,113,0,,,,,,,,,,,,,,,,,,,,,,1944.4546725004911,None,,,,,,,,,,,,,,,,,,treatment,120,114,silent,new,null,1942.319627800025,None,1942.319627800025,None,1,1.0830308999866247,1942.319627800025,None,1.0830308999866247,1943.4215879002586,None,1943.9287006007507,None,1943.9287006007507,None,r,0.49801479931920767,1943.9287006007507,None,0.49801479931920767,,,79 Silent,001,2022_Nov_15_1522,ProdSingRedoBetween,2021.2.3,59.79112566422879,
,,,,114,0,114,0,,,,,,,,,,,,,,,,,,,,,,1948.0919394008815,None,,,,,,,,,,,,,,,,,,agreement,144,115,silent,new,null,1944.9592604003847,None,1944.9592604003847,None,1,1.3794279992580414,1944.9592604003847,None,1.3794279992580414,1946.3620056007057,None,1946.8740750001743,None,1946.8740750001743,None,f,1.20057849958539,1946.8740750001743,None,1.20057849958539,,,79 Silent,001,2022_Nov_15_1522,ProdSingRedoBetween,2021.2.3,59.79112566422879,
,,,,115,0,115,0,,,,,,,,,,,,,,,,,,,,,,1951.5119901001453,None,,,,,,,,,,,,,,,,,,bicycle,125,116,silent,new,null,1948.5962618002668,None,1948.5962618002668,None,1,1.3024995001032948,1948.5962618002668,None,1.3024995001032948,1949.9301173007116,None,1950.4443534007296,None,1950.4443534007296,None,f,1.046327599324286,1950.4443534007296,None,1.046327599324286,,,79 Silent,001,2022_Nov_15_1522,ProdSingRedoBetween,2021.2.3,59.79112566422879,
,,,,116,0,116,0,,,,,,,,,,,,,,,,,,,,,,1954.681829600595,None,,,,,,,,,,,,,,,,,,institute,145,117,silent,new,null,1952.020742200315,None,1952.020742200315,None,1,1.4219139004126191,1952.020742200315,None,1.4219139004126191,1953.4661030005664,None,1953.9900015005842,None,1953.9900015005842,None,r,0.6688256999477744,1953.9900015005842,None,0.6688256999477744,,,79 Silent,001,2022_Nov_15_1522,ProdSingRedoBetween,2021.2.3,59.79112566422879,
,,,,117,0,117,0,,,,,,,,,,,,,,,,,,,,,,1958.035118500702,None,,,,,,,,,,,,,,,,,,shock,91,118,silent,new,null,1955.188092100434,None,1955.188092100434,None,1,1.3506020000204444,1955.188092100434,None,1.3506020000204444,1956.5684487000108,None,1957.0870776008815,None,1957.0870776008815,None,f,0.9235015008598566,1957.0870776008815,None,0.9235015008598566,,,79 Silent,001,2022_Nov_15_1522,ProdSingRedoBetween,2021.2.3,59.79112566422879,
,,,,118,0,118,0,,,,,,,,,,,,,,,,,,,,,,1964.424612200819,None,,,,,,,,,,,,,,,,,,education,51,119,silent,old,blue,1958.5519269006327,None,1958.5519269006327,None,1,1.6026493003591895,1958.5519269006327,None,1.6026493003591895,1960.1721855001524,None,1960.6877534007654,None,1960.6877534007654,None,r,3.7069046003744006,1960.6877534007654,None,3.7069046003744006,,,79 Silent,001,2022_Nov_15_1522,ProdSingRedoBetween,2021.2.3,59.79112566422879,
,,,,119,0,119,0,,,,,,,,,,,,,,,,,,,,,,1970.4140212005004,None,,,,,,,,,,,,,,,,,,state,147,120,silent,new,null,1964.9332254007459,None,1964.9332254007459,None,1,2.413336300291121,1964.9332254007459,None,2.413336300291121,1967.3822206007317,None,1967.895158700645,None,1967.895158700645,None,r,2.4914424000307918,1967.895158700645,None,2.4914424000307918,,,79 Silent,001,2022_Nov_15_1522,ProdSingRedoBetween,2021.2.3,59.79112566422879,
,,,,120,0,120,0,,,,,,,,,,,,,,,,,,,,,,1974.7351294001564,None,,,,,,,,,,,,,,,,,,color,109,121,silent,new,null,1970.9211048008874,None,1970.9211048008874,None,1,1.993515799753368,1970.9211048008874,None,1.993515799753368,1972.9346300000325,None,1973.4389429008588,None,1973.4389429008588,None,r,1.267712900415063,1973.4389429008588,None,1.267712900415063,,,79 Silent,001,2022_Nov_15_1522,ProdSingRedoBetween,2021.2.3,59.79112566422879,
,,,,121,0,121,0,,,,,,,,,,,,,,,,,,,,,,1979.239714000374,None,,,,,,,,,,,,,,,,,,month,77,122,silent,old,red,1975.2457534000278,None,1975.2457534000278,None,1,1.5408551003783941,1975.2457534000278,None,1.5408551003783941,1976.8037694003433,None,1977.3043683003634,None,1977.3043683003634,None,r,1.9142396999523044,1977.3043683003634,None,1.9142396999523044,,,79 Silent,001,2022_Nov_15_1522,ProdSingRedoBetween,2021.2.3,59.79112566422879,
,,,,122,0,122,0,,,,,,,,,,,,,,,,,,,,,,1984.561731800437,None,,,,,,,,,,,,,,,,,,track,47,123,silent,old,blue,1979.7500503007323,None,1979.7500503007323,None,1,2.7886232994496822,1979.7500503007323,None,2.7886232994496822,1982.5694171003997,None,1983.0777313001454,None,1983.0777313001454,None,f,1.4528677994385362,1983.0777313001454,None,1.4528677994385362,,,79 Silent,001,2022_Nov_15_1522,ProdSingRedoBetween,2021.2.3,59.79112566422879,
,,,,123,0,123,0,,,,,,,,,,,,,,,,,,,,,,1988.1819446003065,None,,,,,,,,,,,,,,,,,,surprise,142,124,silent,new,null,1985.0709606008604,None,1985.0709606008604,None,1,1.5796438995748758,1985.0709606008604,None,1.5796438995748758,1986.6835842002183,None,1987.2023034002632,None,1987.2023034002632,None,r,0.9603085992857814,1987.2023034002632,None,0.9603085992857814,,,79 Silent,001,2022_Nov_15_1522,ProdSingRedoBetween,2021.2.3,59.79112566422879,
,,,,124,0,124,0,,,,,,,,,,,,,,,,,,,,,,1991.9021404003724,None,,,,,,,,,,,,,,,,,,audience,176,125,silent,new,null,1988.6832101000473,None,1988.6832101000473,None,1,1.783316700719297,1988.6832101000473,None,1.783316700719297,1990.4885556008667,None,1991.0013900008053,None,1991.0013900008053,None,r,0.873183399438858,1991.0013900008053,None,0.873183399438858,,,79 Silent,001,2022_Nov_15_1522,ProdSingRedoBetween,2021.2.3,59.79112566422879,
,,,,125,0,125,0,,,,,,,,,,,,,,,,,,,,,,1995.3223940003663,None,,,,,,,,,,,,,,,,,,estate,136,126,silent,new,null,1992.41085160058,None,1992.41085160058,None,1,1.3436586000025272,1992.41085160058,None,1.3436586000025272,1993.775537300855,None,1994.2905879002064,None,1994.2905879002064,None,f,1.0159505996853113,1994.2905879002064,None,1.0159505996853113,,,79 Silent,001,2022_Nov_15_1522,ProdSingRedoBetween,2021.2.3,59.79112566422879,
,,,,126,0,126,0,,,,,,,,,,,,,,,,,,,,,,2000.3274100003764,None,,,,,,,,,,,,,,,,,,dispute,19,127,silent,old,yellow,1995.8309973003343,None,1995.8309973003343,None,1,1.2915188996121287,1995.8309973003343,None,1.2915188996121287,1997.1442164005712,None,1997.658613000065,None,1997.658613000065,None,r,2.647974600084126,1997.658613000065,None,2.647974600084126,,,79 Silent,001,2022_Nov_15_1522,ProdSingRedoBetween,2021.2.3,59.79112566422879,
,,,,127,0,127,0,,,,,,,,,,,,,,,,,,,,,,2004.531604400836,None,,,,,,,,,,,,,,,,,,staff,8,128,silent,old,yellow,2000.8330760002136,None,2000.8330760002136,None,1,1.4495210004970431,2000.8330760002136,None,1.4495210004970431,2002.3155487002805,None,2002.8363190004602,None,2002.8363190004602,None,f,1.6781906997784972,2002.8363190004602,None,1.6781906997784972,,,79 Silent,001,2022_Nov_15_1522,ProdSingRedoBetween,2021.2.3,59.79112566422879,
,,,,128,0,128,0,,,,,,,,,,,,,,,,,,,,,,2012.022186100483,None,,,,,,,,,,,,,,,,,,minor,66,129,silent,old,red,2005.041489300318,None,2005.041489300318,None,6,3.9450484002009034,2005.041489300318,None,3.9450484002009034,2009.0037484001368,None,2009.5071174008772,None,2009.5071174008772,None,r,2.4953937996178865,2009.5071174008772,None,2.4953937996178865,,,79 Silent,001,2022_Nov_15_1522,ProdSingRedoBetween,2021.2.3,59.79112566422879,
,,,,129,0,129,0,,,,,,,,,,,,,,,,,,,,,,2018.5455466005951,None,,,,,,,,,,,,,,,,,,property,148,130,silent,new,null,2012.5357480002567,None,2012.5357480002567,None,6,2.7387428004294634,2012.5357480002567,None,2.7387428004294634,2015.2935661002994,None,2015.8068633005023,None,2015.8068633005023,None,r,2.7236301004886627,2015.8068633005023,None,2.7236301004886627,,,79 Silent,001,2022_Nov_15_1522,ProdSingRedoBetween,2021.2.3,59.79112566422879,
,,,,130,0,130,0,,,,,,,,,,,,,,,,,,,,,,2026.2365167001262,None,,,,,,,,,,,,,,,,,,whole,151,131,silent,new,null,2019.0580485006794,None,2019.0580485006794,None,5,4.984410099685192,2019.0580485006794,None,4.984410099685192,2024.076952200383,None,2024.584866700694,None,2024.584866700694,None,f,1.6336631001904607,2024.584866700694,None,1.6336631001904607,,,79 Silent,001,2022_Nov_15_1522,ProdSingRedoBetween,2021.2.3,59.79112566422879,
,,,,131,0,131,0,,,,,,,,,,,,,,,,,,,,,,2032.5595085006207,None,,,,,,,,,,,,,,,,,,character,59,132,silent,old,yellow,2026.7396321007982,None,2026.7396321007982,None,6,3.902913799509406,2026.7396321007982,None,3.902913799509406,2030.657639500685,None,2031.1627446003258,None,2031.1627446003258,None,r,1.375764399766922,2031.1627446003258,None,1.375764399766922,,,79 Silent,001,2022_Nov_15_1522,ProdSingRedoBetween,2021.2.3,59.79112566422879,
,,,,132,0,132,0,,,,,,,,,,,,,,,,,,,,,,2037.981622500345,None,,,,,,,,,,,,,,,,,,attack,160,133,silent,new,null,2033.06773980055,None,2033.06773980055,None,6,3.054986000061035,2033.06773980055,None,3.054986000061035,2036.153672400862,None,2036.6653460003436,None,2036.6653460003436,None,r,1.2890975000336766,2036.6653460003436,None,1.2890975000336766,,,79 Silent,001,2022_Nov_15_1522,ProdSingRedoBetween,2021.2.3,59.79112566422879,
,,,,133,0,133,0,,,,,,,,,,,,,,,,,,,,,,2044.554938800633,None,,,,,,,,,,,,,,,,,,front,155,134,silent,new,null,2038.4915291005746,None,2038.4915291005746,None,5,3.8070602994412184,2038.4915291005746,None,3.8070602994412184,2042.3266986003146,None,2042.8438772000372,None,2042.8438772000372,None,r,1.6945617003366351,2042.8438772000372,None,1.6945617003366351,,,79 Silent,001,2022_Nov_15_1522,ProdSingRedoBetween,2021.2.3,59.79112566422879,
,,,,134,0,134,0,,,,,,,,,,,,,,,,,,,,,,2050.5450817001984,None,,,,,,,,,,,,,,,,,,drink,58,135,silent,old,blue,2045.064621500671,None,2045.064621500671,None,1,3.730019999668002,2045.064621500671,None,3.730019999668002,2048.832688400522,None,2049.343047400005,None,2049.343047400005,None,r,1.1794878002256155,2049.343047400005,None,1.1794878002256155,,,79 Silent,001,2022_Nov_15_1522,ProdSingRedoBetween,2021.2.3,59.79112566422879,
,,,,135,0,135,0,,,,,,,,,,,,,,,,,,,,,,2055.317715300247,None,,,,,,,,,,,,,,,,,,contract,9,136,silent,old,yellow,2051.057366900146,None,2051.057366900146,None,6,2.4411450000479817,2051.057366900146,None,2.4411450000479817,2053.5163536006585,None,2054.0309597002342,None,2054.0309597002342,None,r,1.2596455998718739,2054.0309597002342,None,1.2596455998718739,,,79 Silent,001,2022_Nov_15_1522,ProdSingRedoBetween,2021.2.3,59.79112566422879,
,,,,136,0,136,0,,,,,,,,,,,,,,,,,,,,,,2059.9868908002973,None,,,,,,,,,,,,,,,,,,production,0,137,silent,old,yellow,2055.835659100674,None,2055.835659100674,None,6,2.566791200079024,2055.835659100674,None,2.566791200079024,2058.422047700733,None,2058.9372026007622,None,2058.9372026007622,None,r,1.0253464002162218,2058.9372026007622,None,1.0253464002162218,,,79 Silent,001,2022_Nov_15_1522,ProdSingRedoBetween,2021.2.3,59.79112566422879,
,,,,137,0,137,0,,,,,,,,,,,,,,,,,,,,,,2069.6298183007166,None,,,,,,,,,,,,,,,,,,prime,2,138,silent,old,yellow,2060.4988110000268,None,2060.4988110000268,None,1,6.23965169955045,2060.4988110000268,None,6.23965169955045,2066.76015930064,None,2067.2643550001085,None,2067.2643550001085,None,r,2.3461007000878453,2067.2643550001085,None,2.3461007000878453,,,79 Silent,001,2022_Nov_15_1522,ProdSingRedoBetween,2021.2.3,59.79112566422879,
,,,,138,0,138,0,,,,,,,,,,,,,,,,,,,,,,2075.35221010074,None,,,,,,,,,,,,,,,,,,charter,63,139,silent,old,red,2070.132870600559,None,2070.132870600559,None,6,3.5016015004366636,2070.132870600559,None,3.5016015004366636,2073.650498300791,None,2074.1541346004233,None,2074.1541346004233,None,r,1.1683254996314645,2074.1541346004233,None,1.1683254996314645,,,79 Silent,001,2022_Nov_15_1522,ProdSingRedoBetween,2021.2.3,59.79112566422879,
,,,,139,0,139,0,,,,,,,,,,,,,,,,,,,,,,2079.7899178005755,None,,,,,,,,,,,,,,,,,,store,116,140,silent,new,null,2075.8602691004053,None,2075.8602691004053,None,1,2.238245999440551,2075.8602691004053,None,2.238245999440551,2078.126930200495,None,2078.638873300515,None,2078.638873300515,None,r,1.123572699725628,2078.638873300515,None,1.123572699725628,,,79 Silent,001,2022_Nov_15_1522,ProdSingRedoBetween,2021.2.3,59.79112566422879,
,,,,140,0,140,0,,,,,,,,,,,,,,,,,,,,,,2085.629061200656,None,,,,,,,,,,,,,,,,,,member,4,141,silent,old,yellow,2080.2963948007673,None,2080.2963948007673,None,1,3.490056499838829,2080.2963948007673,None,3.490056499838829,2083.810692000203,None,2084.3111828006804,None,2084.3111828006804,None,r,1.2993045998737216,2084.3111828006804,None,1.2993045998737216,,,79 Silent,001,2022_Nov_15_1522,ProdSingRedoBetween,2021.2.3,59.79112566422879,
,,,,141,0,141,0,,,,,,,,,,,,,,,,,,,,,,2090.183523500338,None,,,,,,,,,,,,,,,,,,pancakes,84,142,silent,old,red,2086.1373826004565,None,2086.1373826004565,None,1,2.409088700078428,2086.1373826004565,None,2.409088700078428,2088.5675824005157,None,2089.086965800263,None,2089.086965800263,None,r,1.0675324006006122,2089.086965800263,None,1.0675324006006122,,,79 Silent,001,2022_Nov_15_1522,ProdSingRedoBetween,2021.2.3,59.79112566422879,
,,,,142,0,142,0,,,,,,,,,,,,,,,,,,,,,,2094.354490400292,None,,,,,,,,,,,,,,,,,,material,121,143,silent,new,null,2090.69166040048,None,2090.69166040048,None,1,1.84673129953444,2090.69166040048,None,1.84673129953444,2092.5702082002535,None,2093.069986000657,None,2093.069986000657,None,r,1.2523450003936887,2093.069986000657,None,1.2523450003936887,,,79 Silent,001,2022_Nov_15_1522,ProdSingRedoBetween,2021.2.3,59.79112566422879,
,,,,143,0,143,0,,,,,,,,,,,,,,,,,,,,,,2098.858924500644,None,,,,,,,,,,,,,,,,,,discussion,23,144,silent,old,yellow,2094.861533900723,None,2094.861533900723,None,1,1.700828599743545,2094.861533900723,None,1.700828599743545,2096.5940992003307,None,2097.110470400192,None,2097.110470400192,None,f,1.7319859992712736,2097.110470400192,None,1.7319859992712736,,,79 Silent,001,2022_Nov_15_1522,ProdSingRedoBetween,2021.2.3,59.79112566422879,
,,,,144,0,144,0,,,,,,,,,,,,,,,,,,,,,,2103.6637881007046,None,,,,,,,,,,,,,,,,,,story,99,145,silent,new,null,2099.363240500912,None,2099.363240500912,None,1,2.19924829993397,2099.363240500912,None,2.19924829993397,2101.5813598008826,None,2102.106633800082,None,2102.106633800082,None,r,1.5277738003060222,2102.106633800082,None,1.5277738003060222,,,79 Silent,001,2022_Nov_15_1522,ProdSingRedoBetween,2021.2.3,59.79112566422879,
,,,,145,0,145,0,,,,,,,,,,,,,,,,,,,,,,2107.867907700129,None,,,,,,,,,,,,,,,,,,minute,13,146,silent,old,yellow,2104.171533100307,None,2104.171533100307,None,1,1.7348977997899055,2104.171533100307,None,1.7348977997899055,2105.932481900789,None,2106.4330411003903,None,2106.4330411003903,None,r,1.4093908993527293,2106.4330411003903,None,1.4093908993527293,,,79 Silent,001,2022_Nov_15_1522,ProdSingRedoBetween,2021.2.3,59.79112566422879,
,,,,146,0,146,0,,,,,,,,,,,,,,,,,,,,,,2112.9229631004855,None,,,,,,,,,,,,,,,,,,primary,7,147,silent,old,yellow,2108.3797285007313,None,2108.3797285007313,None,1,2.7666700007393956,2108.3797285007313,None,2.7666700007393956,2111.172692000866,None,2111.671723600477,None,2111.671723600477,None,r,1.2346403002738953,2111.671723600477,None,1.2346403002738953,,,79 Silent,001,2022_Nov_15_1522,ProdSingRedoBetween,2021.2.3,59.79112566422879,
,,,,147,0,147,0,,,,,,,,,,,,,,,,,,,,,,2117.5272047007456,None,,,,,,,,,,,,,,,,,,nature,28,148,silent,old,yellow,2113.4377644006163,None,2113.4377644006163,None,1,2.228519099764526,2113.4377644006163,None,2.228519099764526,2115.6923571005464,None,2116.1970014004037,None,2116.1970014004037,None,f,1.3013073997572064,2116.1970014004037,None,1.3013073997572064,,,79 Silent,001,2022_Nov_15_1522,ProdSingRedoBetween,2021.2.3,59.79112566422879,
,,,,148,0,148,0,,,,,,,,,,,,,,,,,,,,,,2122.0485705006868,None,,,,,,,,,,,,,,,,,,bucket,137,149,silent,new,null,2118.041953900829,None,2118.041953900829,None,1,1.7443779995664954,2118.041953900829,None,1.7443779995664954,2119.817146300338,None,2120.3305124007165,None,2120.3305124007165,None,f,1.695890199393034,2120.3305124007165,None,1.695890199393034,,,79 Silent,001,2022_Nov_15_1522,ProdSingRedoBetween,2021.2.3,59.79112566422879,
,,,,149,0,149,0,,,,,,,,,,,,,,,,,,,,,,2126.6219770004973,None,,,,,,,,,,,,,,,,,,watch,119,150,silent,new,null,2122.558494400233,None,2122.558494400233,None,1,1.5318539999425411,2122.558494400233,None,1.5318539999425411,2124.1194663001224,None,2124.6348066003993,None,2124.6348066003993,None,r,1.9675835007801652,2124.6348066003993,None,1.9675835007801652,,,79 Silent,001,2022_Nov_15_1522,ProdSingRedoBetween,2021.2.3,59.79112566422879,
,,,,150,0,150,0,,,,,,,,,,,,,,,,,,,,,,2131.676081500016,None,,,,,,,,,,,,,,,,,,right,131,151,silent,new,null,2127.1372349001467,None,2127.1372349001467,None,1,2.9930449994280934,2127.1372349001467,None,2.9930449994280934,2130.157934100367,None,2130.657421500422,None,2130.657421500422,None,r,0.9929945999756455,2130.657421500422,None,0.9929945999756455,,,79 Silent,001,2022_Nov_15_1522,ProdSingRedoBetween,2021.2.3,59.79112566422879,
,,,,151,0,151,0,,,,,,,,,,,,,,,,,,,,,,2137.080361000262,None,,,,,,,,,,,,,,,,,,breath,57,152,silent,old,blue,2132.1756658004597,None,2132.1756658004597,None,1,3.210661499761045,2132.1756658004597,None,3.210661499761045,2135.4131150003523,None,2135.9166239006445,None,2135.9166239006445,None,r,1.1337359994649887,2135.9166239006445,None,1.1337359994649887,,,79 Silent,001,2022_Nov_15_1522,ProdSingRedoBetween,2021.2.3,59.79112566422879,
,,,,152,0,152,0,,,,,,,,,,,,,,,,,,,,,,2142.5356343006715,None,,,,,,,,,,,,,,,,,,harmony,96,153,silent,new,null,2137.590589100495,None,2137.590589100495,None,1,2.555638900026679,2137.590589100495,None,2.555638900026679,2140.171120800078,None,2140.694595900364,None,2140.694595900364,None,f,1.8117565996944904,2140.694595900364,None,1.8117565996944904,,,79 Silent,001,2022_Nov_15_1522,ProdSingRedoBetween,2021.2.3,59.79112566422879,
,,,,153,0,153,0,,,,,,,,,,,,,,,,,,,,,,2146.7743926001713,None,,,,,,,,,,,,,,,,,,permit,49,154,silent,old,blue,2143.0429699001834,None,2143.0429699001834,None,1,1.4553679004311562,2143.0429699001834,None,1.4553679004311562,2144.5240511000156,None,2145.042312300764,None,2145.042312300764,None,r,1.704093700274825,2145.042312300764,None,1.704093700274825,,,79 Silent,001,2022_Nov_15_1522,ProdSingRedoBetween,2021.2.3,59.79112566422879,
,,,,154,0,154,0,,,,,,,,,,,,,,,,,,,,,,2151.7114058006555,None,,,,,,,,,,,,,,,,,,shear,94,155,silent,new,null,2147.2774296002463,None,2147.2774296002463,None,1,2.620810500346124,2147.2774296002463,None,2.620810500346124,2149.927625500597,None,2150.4271429004148,None,2150.4271429004148,None,f,1.2551994994282722,2150.4271429004148,None,1.2551994994282722,,,79 Silent,001,2022_Nov_15_1522,ProdSingRedoBetween,2021.2.3,59.79112566422879,
,,,,155,0,155,0,,,,,,,,,,,,,,,,,,,,,,2155.7322735004127,None,,,,,,,,,,,,,,,,,,message,26,156,silent,old,yellow,2152.2211075006053,None,2152.2211075006053,None,1,1.957231200300157,2152.2211075006053,None,1.957231200300157,2154.198596600443,None,2154.7024425007403,None,2154.7024425007403,None,r,1.0038240998983383,2154.7024425007403,None,1.0038240998983383,,,79 Silent,001,2022_Nov_15_1522,ProdSingRedoBetween,2021.2.3,59.79112566422879,
,,,,156,0,156,0,,,,,,,,,,,,,,,,,,,,,,2159.619561800733,None,,,,,,,,,,,,,,,,,,write,163,157,silent,new,null,2156.2402312001213,None,2156.2402312001213,None,1,2.0259806998074055,2156.2402312001213,None,2.0259806998074055,2158.2863365001976,None,2158.788961700164,None,2158.788961700164,None,r,0.8132968991994858,2158.788961700164,None,0.8132968991994858,,,79 Silent,001,2022_Nov_15_1522,ProdSingRedoBetween,2021.2.3,59.79112566422879,
,,,,157,0,157,0,,,,,,,,,,,,,,,,,,,,,,2163.473388900049,None,,,,,,,,,,,,,,,,,,addition,178,158,silent,new,null,2160.133970800787,None,2160.133970800787,None,1,1.9083115002140403,2160.133970800787,None,1.9083115002140403,2162.0728266006336,None,2162.574963000603,None,2162.574963000603,None,r,0.8753527998924255,2162.574963000603,None,0.8753527998924255,,,79 Silent,001,2022_Nov_15_1522,ProdSingRedoBetween,2021.2.3,59.79112566422879,
,,,,158,0,158,0,,,,,,,,,,,,,,,,,,,,,,2167.077658400871,None,,,,,,,,,,,,,,,,,,chief,154,159,silent,new,null,2163.9836566001177,None,2163.9836566001177,None,1,1.5627225004136562,2163.9836566001177,None,1.5627225004136562,2165.576563800685,None,2166.076166900806,None,2166.076166900806,None,r,0.9821942998096347,2166.076166900806,None,0.9821942998096347,,,79 Silent,001,2022_Nov_15_1522,ProdSingRedoBetween,2021.2.3,59.79112566422879,
,,,,159,0,159,0,,,,,,,,,,,,,,,,,,,,,,2170.9813498007134,None,,,,,,,,,,,,,,,,,,concern,83,160,silent,old,red,2167.579280800186,None,2167.579280800186,None,1,2.0310113998129964,2167.579280800186,None,2.0310113998129964,2169.630518300459,None,2170.1301688002422,None,2170.1301688002422,None,f,0.8320315992459655,2170.1301688002422,None,0.8320315992459655,,,79 Silent,001,2022_Nov_15_1522,ProdSingRedoBetween,2021.2.3,59.79112566422879,
,,,,160,0,160,0,,,,,,,,,,,,,,,,,,,,,,2175.005930200219,None,,,,,,,,,,,,,,,,,,display,124,161,silent,new,null,2171.494759800844,None,2171.494759800844,None,1,1.2595988996326923,2171.494759800844,None,1.2595988996326923,2172.7894789008424,None,2173.306312800385,None,2173.306312800385,None,r,1.6720357006415725,2173.306312800385,None,1.6720357006415725,,,79 Silent,001,2022_Nov_15_1522,ProdSingRedoBetween,2021.2.3,59.79112566422879,
,,,,161,0,161,0,,,,,,,,,,,,,,,,,,,,,,2180.1567752007395,None,,,,,,,,,,,,,,,,,,guide,165,162,silent,new,null,2175.5231427000836,None,2175.5231427000836,None,1,2.623432300053537,2175.5231427000836,None,2.623432300053537,2178.172429200262,None,2178.671955000609,None,2178.671955000609,None,f,1.4662561994045973,2178.671955000609,None,1.4662561994045973,,,79 Silent,001,2022_Nov_15_1522,ProdSingRedoBetween,2021.2.3,59.79112566422879,
,,,,162,0,162,0,,,,,,,,,,,,,,,,,,,,,,2186.412973800674,None,,,,,,,,,,,,,,,,,,debate,78,163,silent,old,red,2180.6661971006542,None,2180.6661971006542,None,6,3.848078199662268,2180.6661971006542,None,3.848078199662268,2184.5443945005536,None,2185.0503512006253,None,2185.0503512006253,None,f,1.3358786003664136,2185.0503512006253,None,1.3358786003664136,,,79 Silent,001,2022_Nov_15_1522,ProdSingRedoBetween,2021.2.3,59.79112566422879,
,,,,163,0,163,0,,,,,,,,,,,,,,,,,,,,,,2190.8007375001907,None,,,,,,,,,,,,,,,,,,stand,106,164,silent,new,null,2186.9265506006777,None,2186.9265506006777,None,1,2.0677017997950315,2186.9265506006777,None,2.0677017997950315,2189.017182800919,None,2189.538976300508,None,2189.538976300508,None,f,1.2312909001484513,2189.538976300508,None,1.2312909001484513,,,79 Silent,001,2022_Nov_15_1522,ProdSingRedoBetween,2021.2.3,59.79112566422879,
,,,,164,0,164,0,,,,,,,,,,,,,,,,,,,,,,2197.1736305002123,None,,,,,,,,,,,,,,,,,,notice,55,165,silent,old,blue,2191.309397600591,None,2191.309397600591,None,1,4.260879300534725,2191.309397600591,None,4.260879300534725,2195.5955832004547,None,2196.109239300713,None,2196.109239300713,None,f,1.0450125001370907,2196.109239300713,None,1.0450125001370907,,,79 Silent,001,2022_Nov_15_1522,ProdSingRedoBetween,2021.2.3,59.79112566422879,
,,,,165,0,165,0,,,,,,,,,,,,,,,,,,,,,,2201.8616846008226,None,,,,,,,,,,,,,,,,,,force,129,166,silent,new,null,2197.6765941008925,None,2197.6765941008925,None,1,1.7897150991484523,2197.6765941008925,None,1.7897150991484523,2199.493914999999,None,2200.0037032002583,None,2200.0037032002583,None,r,1.838539999909699,2200.0037032002583,None,1.838539999909699,,,79 Silent,001,2022_Nov_15_1522,ProdSingRedoBetween,2021.2.3,59.79112566422879,
,,,,166,0,166,0,,,,,,,,,,,,,,,,,,,,,,2207.135329500772,None,,,,,,,,,,,,,,,,,,weather,67,167,silent,old,red,2202.3726432006806,None,2202.3726432006806,None,1,2.9175952998921275,2202.3726432006806,None,2.9175952998921275,2205.3180464003235,None,2205.8344767000526,None,2205.8344767000526,None,r,1.2716664001345634,2205.8344767000526,None,1.2716664001345634,,,79 Silent,001,2022_Nov_15_1522,ProdSingRedoBetween,2021.2.3,59.79112566422879,
,,,,167,0,167,0,,,,,,,,,,,,,,,,,,,,,,2210.803961900063,None,,,,,,,,,,,,,,,,,,interior,31,168,silent,old,blue,2207.650807500817,None,2207.650807500817,None,1,1.3514374997466803,2207.650807500817,None,1.3514374997466803,2209.019782700576,None,2209.5194574007764,None,2209.5194574007764,None,f,1.258691499941051,2209.5194574007764,None,1.258691499941051,,,79 Silent,001,2022_Nov_15_1522,ProdSingRedoBetween,2021.2.3,59.79112566422879,
,,,,168,0,168,0,,,,,,,,,,,,,,,,,,,,,,2214.34084800072,None,,,,,,,,,,,,,,,,,,reach,12,169,silent,old,yellow,2211.3047302002087,None,2211.3047302002087,None,1,1.409494699910283,2211.3047302002087,None,1.409494699910283,2212.7418059008196,None,2213.2564983004704,None,2213.2564983004704,None,f,1.057803399860859,2213.2564983004704,None,1.057803399860859,,,79 Silent,001,2022_Nov_15_1522,ProdSingRedoBetween,2021.2.3,59.79112566422879,
,,,,169,0,169,0,,,,,,,,,,,,,,,,,,,,,,2219.4125273004174,None,,,,,,,,,,,,,,,,,,general,81,170,silent,old,red,2214.8503201007843,None,2214.8503201007843,None,1,2.559966600500047,2214.8503201007843,None,2.559966600500047,2217.440805900842,None,2217.9443130008876,None,2217.9443130008876,None,f,1.449784499593079,2217.9443130008876,None,1.449784499593079,,,79 Silent,001,2022_Nov_15_1522,ProdSingRedoBetween,2021.2.3,59.79112566422879,
