StudyLoop.thisRepN,StudyLoop.thisTrialN,StudyLoop.thisN,StudyLoop.thisIndex,TestLoop.thisRepN,TestLoop.thisTrialN,TestLoop.thisN,TestLoop.thisIndex,textCondition.started,textCondition.stopped,keyCondition.keys,keyCondition.rt,keyCondition.started,keyCondition.stopped,Condition,textWelcome.started,textWelcome.stopped,keyWelcome.keys,keyWelcome.rt,keyWelcome.started,keyWelcome.stopped,textAloud.started,textAloud.stopped,textSilent.started,textSilent.stopped,textSing.started,textSing.stopped,conditional_text.started,conditional_text.stopped,textBlank500.started,textBlank500.stopped,study_word,study_num,study_order,study_type,word_color,textStudy.started,textStudy.stopped,keyStudy.keys,keyStudy.started,keyStudy.stopped,textTestInstructions.started,textTestInstructions.stopped,key_resp_3.keys,key_resp_3.rt,key_resp_3.started,key_resp_3.stopped,test_word,test_num,test_order,test_condition,old_new_test,test_word_original_color,textConf.started,textConf.stopped,textConfScale.started,textConfScale.stopped,keyConf.keys,keyConf.rt,keyConf.started,keyConf.stopped,confidence response time,textTestBlank.started,textTestBlank.stopped,textRKN.started,textRKN.stopped,textRKNScale.started,textRKNScale.stopped,keyRKN.keys,keyRKN.rt,keyRKN.started,keyRKN.stopped,rkn response time,textEnd.started,textEnd.stopped,participant,session,date,expName,psychopyVersion,frameRate,
,,,,,,,,47.09246579930186,None,b,4.381473099812865,47.09246579930186,None,,,,,,,,,,,,,,,,,,,,,,,,,,,,,,,,,,,,,,,,,,,,,,,,,,,,,,,,,,,,,,80 Aloud,001,2022_Nov_15_1604,ProdSingRedoBetween,2021.2.3,60.0248024651864,
,,,,,,,,,,,,,,AloudTest,51.546723399311304,None,space,251.1586844995618,51.546723399311304,None,,,,,,,,,,,,,,,,,,,,,,,,,,,,,,,,,,,,,,,,,,,,,,,,,,,,,,,80 Aloud,001,2022_Nov_15_1604,ProdSingRedoBetween,2021.2.3,60.0248024651864,
0,0,0,0,,,,,,,,,,,,,,,,,,51.546723399311304,None,51.546723399311304,None,51.546723399311304,None,51.546723399311304,None,305.2498972993344,None,search,15,1,aloud,yellow,303.2368608992547,None,None,303.2368608992547,None,,,,,,,,,,,,,,,,,,,,,,,,,,,,,,,,,,,80 Aloud,001,2022_Nov_15_1604,ProdSingRedoBetween,2021.2.3,60.0248024651864,
1,0,1,0,,,,,,,,,,,,,,,,,,,,,,,,,,307.7525434996933,None,reach,6,2,aloud,yellow,305.7505912994966,None,None,305.7505912994966,None,,,,,,,,,,,,,,,,,,,,,,,,,,,,,,,,,,,80 Aloud,001,2022_Nov_15_1604,ProdSingRedoBetween,2021.2.3,60.0248024651864,
2,0,2,0,,,,,,,,,,,,,,,,,,,,,,,,,,310.25514509994537,None,present,66,3,aloud,red,308.25319309998304,None,None,308.25319309998304,None,,,,,,,,,,,,,,,,,,,,,,,,,,,,,,,,,,,80 Aloud,001,2022_Nov_15_1604,ProdSingRedoBetween,2021.2.3,60.0248024651864,
3,0,3,0,,,,,,,,,,,,,,,,,,,,,,,,,,312.75763639993966,None,salary,5,4,aloud,yellow,310.7556768991053,None,None,310.7556768991053,None,,,,,,,,,,,,,,,,,,,,,,,,,,,,,,,,,,,80 Aloud,001,2022_Nov_15_1604,ProdSingRedoBetween,2021.2.3,60.0248024651864,
4,0,4,0,,,,,,,,,,,,,,,,,,,,,,,,,,315.27699099946767,None,bicycle,4,5,aloud,yellow,313.2631127992645,None,None,313.2631127992645,None,,,,,,,,,,,,,,,,,,,,,,,,,,,,,,,,,,,80 Aloud,001,2022_Nov_15_1604,ProdSingRedoBetween,2021.2.3,60.0248024651864,
5,0,5,0,,,,,,,,,,,,,,,,,,,,,,,,,,317.77931429911405,None,bureau,70,6,aloud,red,315.7789651993662,None,None,315.7789651993662,None,,,,,,,,,,,,,,,,,,,,,,,,,,,,,,,,,,,80 Aloud,001,2022_Nov_15_1604,ProdSingRedoBetween,2021.2.3,60.0248024651864,
6,0,6,0,,,,,,,,,,,,,,,,,,,,,,,,,,320.2985363993794,None,master,61,7,aloud,red,318.286412499845,None,None,318.286412499845,None,,,,,,,,,,,,,,,,,,,,,,,,,,,,,,,,,,,80 Aloud,001,2022_Nov_15_1604,ProdSingRedoBetween,2021.2.3,60.0248024651864,
7,0,7,0,,,,,,,,,,,,,,,,,,,,,,,,,,322.8010725993663,None,sweet,37,8,aloud,blue,320.79878369998187,None,None,320.79878369998187,None,,,,,,,,,,,,,,,,,,,,,,,,,,,,,,,,,,,80 Aloud,001,2022_Nov_15_1604,ProdSingRedoBetween,2021.2.3,60.0248024651864,
8,0,8,0,,,,,,,,,,,,,,,,,,,,,,,,,,325.32017359975725,None,pancakes,71,9,aloud,red,323.3106689993292,None,None,323.3106689993292,None,,,,,,,,,,,,,,,,,,,,,,,,,,,,,,,,,,,80 Aloud,001,2022_Nov_15_1604,ProdSingRedoBetween,2021.2.3,60.0248024651864,
9,0,9,0,,,,,,,,,,,,,,,,,,,,,,,,,,327.82271089963615,None,material,39,10,aloud,blue,325.8207436995581,None,None,325.8207436995581,None,,,,,,,,,,,,,,,,,,,,,,,,,,,,,,,,,,,80 Aloud,001,2022_Nov_15_1604,ProdSingRedoBetween,2021.2.3,60.0248024651864,
10,0,10,0,,,,,,,,,,,,,,,,,,,,,,,,,,330.3252031998709,None,author,51,11,aloud,blue,328.3232066994533,None,None,328.3232066994533,None,,,,,,,,,,,,,,,,,,,,,,,,,,,,,,,,,,,80 Aloud,001,2022_Nov_15_1604,ProdSingRedoBetween,2021.2.3,60.0248024651864,
11,0,11,0,,,,,,,,,,,,,,,,,,,,,,,,,,332.8273908998817,None,industry,32,12,aloud,blue,330.8266504993662,None,None,330.8266504993662,None,,,,,,,,,,,,,,,,,,,,,,,,,,,,,,,,,,,80 Aloud,001,2022_Nov_15_1604,ProdSingRedoBetween,2021.2.3,60.0248024651864,
12,0,12,0,,,,,,,,,,,,,,,,,,,,,,,,,,335.32996059954166,None,graduate,0,13,aloud,yellow,333.328401199542,None,None,333.328401199542,None,,,,,,,,,,,,,,,,,,,,,,,,,,,,,,,,,,,80 Aloud,001,2022_Nov_15_1604,ProdSingRedoBetween,2021.2.3,60.0248024651864,
13,0,13,0,,,,,,,,,,,,,,,,,,,,,,,,,,337.83243099972606,None,escape,30,14,aloud,blue,335.8321690997109,None,None,335.8321690997109,None,,,,,,,,,,,,,,,,,,,,,,,,,,,,,,,,,,,80 Aloud,001,2022_Nov_15_1604,ProdSingRedoBetween,2021.2.3,60.0248024651864,
14,0,14,0,,,,,,,,,,,,,,,,,,,,,,,,,,340.33512829989195,None,dream,29,15,aloud,blue,338.3331946991384,None,None,338.3331946991384,None,,,,,,,,,,,,,,,,,,,,,,,,,,,,,,,,,,,80 Aloud,001,2022_Nov_15_1604,ProdSingRedoBetween,2021.2.3,60.0248024651864,
15,0,15,0,,,,,,,,,,,,,,,,,,,,,,,,,,342.83767019957304,None,minor,23,16,aloud,yellow,340.835368799977,None,None,340.835368799977,None,,,,,,,,,,,,,,,,,,,,,,,,,,,,,,,,,,,80 Aloud,001,2022_Nov_15_1604,ProdSingRedoBetween,2021.2.3,60.0248024651864,
16,0,16,0,,,,,,,,,,,,,,,,,,,,,,,,,,345.34014189988375,None,produce,43,17,aloud,blue,343.33817749936134,None,None,343.33817749936134,None,,,,,,,,,,,,,,,,,,,,,,,,,,,,,,,,,,,80 Aloud,001,2022_Nov_15_1604,ProdSingRedoBetween,2021.2.3,60.0248024651864,
17,0,17,0,,,,,,,,,,,,,,,,,,,,,,,,,,347.84264279995114,None,platform,57,18,aloud,blue,345.8415615996346,None,None,345.8415615996346,None,,,,,,,,,,,,,,,,,,,,,,,,,,,,,,,,,,,80 Aloud,001,2022_Nov_15_1604,ProdSingRedoBetween,2021.2.3,60.0248024651864,
18,0,18,0,,,,,,,,,,,,,,,,,,,,,,,,,,350.36145629920065,None,substance,56,19,aloud,blue,348.34744459949434,None,None,348.34744459949434,None,,,,,,,,,,,,,,,,,,,,,,,,,,,,,,,,,,,80 Aloud,001,2022_Nov_15_1604,ProdSingRedoBetween,2021.2.3,60.0248024651864,
19,0,19,0,,,,,,,,,,,,,,,,,,,,,,,,,,352.86437919922173,None,error,89,20,aloud,red,350.8620254993439,None,None,350.8620254993439,None,,,,,,,,,,,,,,,,,,,,,,,,,,,,,,,,,,,80 Aloud,001,2022_Nov_15_1604,ProdSingRedoBetween,2021.2.3,60.0248024651864,
20,0,20,0,,,,,,,,,,,,,,,,,,,,,,,,,,355.3834422994405,None,fellow,62,21,aloud,red,353.369257199578,None,None,353.369257199578,None,,,,,,,,,,,,,,,,,,,,,,,,,,,,,,,,,,,80 Aloud,001,2022_Nov_15_1604,ProdSingRedoBetween,2021.2.3,60.0248024651864,
21,0,21,0,,,,,,,,,,,,,,,,,,,,,,,,,,357.8859536992386,None,charter,47,22,aloud,blue,355.88434879947454,None,None,355.88434879947454,None,,,,,,,,,,,,,,,,,,,,,,,,,,,,,,,,,,,80 Aloud,001,2022_Nov_15_1604,ProdSingRedoBetween,2021.2.3,60.0248024651864,
22,0,22,0,,,,,,,,,,,,,,,,,,,,,,,,,,360.38848149962723,None,cross,28,23,aloud,yellow,358.3865298992023,None,None,358.3865298992023,None,,,,,,,,,,,,,,,,,,,,,,,,,,,,,,,,,,,80 Aloud,001,2022_Nov_15_1604,ProdSingRedoBetween,2021.2.3,60.0248024651864,
23,0,23,0,,,,,,,,,,,,,,,,,,,,,,,,,,362.9074668996036,None,stand,72,24,aloud,red,360.89445169921964,None,None,360.89445169921964,None,,,,,,,,,,,,,,,,,,,,,,,,,,,,,,,,,,,80 Aloud,001,2022_Nov_15_1604,ProdSingRedoBetween,2021.2.3,60.0248024651864,
24,0,24,0,,,,,,,,,,,,,,,,,,,,,,,,,,365.40998509991914,None,phrase,36,25,aloud,blue,363.40985989943147,None,None,363.40985989943147,None,,,,,,,,,,,,,,,,,,,,,,,,,,,,,,,,,,,80 Aloud,001,2022_Nov_15_1604,ProdSingRedoBetween,2021.2.3,60.0248024651864,
25,0,25,0,,,,,,,,,,,,,,,,,,,,,,,,,,367.9126694994047,None,income,84,26,aloud,red,365.91049119923264,None,None,365.91049119923264,None,,,,,,,,,,,,,,,,,,,,,,,,,,,,,,,,,,,80 Aloud,001,2022_Nov_15_1604,ProdSingRedoBetween,2021.2.3,60.0248024651864,
26,0,26,0,,,,,,,,,,,,,,,,,,,,,,,,,,370.41480579972267,None,enemy,55,27,aloud,blue,368.4132005991414,None,None,368.4132005991414,None,,,,,,,,,,,,,,,,,,,,,,,,,,,,,,,,,,,80 Aloud,001,2022_Nov_15_1604,ProdSingRedoBetween,2021.2.3,60.0248024651864,
27,0,27,0,,,,,,,,,,,,,,,,,,,,,,,,,,372.9175885999575,None,throw,50,28,aloud,blue,370.9153370996937,None,None,370.9153370996937,None,,,,,,,,,,,,,,,,,,,,,,,,,,,,,,,,,,,80 Aloud,001,2022_Nov_15_1604,ProdSingRedoBetween,2021.2.3,60.0248024651864,
28,0,28,0,,,,,,,,,,,,,,,,,,,,,,,,,,375.43684709910303,None,volume,79,29,aloud,red,373.4278800999746,None,None,373.4278800999746,None,,,,,,,,,,,,,,,,,,,,,,,,,,,,,,,,,,,80 Aloud,001,2022_Nov_15_1604,ProdSingRedoBetween,2021.2.3,60.0248024651864,
29,0,29,0,,,,,,,,,,,,,,,,,,,,,,,,,,377.9393674992025,None,military,88,30,aloud,red,375.9387978995219,None,None,375.9387978995219,None,,,,,,,,,,,,,,,,,,,,,,,,,,,,,,,,,,,80 Aloud,001,2022_Nov_15_1604,ProdSingRedoBetween,2021.2.3,60.0248024651864,
30,0,30,0,,,,,,,,,,,,,,,,,,,,,,,,,,380.44145119935274,None,pressure,26,31,aloud,yellow,378.4406988993287,None,None,378.4406988993287,None,,,,,,,,,,,,,,,,,,,,,,,,,,,,,,,,,,,80 Aloud,001,2022_Nov_15_1604,ProdSingRedoBetween,2021.2.3,60.0248024651864,
31,0,31,0,,,,,,,,,,,,,,,,,,,,,,,,,,382.9440826997161,None,course,80,32,aloud,red,380.9423509994522,None,None,380.9423509994522,None,,,,,,,,,,,,,,,,,,,,,,,,,,,,,,,,,,,80 Aloud,001,2022_Nov_15_1604,ProdSingRedoBetween,2021.2.3,60.0248024651864,
32,0,32,0,,,,,,,,,,,,,,,,,,,,,,,,,,385.44783499930054,None,length,53,33,aloud,blue,383.44712429959327,None,None,383.44712429959327,None,,,,,,,,,,,,,,,,,,,,,,,,,,,,,,,,,,,80 Aloud,001,2022_Nov_15_1604,ProdSingRedoBetween,2021.2.3,60.0248024651864,
33,0,33,0,,,,,,,,,,,,,,,,,,,,,,,,,,387.9489721991122,None,answer,33,34,aloud,blue,385.9483273997903,None,None,385.9483273997903,None,,,,,,,,,,,,,,,,,,,,,,,,,,,,,,,,,,,80 Aloud,001,2022_Nov_15_1604,ProdSingRedoBetween,2021.2.3,60.0248024651864,
34,0,34,0,,,,,,,,,,,,,,,,,,,,,,,,,,390.4682365991175,None,agency,10,35,aloud,yellow,388.4554896997288,None,None,388.4554896997288,None,,,,,,,,,,,,,,,,,,,,,,,,,,,,,,,,,,,80 Aloud,001,2022_Nov_15_1604,ProdSingRedoBetween,2021.2.3,60.0248024651864,
35,0,35,0,,,,,,,,,,,,,,,,,,,,,,,,,,392.97102429997176,None,employment,77,36,aloud,red,390.9691695999354,None,None,390.9691695999354,None,,,,,,,,,,,,,,,,,,,,,,,,,,,,,,,,,,,80 Aloud,001,2022_Nov_15_1604,ProdSingRedoBetween,2021.2.3,60.0248024651864,
36,0,36,0,,,,,,,,,,,,,,,,,,,,,,,,,,395.47344789933413,None,election,52,37,aloud,blue,393.471678099595,None,None,393.471678099595,None,,,,,,,,,,,,,,,,,,,,,,,,,,,,,,,,,,,80 Aloud,001,2022_Nov_15_1604,ProdSingRedoBetween,2021.2.3,60.0248024651864,
37,0,37,0,,,,,,,,,,,,,,,,,,,,,,,,,,397.97595479991287,None,household,87,38,aloud,red,395.9768104990944,None,None,395.9768104990944,None,,,,,,,,,,,,,,,,,,,,,,,,,,,,,,,,,,,80 Aloud,001,2022_Nov_15_1604,ProdSingRedoBetween,2021.2.3,60.0248024651864,
38,0,38,0,,,,,,,,,,,,,,,,,,,,,,,,,,400.4948790995404,None,prime,40,39,aloud,blue,398.4852879997343,None,None,398.4852879997343,None,,,,,,,,,,,,,,,,,,,,,,,,,,,,,,,,,,,80 Aloud,001,2022_Nov_15_1604,ProdSingRedoBetween,2021.2.3,60.0248024651864,
39,0,39,0,,,,,,,,,,,,,,,,,,,,,,,,,,402.99762299936265,None,frank,42,40,aloud,blue,400.9954618997872,None,None,400.9954618997872,None,,,,,,,,,,,,,,,,,,,,,,,,,,,,,,,,,,,80 Aloud,001,2022_Nov_15_1604,ProdSingRedoBetween,2021.2.3,60.0248024651864,
40,0,40,0,,,,,,,,,,,,,,,,,,,,,,,,,,405.50012299977243,None,height,69,41,aloud,red,403.5011144997552,None,None,403.5011144997552,None,,,,,,,,,,,,,,,,,,,,,,,,,,,,,,,,,,,80 Aloud,001,2022_Nov_15_1604,ProdSingRedoBetween,2021.2.3,60.0248024651864,
41,0,41,0,,,,,,,,,,,,,,,,,,,,,,,,,,408.0026442995295,None,territory,54,42,aloud,blue,406.00340419914573,None,None,406.00340419914573,None,,,,,,,,,,,,,,,,,,,,,,,,,,,,,,,,,,,80 Aloud,001,2022_Nov_15_1604,ProdSingRedoBetween,2021.2.3,60.0248024651864,
42,0,42,0,,,,,,,,,,,,,,,,,,,,,,,,,,410.5217705992982,None,shear,24,43,aloud,yellow,408.50881899986416,None,None,408.50881899986416,None,,,,,,,,,,,,,,,,,,,,,,,,,,,,,,,,,,,80 Aloud,001,2022_Nov_15_1604,ProdSingRedoBetween,2021.2.3,60.0248024651864,
43,0,43,0,,,,,,,,,,,,,,,,,,,,,,,,,,413.0240442994982,None,whole,58,44,aloud,blue,411.02212059963495,None,None,411.02212059963495,None,,,,,,,,,,,,,,,,,,,,,,,,,,,,,,,,,,,80 Aloud,001,2022_Nov_15_1604,ProdSingRedoBetween,2021.2.3,60.0248024651864,
44,0,44,0,,,,,,,,,,,,,,,,,,,,,,,,,,415.5267615998164,None,dispute,8,45,aloud,yellow,413.5274411998689,None,None,413.5274411998689,None,,,,,,,,,,,,,,,,,,,,,,,,,,,,,,,,,,,80 Aloud,001,2022_Nov_15_1604,ProdSingRedoBetween,2021.2.3,60.0248024651864,
45,0,45,0,,,,,,,,,,,,,,,,,,,,,,,,,,418.04603369999677,None,tough,35,46,aloud,blue,416.0335210999474,None,None,416.0335210999474,None,,,,,,,,,,,,,,,,,,,,,,,,,,,,,,,,,,,80 Aloud,001,2022_Nov_15_1604,ProdSingRedoBetween,2021.2.3,60.0248024651864,
46,0,46,0,,,,,,,,,,,,,,,,,,,,,,,,,,420.54850619938225,None,broke,22,47,aloud,yellow,418.54927089996636,None,None,418.54927089996636,None,,,,,,,,,,,,,,,,,,,,,,,,,,,,,,,,,,,80 Aloud,001,2022_Nov_15_1604,ProdSingRedoBetween,2021.2.3,60.0248024651864,
47,0,47,0,,,,,,,,,,,,,,,,,,,,,,,,,,423.0510991998017,None,symbol,3,48,aloud,yellow,421.04873809963465,None,None,421.04873809963465,None,,,,,,,,,,,,,,,,,,,,,,,,,,,,,,,,,,,80 Aloud,001,2022_Nov_15_1604,ProdSingRedoBetween,2021.2.3,60.0248024651864,
48,0,48,0,,,,,,,,,,,,,,,,,,,,,,,,,,425.5535346996039,None,country,74,49,aloud,red,423.5515401000157,None,None,423.5515401000157,None,,,,,,,,,,,,,,,,,,,,,,,,,,,,,,,,,,,80 Aloud,001,2022_Nov_15_1604,ProdSingRedoBetween,2021.2.3,60.0248024651864,
49,0,49,0,,,,,,,,,,,,,,,,,,,,,,,,,,428.07264609914273,None,court,67,50,aloud,red,426.0601698998362,None,None,426.0601698998362,None,,,,,,,,,,,,,,,,,,,,,,,,,,,,,,,,,,,80 Aloud,001,2022_Nov_15_1604,ProdSingRedoBetween,2021.2.3,60.0248024651864,
50,0,50,0,,,,,,,,,,,,,,,,,,,,,,,,,,430.5751639995724,None,nation,20,51,aloud,yellow,428.5731703992933,None,None,428.5731703992933,None,,,,,,,,,,,,,,,,,,,,,,,,,,,,,,,,,,,80 Aloud,001,2022_Nov_15_1604,ProdSingRedoBetween,2021.2.3,60.0248024651864,
51,0,51,0,,,,,,,,,,,,,,,,,,,,,,,,,,433.0774790998548,None,institute,44,52,aloud,blue,431.07556779962033,None,None,431.07556779962033,None,,,,,,,,,,,,,,,,,,,,,,,,,,,,,,,,,,,80 Aloud,001,2022_Nov_15_1604,ProdSingRedoBetween,2021.2.3,60.0248024651864,
52,0,52,0,,,,,,,,,,,,,,,,,,,,,,,,,,435.580123799853,None,balance,81,53,aloud,red,433.5781681993976,None,None,433.5781681993976,None,,,,,,,,,,,,,,,,,,,,,,,,,,,,,,,,,,,80 Aloud,001,2022_Nov_15_1604,ProdSingRedoBetween,2021.2.3,60.0248024651864,
53,0,53,0,,,,,,,,,,,,,,,,,,,,,,,,,,438.08270979952067,None,space,82,54,aloud,red,436.08056309912354,None,None,436.08056309912354,None,,,,,,,,,,,,,,,,,,,,,,,,,,,,,,,,,,,80 Aloud,001,2022_Nov_15_1604,ProdSingRedoBetween,2021.2.3,60.0248024651864,
54,0,54,0,,,,,,,,,,,,,,,,,,,,,,,,,,440.60205239988863,None,shape,16,55,aloud,yellow,438.591431199573,None,None,438.591431199573,None,,,,,,,,,,,,,,,,,,,,,,,,,,,,,,,,,,,80 Aloud,001,2022_Nov_15_1604,ProdSingRedoBetween,2021.2.3,60.0248024651864,
55,0,55,0,,,,,,,,,,,,,,,,,,,,,,,,,,443.104244899936,None,personnel,9,56,aloud,yellow,441.10230319947004,None,None,441.10230319947004,None,,,,,,,,,,,,,,,,,,,,,,,,,,,,,,,,,,,80 Aloud,001,2022_Nov_15_1604,ProdSingRedoBetween,2021.2.3,60.0248024651864,
56,0,56,0,,,,,,,,,,,,,,,,,,,,,,,,,,445.62350299954414,None,bucket,31,57,aloud,blue,443.61471399944276,None,None,443.61471399944276,None,,,,,,,,,,,,,,,,,,,,,,,,,,,,,,,,,,,80 Aloud,001,2022_Nov_15_1604,ProdSingRedoBetween,2021.2.3,60.0248024651864,
57,0,57,0,,,,,,,,,,,,,,,,,,,,,,,,,,448.14275969937444,None,provision,38,58,aloud,blue,446.13016299996525,None,None,446.13016299996525,None,,,,,,,,,,,,,,,,,,,,,,,,,,,,,,,,,,,80 Aloud,001,2022_Nov_15_1604,ProdSingRedoBetween,2021.2.3,60.0248024651864,
58,0,58,0,,,,,,,,,,,,,,,,,,,,,,,,,,450.64518209919333,None,blind,59,59,aloud,yellow,448.6431780997664,None,None,448.6431780997664,None,,,,,,,,,,,,,,,,,,,,,,,,,,,,,,,,,,,80 Aloud,001,2022_Nov_15_1604,ProdSingRedoBetween,2021.2.3,60.0248024651864,
59,0,59,0,,,,,,,,,,,,,,,,,,,,,,,,,,453.14747869968414,None,council,45,60,aloud,blue,451.1456512995064,None,None,451.1456512995064,None,,,,,,,,,,,,,,,,,,,,,,,,,,,,,,,,,,,80 Aloud,001,2022_Nov_15_1604,ProdSingRedoBetween,2021.2.3,60.0248024651864,
60,0,60,0,,,,,,,,,,,,,,,,,,,,,,,,,,455.6500446991995,None,message,11,61,aloud,yellow,453.6503990991041,None,None,453.6503990991041,None,,,,,,,,,,,,,,,,,,,,,,,,,,,,,,,,,,,80 Aloud,001,2022_Nov_15_1604,ProdSingRedoBetween,2021.2.3,60.0248024651864,
61,0,61,0,,,,,,,,,,,,,,,,,,,,,,,,,,458.1526463991031,None,scale,21,62,aloud,yellow,456.15350449923426,None,None,456.15350449923426,None,,,,,,,,,,,,,,,,,,,,,,,,,,,,,,,,,,,80 Aloud,001,2022_Nov_15_1604,ProdSingRedoBetween,2021.2.3,60.0248024651864,
62,0,62,0,,,,,,,,,,,,,,,,,,,,,,,,,,460.6552291996777,None,store,48,63,aloud,blue,458.65550259966403,None,None,458.65550259966403,None,,,,,,,,,,,,,,,,,,,,,,,,,,,,,,,,,,,80 Aloud,001,2022_Nov_15_1604,ProdSingRedoBetween,2021.2.3,60.0248024651864,
63,0,63,0,,,,,,,,,,,,,,,,,,,,,,,,,,463.157659499906,None,style,13,64,aloud,yellow,461.1583903999999,None,None,461.1583903999999,None,,,,,,,,,,,,,,,,,,,,,,,,,,,,,,,,,,,80 Aloud,001,2022_Nov_15_1604,ProdSingRedoBetween,2021.2.3,60.0248024651864,
64,0,64,0,,,,,,,,,,,,,,,,,,,,,,,,,,465.67685299925506,None,growth,63,65,aloud,red,463.66445389948785,None,None,463.66445389948785,None,,,,,,,,,,,,,,,,,,,,,,,,,,,,,,,,,,,80 Aloud,001,2022_Nov_15_1604,ProdSingRedoBetween,2021.2.3,60.0248024651864,
65,0,65,0,,,,,,,,,,,,,,,,,,,,,,,,,,468.17929329909384,None,portion,25,66,aloud,yellow,466.1772822998464,None,None,466.1772822998464,None,,,,,,,,,,,,,,,,,,,,,,,,,,,,,,,,,,,80 Aloud,001,2022_Nov_15_1604,ProdSingRedoBetween,2021.2.3,60.0248024651864,
66,0,66,0,,,,,,,,,,,,,,,,,,,,,,,,,,470.6982363993302,None,touch,14,67,aloud,yellow,468.6840940993279,None,None,468.6840940993279,None,,,,,,,,,,,,,,,,,,,,,,,,,,,,,,,,,,,80 Aloud,001,2022_Nov_15_1604,ProdSingRedoBetween,2021.2.3,60.0248024651864,
67,0,67,0,,,,,,,,,,,,,,,,,,,,,,,,,,473.20095529966056,None,production,7,68,aloud,yellow,471.2014782996848,None,None,471.2014782996848,None,,,,,,,,,,,,,,,,,,,,,,,,,,,,,,,,,,,80 Aloud,001,2022_Nov_15_1604,ProdSingRedoBetween,2021.2.3,60.0248024651864,
68,0,68,0,,,,,,,,,,,,,,,,,,,,,,,,,,475.72016589995474,None,opening,19,69,aloud,yellow,473.71114079933614,None,None,473.71114079933614,None,,,,,,,,,,,,,,,,,,,,,,,,,,,,,,,,,,,80 Aloud,001,2022_Nov_15_1604,ProdSingRedoBetween,2021.2.3,60.0248024651864,
69,0,69,0,,,,,,,,,,,,,,,,,,,,,,,,,,478.22271999996156,None,health,75,70,aloud,red,476.22067039925605,None,None,476.22067039925605,None,,,,,,,,,,,,,,,,,,,,,,,,,,,,,,,,,,,80 Aloud,001,2022_Nov_15_1604,ProdSingRedoBetween,2021.2.3,60.0248024651864,
70,0,70,0,,,,,,,,,,,,,,,,,,,,,,,,,,480.74181709997356,None,object,27,71,aloud,yellow,478.73424699995667,None,None,478.73424699995667,None,,,,,,,,,,,,,,,,,,,,,,,,,,,,,,,,,,,80 Aloud,001,2022_Nov_15_1604,ProdSingRedoBetween,2021.2.3,60.0248024651864,
71,0,71,0,,,,,,,,,,,,,,,,,,,,,,,,,,483.26098429970443,None,conference,49,72,aloud,blue,481.2472019996494,None,None,481.2472019996494,None,,,,,,,,,,,,,,,,,,,,,,,,,,,,,,,,,,,80 Aloud,001,2022_Nov_15_1604,ProdSingRedoBetween,2021.2.3,60.0248024651864,
72,0,72,0,,,,,,,,,,,,,,,,,,,,,,,,,,485.76345569919795,None,breath,18,73,aloud,yellow,483.7637114999816,None,None,483.7637114999816,None,,,,,,,,,,,,,,,,,,,,,,,,,,,,,,,,,,,80 Aloud,001,2022_Nov_15_1604,ProdSingRedoBetween,2021.2.3,60.0248024651864,
73,0,73,0,,,,,,,,,,,,,,,,,,,,,,,,,,488.28274239972234,None,discussion,65,74,aloud,red,486.2707982994616,None,None,486.2707982994616,None,,,,,,,,,,,,,,,,,,,,,,,,,,,,,,,,,,,80 Aloud,001,2022_Nov_15_1604,ProdSingRedoBetween,2021.2.3,60.0248024651864,
74,0,74,0,,,,,,,,,,,,,,,,,,,,,,,,,,490.78516699932516,None,signal,2,75,aloud,yellow,488.78315539937466,None,None,488.78315539937466,None,,,,,,,,,,,,,,,,,,,,,,,,,,,,,,,,,,,80 Aloud,001,2022_Nov_15_1604,ProdSingRedoBetween,2021.2.3,60.0248024651864,
75,0,75,0,,,,,,,,,,,,,,,,,,,,,,,,,,493.2874174993485,None,suggestion,85,76,aloud,red,491.28550049941987,None,None,491.28550049941987,None,,,,,,,,,,,,,,,,,,,,,,,,,,,,,,,,,,,80 Aloud,001,2022_Nov_15_1604,ProdSingRedoBetween,2021.2.3,60.0248024651864,
76,0,76,0,,,,,,,,,,,,,,,,,,,,,,,,,,495.7901957994327,None,death,83,77,aloud,red,493.7879625996575,None,None,493.7879625996575,None,,,,,,,,,,,,,,,,,,,,,,,,,,,,,,,,,,,80 Aloud,001,2022_Nov_15_1604,ProdSingRedoBetween,2021.2.3,60.0248024651864,
77,0,77,0,,,,,,,,,,,,,,,,,,,,,,,,,,498.2926687998697,None,display,17,78,aloud,yellow,496.2913761995733,None,None,496.2913761995733,None,,,,,,,,,,,,,,,,,,,,,,,,,,,,,,,,,,,80 Aloud,001,2022_Nov_15_1604,ProdSingRedoBetween,2021.2.3,60.0248024651864,
78,0,78,0,,,,,,,,,,,,,,,,,,,,,,,,,,500.8117223000154,None,sight,1,79,aloud,yellow,498.797287799418,None,None,498.797287799418,None,,,,,,,,,,,,,,,,,,,,,,,,,,,,,,,,,,,80 Aloud,001,2022_Nov_15_1604,ProdSingRedoBetween,2021.2.3,60.0248024651864,
79,0,79,0,,,,,,,,,,,,,,,,,,,,,,,,,,503.314348699525,None,commercial,73,80,aloud,red,501.31237949989736,None,None,501.31237949989736,None,,,,,,,,,,,,,,,,,,,,,,,,,,,,,,,,,,,80 Aloud,001,2022_Nov_15_1604,ProdSingRedoBetween,2021.2.3,60.0248024651864,
80,0,80,0,,,,,,,,,,,,,,,,,,,,,,,,,,505.8168642995879,None,congress,60,81,aloud,red,503.8149152994156,None,None,503.8149152994156,None,,,,,,,,,,,,,,,,,,,,,,,,,,,,,,,,,,,80 Aloud,001,2022_Nov_15_1604,ProdSingRedoBetween,2021.2.3,60.0248024651864,
81,0,81,0,,,,,,,,,,,,,,,,,,,,,,,,,,508.33582259994,None,exchange,41,82,aloud,blue,506.3223530994728,None,None,506.3223530994728,None,,,,,,,,,,,,,,,,,,,,,,,,,,,,,,,,,,,80 Aloud,001,2022_Nov_15_1604,ProdSingRedoBetween,2021.2.3,60.0248024651864,
82,0,82,0,,,,,,,,,,,,,,,,,,,,,,,,,,510.85512839909643,None,cousin,46,83,aloud,blue,508.8479901999235,None,None,508.8479901999235,None,,,,,,,,,,,,,,,,,,,,,,,,,,,,,,,,,,,80 Aloud,001,2022_Nov_15_1604,ProdSingRedoBetween,2021.2.3,60.0248024651864,
83,0,83,0,,,,,,,,,,,,,,,,,,,,,,,,,,513.3577197995037,None,property,64,84,aloud,red,511.3561255997047,None,None,511.3561255997047,None,,,,,,,,,,,,,,,,,,,,,,,,,,,,,,,,,,,80 Aloud,001,2022_Nov_15_1604,ProdSingRedoBetween,2021.2.3,60.0248024651864,
84,0,84,0,,,,,,,,,,,,,,,,,,,,,,,,,,515.8602039990947,None,trail,76,85,aloud,red,513.8582159997895,None,None,513.8582159997895,None,,,,,,,,,,,,,,,,,,,,,,,,,,,,,,,,,,,80 Aloud,001,2022_Nov_15_1604,ProdSingRedoBetween,2021.2.3,60.0248024651864,
85,0,85,0,,,,,,,,,,,,,,,,,,,,,,,,,,518.3627079995349,None,spoke,34,86,aloud,blue,516.3605630993843,None,None,516.3605630993843,None,,,,,,,,,,,,,,,,,,,,,,,,,,,,,,,,,,,80 Aloud,001,2022_Nov_15_1604,ProdSingRedoBetween,2021.2.3,60.0248024651864,
86,0,86,0,,,,,,,,,,,,,,,,,,,,,,,,,,520.8652748996392,None,meeting,12,87,aloud,yellow,518.8660902995616,None,None,518.8660902995616,None,,,,,,,,,,,,,,,,,,,,,,,,,,,,,,,,,,,80 Aloud,001,2022_Nov_15_1604,ProdSingRedoBetween,2021.2.3,60.0248024651864,
87,0,87,0,,,,,,,,,,,,,,,,,,,,,,,,,,523.3841717997566,None,theme,68,88,aloud,red,521.3696630997583,None,None,521.3696630997583,None,,,,,,,,,,,,,,,,,,,,,,,,,,,,,,,,,,,80 Aloud,001,2022_Nov_15_1604,ProdSingRedoBetween,2021.2.3,60.0248024651864,
88,0,88,0,,,,,,,,,,,,,,,,,,,,,,,,,,525.8867194997147,None,principal,78,89,aloud,red,523.8848454998806,None,None,523.8848454998806,None,,,,,,,,,,,,,,,,,,,,,,,,,,,,,,,,,,,80 Aloud,001,2022_Nov_15_1604,ProdSingRedoBetween,2021.2.3,60.0248024651864,
89,0,89,0,,,,,,,,,,,,,,,,,,,,,,,,,,528.4061472993344,None,group,86,90,aloud,red,526.3920863997191,None,None,526.3920863997191,None,,,,,,,,,,,,,,,,,,,,,,,,,,,,,,,,,,,80 Aloud,001,2022_Nov_15_1604,ProdSingRedoBetween,2021.2.3,60.0248024651864,
,,,,,,,,,,,,,,,,,,,,,,,,,,,,,,,,,,,,,,,,,528.9068455994129,None,k,213.57388339936733,528.9068455994129,None,,,,,,,,,,,,,,,,,,,,,,,,,,,,,80 Aloud,001,2022_Nov_15_1604,ProdSingRedoBetween,2021.2.3,60.0248024651864,
,,,,0,0,0,0,,,,,,,,,,,,,,,,,,,,,,767.76459389925,None,,,,,,,,,,,,,,,,,watch,109,1,aloud,new,null,743.0064008999616,None,743.0064008999616,None,6,18.258303300477564,743.0064008999616,None,18.258303300477564,761.2909208992496,None,761.805357599631,None,761.805357599631,None,r,5.93939290009439,761.805357599631,None,5.93939290009439,,,80 Aloud,001,2022_Nov_15_1604,ProdSingRedoBetween,2021.2.3,60.0248024651864,
,,,,1,0,1,0,,,,,,,,,,,,,,,,,,,,,,779.94020299986,None,,,,,,,,,,,,,,,,,discovery,133,2,aloud,new,null,768.2898624995723,None,768.2898624995723,None,6,9.406818299554288,768.2898624995723,None,9.406818299554288,777.7322019999847,None,778.2466897992417,None,778.2466897992417,None,r,1.6659425999969244,778.2466897992417,None,1.6659425999969244,,,80 Aloud,001,2022_Nov_15_1604,ProdSingRedoBetween,2021.2.3,60.0248024651864,
,,,,2,0,2,0,,,,,,,,,,,,,,,,,,,,,,786.1134599996731,None,,,,,,,,,,,,,,,,,personnel,9,3,aloud,old,yellow,780.4489233996719,None,780.4489233996719,None,6,3.6237091002985835,780.4489233996719,None,3.6237091002985835,784.0961165996268,None,784.6189942993224,None,784.6189942993224,None,r,1.469641899690032,784.6189942993224,None,1.469641899690032,,,80 Aloud,001,2022_Nov_15_1604,ProdSingRedoBetween,2021.2.3,60.0248024651864,
,,,,3,0,3,0,,,,,,,,,,,,,,,,,,,,,,793.1864130999893,None,,,,,,,,,,,,,,,,,skill,114,4,aloud,new,null,786.6219485998154,None,786.6219485998154,None,6,4.706691799685359,786.6219485998154,None,4.706691799685359,791.355422699824,None,791.8690410992131,None,791.8690410992131,None,r,1.2915666000917554,791.8690410992131,None,1.2915666000917554,,,80 Aloud,001,2022_Nov_15_1604,ProdSingRedoBetween,2021.2.3,60.0248024651864,
,,,,4,0,4,0,,,,,,,,,,,,,,,,,,,,,,801.1277885995805,None,,,,,,,,,,,,,,,,,spoke,34,5,aloud,old,blue,793.6875166995451,None,793.6875166995451,None,3,4.233112200163305,793.6875166995451,None,4.233112200163305,797.9443273991346,None,798.4587204996496,None,798.4587204996496,None,r,2.645814299583435,798.4587204996496,None,2.645814299583435,,,80 Aloud,001,2022_Nov_15_1604,ProdSingRedoBetween,2021.2.3,60.0248024651864,
,,,,5,0,5,0,,,,,,,,,,,,,,,,,,,,,,807.6011486994103,None,,,,,,,,,,,,,,,,,people,149,6,aloud,new,null,801.6332377996296,None,801.6332377996296,None,6,3.535278699360788,801.6332377996296,None,3.535278699360788,805.1987123992294,None,805.6994291990995,None,805.6994291990995,None,r,1.8851874005049467,805.6994291990995,None,1.8851874005049467,,,80 Aloud,001,2022_Nov_15_1604,ProdSingRedoBetween,2021.2.3,60.0248024651864,
,,,,6,0,6,0,,,,,,,,,,,,,,,,,,,,,,811.8550291992724,None,,,,,,,,,,,,,,,,,danger,112,7,aloud,new,null,808.1085722995922,None,808.1085722995922,None,6,2.100060200318694,808.1085722995922,None,2.100060200318694,810.2368772998452,None,810.7413272997364,None,810.7413272997364,None,r,1.0912724994122982,810.7413272997364,None,1.0912724994122982,,,80 Aloud,001,2022_Nov_15_1604,ProdSingRedoBetween,2021.2.3,60.0248024651864,
,,,,7,0,7,0,,,,,,,,,,,,,,,,,,,,,,817.0940052997321,None,,,,,,,,,,,,,,,,,population,96,8,aloud,new,null,812.3618119992316,None,812.3618119992316,None,6,3.038803800009191,812.3618119992316,None,3.038803800009191,815.4272360997275,None,815.9485356993973,None,815.9485356993973,None,r,1.1240545995533466,815.9485356993973,None,1.1240545995533466,,,80 Aloud,001,2022_Nov_15_1604,ProdSingRedoBetween,2021.2.3,60.0248024651864,
,,,,8,0,8,0,,,,,,,,,,,,,,,,,,,,,,824.7348605999723,None,,,,,,,,,,,,,,,,,gesture,145,9,aloud,new,null,817.5990841994062,None,817.5990841994062,None,6,3.0415016002953053,817.5990841994062,None,3.0415016002953053,820.6687161996961,None,821.1873610997573,None,821.1873610997573,None,f,3.525241299532354,821.1873610997573,None,3.525241299532354,,,80 Aloud,001,2022_Nov_15_1604,ProdSingRedoBetween,2021.2.3,60.0248024651864,
,,,,9,0,9,0,,,,,,,,,,,,,,,,,,,,,,830.5910238996148,None,,,,,,,,,,,,,,,,,report,147,10,aloud,new,null,825.2455715993419,None,825.2455715993419,None,2,3.5790541004389524,825.2455715993419,None,3.5790541004389524,828.8568430999294,None,829.3562332997099,None,829.3562332997099,None,r,1.204224199987948,829.3562332997099,None,1.204224199987948,,,80 Aloud,001,2022_Nov_15_1604,ProdSingRedoBetween,2021.2.3,60.0248024651864,
,,,,10,0,10,0,,,,,,,,,,,,,,,,,,,,,,844.2042354997247,None,,,,,,,,,,,,,,,,,minor,23,11,aloud,old,yellow,831.0934223998338,None,831.0934223998338,None,1,11.587140399962664,831.0934223998338,None,11.587140399962664,842.7025637999177,None,843.2031777994707,None,843.2031777994707,None,r,0.9733526995405555,843.2031777994707,None,0.9733526995405555,,,80 Aloud,001,2022_Nov_15_1604,ProdSingRedoBetween,2021.2.3,60.0248024651864,
,,,,11,0,11,0,,,,,,,,,,,,,,,,,,,,,,849.7431898992509,None,,,,,,,,,,,,,,,,,victory,111,12,aloud,new,null,844.7062631994486,None,844.7062631994486,None,6,3.350281400606036,844.7062631994486,None,3.350281400606036,848.0771753992885,None,848.5920940991491,None,848.5920940991491,None,r,1.1204305002465844,848.5920940991491,None,1.1204305002465844,,,80 Aloud,001,2022_Nov_15_1604,ProdSingRedoBetween,2021.2.3,60.0248024651864,
,,,,12,0,12,0,,,,,,,,,,,,,,,,,,,,,,854.0473868995905,None,,,,,,,,,,,,,,,,,bucket,31,13,aloud,old,blue,850.2451091995463,None,850.2451091995463,None,6,2.1633967999368906,850.2451091995463,None,2.1633967999368906,852.4307324998081,None,852.9353860998526,None,852.9353860998526,None,r,1.0810647001489997,852.9353860998526,None,1.0810647001489997,,,80 Aloud,001,2022_Nov_15_1604,ProdSingRedoBetween,2021.2.3,60.0248024651864,
,,,,13,0,13,0,,,,,,,,,,,,,,,,,,,,,,858.4351320993155,None,,,,,,,,,,,,,,,,,meeting,12,14,aloud,old,yellow,854.5553561998531,None,854.5553561998531,None,4,2.8371275002136827,854.5553561998531,None,2.8371275002136827,857.4187639998272,None,857.9181146994233,None,857.9181146994233,None,r,0.4903051005676389,857.9181146994233,None,0.4903051005676389,,,80 Aloud,001,2022_Nov_15_1604,ProdSingRedoBetween,2021.2.3,60.0248024651864,
,,,,14,0,14,0,,,,,,,,,,,,,,,,,,,,,,871.5649531995878,None,,,,,,,,,,,,,,,,,bureau,70,15,aloud,old,red,858.9422606993467,None,858.9422606993467,None,1,10.97023729979992,858.9422606993467,None,10.97023729979992,869.9318825993687,None,870.4471808997914,None,870.4471808997914,None,r,1.0973269008100033,870.4471808997914,None,1.0973269008100033,,,80 Aloud,001,2022_Nov_15_1604,ProdSingRedoBetween,2021.2.3,60.0248024651864,
,,,,15,0,15,0,,,,,,,,,,,,,,,,,,,,,,877.4207225991413,None,,,,,,,,,,,,,,,,,substance,56,16,aloud,old,blue,872.0738010993227,None,872.0738010993227,None,6,4.334647600539029,872.0738010993227,None,4.334647600539029,876.4376401994377,None,876.9371065990999,None,876.9371065990999,None,r,0.45541479997336864,876.9371065990999,None,0.45541479997336864,,,80 Aloud,001,2022_Nov_15_1604,ProdSingRedoBetween,2021.2.3,60.0248024651864,
,,,,16,0,16,0,,,,,,,,,,,,,,,,,,,,,,884.9616151992232,None,,,,,,,,,,,,,,,,,object,27,17,aloud,old,yellow,877.9298838991672,None,877.9298838991672,None,6,5.518589300103486,877.9298838991672,None,5.518589300103486,883.4793882993981,None,883.9940817998722,None,883.9940817998722,None,r,0.9503567004576325,883.9940817998722,None,0.9503567004576325,,,80 Aloud,001,2022_Nov_15_1604,ProdSingRedoBetween,2021.2.3,60.0248024651864,
,,,,17,0,17,0,,,,,,,,,,,,,,,,,,,,,,891.0010537998751,None,,,,,,,,,,,,,,,,,appearance,98,18,aloud,new,null,885.4620605995879,None,885.4620605995879,None,4,3.6983872996643186,885.4620605995879,None,3.6983872996643186,889.1841215994209,None,889.699737499468,None,889.699737499468,None,r,1.276650999672711,889.699737499468,None,1.276650999672711,,,80 Aloud,001,2022_Nov_15_1604,ProdSingRedoBetween,2021.2.3,60.0248024651864,
,,,,18,0,18,0,,,,,,,,,,,,,,,,,,,,,,897.6407085992396,None,,,,,,,,,,,,,,,,,rural,169,19,aloud,new,null,891.5015516998246,None,891.5015516998246,None,1,2.747163999825716,891.5015516998246,None,2.747163999825716,894.2804372999817,None,894.7932027997449,None,894.7932027997449,None,r,2.8232367001473904,894.7932027997449,None,2.8232367001473904,,,80 Aloud,001,2022_Nov_15_1604,ProdSingRedoBetween,2021.2.3,60.0248024651864,
,,,,19,0,19,0,,,,,,,,,,,,,,,,,,,,,,901.3778512999415,None,,,,,,,,,,,,,,,,,range,143,20,aloud,new,null,898.1504863994196,None,898.1504863994196,None,1,1.9539991999045014,898.1504863994196,None,1.9539991999045014,900.1300805993378,None,900.6440655998886,None,900.6440655998886,None,r,0.7083959998562932,900.6440655998886,None,0.7083959998562932,,,80 Aloud,001,2022_Nov_15_1604,ProdSingRedoBetween,2021.2.3,60.0248024651864,
,,,,20,0,20,0,,,,,,,,,,,,,,,,,,,,,,910.3035978991538,None,,,,,,,,,,,,,,,,,weight,131,21,aloud,new,null,901.8803473999724,None,901.8803473999724,None,6,6.864110699854791,901.8803473999724,None,6.864110699854791,908.772158799693,None,909.2860574992374,None,909.2860574992374,None,r,1.0023918999359012,909.2860574992374,None,1.0023918999359012,,,80 Aloud,001,2022_Nov_15_1604,ProdSingRedoBetween,2021.2.3,60.0248024651864,
,,,,21,0,21,0,,,,,,,,,,,,,,,,,,,,,,918.4614356998354,None,,,,,,,,,,,,,,,,,detective,146,22,aloud,new,null,910.8149238992482,None,910.8149238992482,None,3,6.225499799475074,910.8149238992482,None,6.225499799475074,917.0632271999493,None,917.5776439998299,None,917.5776439998299,None,r,0.8548441994935274,917.5776439998299,None,0.8548441994935274,,,80 Aloud,001,2022_Nov_15_1604,ProdSingRedoBetween,2021.2.3,60.0248024651864,
,,,,22,0,22,0,,,,,,,,,,,,,,,,,,,,,,921.9150318996981,None,,,,,,,,,,,,,,,,,master,61,23,aloud,old,red,918.9667019993067,None,918.9667019993067,None,6,1.8337046997621655,918.9667019993067,None,1.8337046997621655,920.8305356996134,None,921.3392374999821,None,921.3392374999821,None,r,0.5571195995435119,921.3392374999821,None,0.5571195995435119,,,80 Aloud,001,2022_Nov_15_1604,ProdSingRedoBetween,2021.2.3,60.0248024651864,
,,,,23,0,23,0,,,,,,,,,,,,,,,,,,,,,,928.4549710992724,None,,,,,,,,,,,,,,,,,evidence,123,24,aloud,new,null,922.4269627993926,None,922.4269627993926,None,6,2.6614749003201723,922.4269627993926,None,2.6614749003201723,925.1300186999142,None,925.6387362992391,None,925.6387362992391,None,r,2.7937753004953265,925.6387362992391,None,2.7937753004953265,,,80 Aloud,001,2022_Nov_15_1604,ProdSingRedoBetween,2021.2.3,60.0248024651864,
,,,,24,0,24,0,,,,,,,,,,,,,,,,,,,,,,937.2638190994039,None,,,,,,,,,,,,,,,,,solution,129,25,aloud,new,null,928.9555590990931,None,928.9555590990931,None,3,6.332840099930763,928.9555590990931,None,6.332840099930763,935.313290799968,None,935.8124743998051,None,935.8124743998051,None,r,1.4279146008193493,935.8124743998051,None,1.4279146008193493,,,80 Aloud,001,2022_Nov_15_1604,ProdSingRedoBetween,2021.2.3,60.0248024651864,
,,,,25,0,25,0,,,,,,,,,,,,,,,,,,,,,,943.2029666993767,None,,,,,,,,,,,,,,,,,appeal,141,26,aloud,new,null,937.77313509956,None,937.77313509956,None,2,3.843191599473357,937.77313509956,None,3.843191599473357,941.6359100993723,None,942.1388111999258,None,942.1388111999258,None,r,1.0454572001472116,942.1388111999258,None,1.0454572001472116,,,80 Aloud,001,2022_Nov_15_1604,ProdSingRedoBetween,2021.2.3,60.0248024651864,
,,,,26,0,26,0,,,,,,,,,,,,,,,,,,,,,,946.5063387993723,None,,,,,,,,,,,,,,,,,scale,21,27,aloud,old,yellow,943.7120775999501,None,943.7120775999501,None,6,1.8161924006417394,943.7120775999501,None,1.8161924006417394,945.5565454997122,None,946.0626443997025,None,946.0626443997025,None,r,0.417752199806273,946.0626443997025,None,0.417752199806273,,,80 Aloud,001,2022_Nov_15_1604,ProdSingRedoBetween,2021.2.3,60.0248024651864,
,,,,27,0,27,0,,,,,,,,,,,,,,,,,,,,,,949.4090358996764,None,,,,,,,,,,,,,,,,,cross,28,28,aloud,old,yellow,947.016103499569,None,947.016103499569,None,6,1.4882065998390317,947.016103499569,None,1.4882065998390317,948.5284705990925,None,949.0423197997734,None,949.0423197997734,None,r,0.34998720046132803,949.0423197997734,None,0.34998720046132803,,,80 Aloud,001,2022_Nov_15_1604,ProdSingRedoBetween,2021.2.3,60.0248024651864,
,,,,28,0,28,0,,,,,,,,,,,,,,,,,,,,,,954.2974459994584,None,,,,,,,,,,,,,,,,,search,15,29,aloud,old,yellow,949.9189790999517,None,949.9189790999517,None,3,2.6733675999566913,949.9189790999517,None,2.6733675999566913,952.6145328991115,None,953.1297143995762,None,953.1297143995762,None,r,1.1428439002484083,953.1297143995762,None,1.1428439002484083,,,80 Aloud,001,2022_Nov_15_1604,ProdSingRedoBetween,2021.2.3,60.0248024651864,
,,,,29,0,29,0,,,,,,,,,,,,,,,,,,,,,,958.8854311993346,None,,,,,,,,,,,,,,,,,impact,107,30,aloud,new,null,954.804717999883,None,954.804717999883,None,5,2.219595500268042,954.804717999883,None,2.219595500268042,957.0534961000085,None,957.5721612991765,None,957.5721612991765,None,r,1.2921783002093434,957.5721612991765,None,1.2921783002093434,,,80 Aloud,001,2022_Nov_15_1604,ProdSingRedoBetween,2021.2.3,60.0248024651864,
,,,,30,0,30,0,,,,,,,,,,,,,,,,,,,,,,962.8393091997132,None,,,,,,,,,,,,,,,,,murder,163,31,aloud,new,null,959.394159999676,None,959.394159999676,None,6,1.966152299195528,959.394159999676,None,1.966152299195528,961.3896748991683,None,961.9060849994421,None,961.9060849994421,None,r,0.902191299945116,961.9060849994421,None,0.902191299945116,,,80 Aloud,001,2022_Nov_15_1604,ProdSingRedoBetween,2021.2.3,60.0248024651864,
,,,,31,0,31,0,,,,,,,,,,,,,,,,,,,,,,966.9766947999597,None,,,,,,,,,,,,,,,,,death,83,32,aloud,old,red,963.3530867993832,None,963.3530867993832,None,6,2.575232299976051,963.3530867993832,None,2.575232299976051,965.9607779998332,None,966.4783273991197,None,966.4783273991197,None,r,0.47400210052728653,966.4783273991197,None,0.47400210052728653,,,80 Aloud,001,2022_Nov_15_1604,ProdSingRedoBetween,2021.2.3,60.0248024651864,
,,,,32,0,32,0,,,,,,,,,,,,,,,,,,,,,,971.181086299941,None,,,,,,,,,,,,,,,,,phrase,36,33,aloud,old,blue,967.4866822995245,None,967.4866822995245,None,2,2.0737146995961666,967.4866822995245,None,2.0737146995961666,969.5823185993358,None,970.1029495997354,None,970.1029495997354,None,r,1.049285700544715,970.1029495997354,None,1.049285700544715,,,80 Aloud,001,2022_Nov_15_1604,ProdSingRedoBetween,2021.2.3,60.0248024651864,
,,,,33,0,33,0,,,,,,,,,,,,,,,,,,,,,,975.2682804996148,None,,,,,,,,,,,,,,,,,military,88,34,aloud,old,red,971.6883690999821,None,971.6883690999821,None,6,2.487971999682486,971.6883690999821,None,2.487971999682486,974.2049039993435,None,974.7179431999102,None,974.7179431999102,None,r,0.5224104998633265,974.7179431999102,None,0.5224104998633265,,,80 Aloud,001,2022_Nov_15_1604,ProdSingRedoBetween,2021.2.3,60.0248024651864,
,,,,34,0,34,0,,,,,,,,,,,,,,,,,,,,,,980.6922683995217,None,,,,,,,,,,,,,,,,,display,17,35,aloud,old,yellow,975.7795377997681,None,975.7795377997681,None,3,2.9567904006689787,975.7795377997681,None,2.9567904006689787,978.7568693999201,None,979.2723960997537,None,979.2723960997537,None,r,1.3918714001774788,979.2723960997537,None,1.3918714001774788,,,80 Aloud,001,2022_Nov_15_1604,ProdSingRedoBetween,2021.2.3,60.0248024651864,
,,,,35,0,35,0,,,,,,,,,,,,,,,,,,,,,,983.8268358996138,None,,,,,,,,,,,,,,,,,title,156,36,aloud,new,null,981.2078095991164,None,981.2078095991164,None,6,1.5686285998672247,981.2078095991164,None,1.5686285998672247,982.7922374997288,None,983.2931075999513,None,983.2931075999513,None,r,0.5151563994586468,983.2931075999513,None,0.5151563994586468,,,80 Aloud,001,2022_Nov_15_1604,ProdSingRedoBetween,2021.2.3,60.0248024651864,
,,,,36,0,36,0,,,,,,,,,,,,,,,,,,,,,,989.5325030991808,None,,,,,,,,,,,,,,,,,material,39,37,aloud,old,blue,984.3373590996489,None,984.3373590996489,None,5,2.5189398005604744,984.3373590996489,None,2.5189398005604744,986.8797255996615,None,987.3805553996935,None,987.3805553996935,None,r,2.1319166999310255,987.3805553996935,None,2.1319166999310255,,,80 Aloud,001,2022_Nov_15_1604,ProdSingRedoBetween,2021.2.3,60.0248024651864,
,,,,37,0,37,0,,,,,,,,,,,,,,,,,,,,,,992.6355939991772,None,,,,,,,,,,,,,,,,,enemy,55,38,aloud,old,blue,990.0382651994005,None,990.0382651994005,None,6,1.6019331999123096,990.0382651994005,None,1.6019331999123096,991.6700292993337,None,992.1853778995574,None,992.1853778995574,None,r,0.43091109953820705,992.1853778995574,None,0.43091109953820705,,,80 Aloud,001,2022_Nov_15_1604,ProdSingRedoBetween,2021.2.3,60.0248024651864,
,,,,38,0,38,0,,,,,,,,,,,,,,,,,,,,,,998.2913838997483,None,,,,,,,,,,,,,,,,,position,135,39,aloud,new,null,993.1362300999463,None,993.1362300999463,None,3,3.2400569999590516,993.1362300999463,None,3.2400569999590516,996.4082143995911,None,996.9272255999967,None,996.9272255999967,None,r,1.3452197005972266,996.9272255999967,None,1.3452197005972266,,,80 Aloud,001,2022_Nov_15_1604,ProdSingRedoBetween,2021.2.3,60.0248024651864,
,,,,39,0,39,0,,,,,,,,,,,,,,,,,,,,,,1005.4150923993438,None,,,,,,,,,,,,,,,,,height,69,40,aloud,old,red,998.8019585991278,None,998.8019585991278,None,3,4.654192400164902,998.8019585991278,None,4.654192400164902,1003.479873499833,None,1003.980450999923,None,1003.980450999923,None,f,1.4037982998415828,1003.980450999923,None,1.4037982998415828,,,80 Aloud,001,2022_Nov_15_1604,ProdSingRedoBetween,2021.2.3,60.0248024651864,
,,,,40,0,40,0,,,,,,,,,,,,,,,,,,,,,,1012.6388852996752,None,,,,,,,,,,,,,,,,,sound,90,41,aloud,new,null,1005.919662299566,None,1005.919662299566,None,1,4.552477700635791,1005.919662299566,None,4.552477700635791,1010.5106800999492,None,1011.0206284997985,None,1011.0206284997985,None,r,1.5876297997310758,1011.0206284997985,None,1.5876297997310758,,,80 Aloud,001,2022_Nov_15_1604,ProdSingRedoBetween,2021.2.3,60.0248024651864,
,,,,41,0,41,0,,,,,,,,,,,,,,,,,,,,,,1016.5761826997623,None,,,,,,,,,,,,,,,,,equipment,99,42,aloud,new,null,1013.1424819994718,None,1013.1424819994718,None,2,2.0417875004932284,1013.1424819994718,None,2.0417875004932284,1015.2112805992365,None,1015.7255433993414,None,1015.7255433993414,None,r,0.826736799441278,1015.7255433993414,None,0.826736799441278,,,80 Aloud,001,2022_Nov_15_1604,ProdSingRedoBetween,2021.2.3,60.0248024651864,
,,,,42,0,42,0,,,,,,,,,,,,,,,,,,,,,,1022.9158880999312,None,,,,,,,,,,,,,,,,,escape,30,43,aloud,old,blue,1017.0857245996594,None,1017.0857245996594,None,5,4.938507300801575,1017.0857245996594,None,4.938507300801575,1022.0513230999932,None,1022.565695299767,None,1022.565695299767,None,r,0.3225181996822357,1022.565695299767,None,0.3225181996822357,,,80 Aloud,001,2022_Nov_15_1604,ProdSingRedoBetween,2021.2.3,60.0248024651864,
,,,,43,0,43,0,,,,,,,,,,,,,,,,,,,,,,1026.169040299952,None,,,,,,,,,,,,,,,,,force,178,44,aloud,new,null,1023.4283175999299,None,1023.4283175999299,None,6,1.3639067998155951,1023.4283175999299,None,1.3639067998155951,1024.8201247993857,None,1025.3371390998363,None,1025.3371390998363,None,r,0.8150907000526786,1025.3371390998363,None,0.8150907000526786,,,80 Aloud,001,2022_Nov_15_1604,ProdSingRedoBetween,2021.2.3,60.0248024651864,
,,,,44,0,44,0,,,,,,,,,,,,,,,,,,,,,,1030.1563585996628,None,,,,,,,,,,,,,,,,,theme,68,45,aloud,old,red,1026.6797726992518,None,1026.6797726992518,None,3,2.3206583000719547,1026.6797726992518,None,2.3206583000719547,1029.0287861991674,None,1029.5392135996372,None,1029.5392135996372,None,r,0.5890331994742155,1029.5392135996372,None,0.5890331994742155,,,80 Aloud,001,2022_Nov_15_1604,ProdSingRedoBetween,2021.2.3,60.0248024651864,
,,,,45,0,45,0,,,,,,,,,,,,,,,,,,,,,,1034.8819197993726,None,,,,,,,,,,,,,,,,,problem,164,46,aloud,new,null,1030.6604774994776,None,1030.6604774994776,None,5,3.2038108007982373,1030.6604774994776,None,3.2038108007982373,1033.8935331990942,None,1034.39882449992,None,1034.39882449992,None,r,0.4576350999996066,1034.39882449992,None,0.4576350999996066,,,80 Aloud,001,2022_Nov_15_1604,ProdSingRedoBetween,2021.2.3,60.0248024651864,
,,,,46,0,46,0,,,,,,,,,,,,,,,,,,,,,,1044.7376080993563,None,,,,,,,,,,,,,,,,,territory,54,47,aloud,old,blue,1035.39723079931,None,1035.39723079931,None,6,8.330989999696612,1035.39723079931,None,8.330989999696612,1043.7547261994332,None,1044.2538763992488,None,1044.2538763992488,None,r,0.46631010062992573,1044.2538763992488,None,0.46631010062992573,,,80 Aloud,001,2022_Nov_15_1604,ProdSingRedoBetween,2021.2.3,60.0248024651864,
,,,,47,0,47,0,,,,,,,,,,,,,,,,,,,,,,1047.4570485996082,None,,,,,,,,,,,,,,,,,exchange,41,48,aloud,old,blue,1045.2478063991293,None,1045.2478063991293,None,6,1.4884090991690755,1045.2478063991293,None,1.4884090991690755,1046.7591411992908,None,1047.2774014994502,None,1047.2774014994502,None,r,0.16282290033996105,1047.2774014994502,None,0.16282290033996105,,,80 Aloud,001,2022_Nov_15_1604,ProdSingRedoBetween,2021.2.3,60.0248024651864,
,,,,48,0,48,0,,,,,,,,,,,,,,,,,,,,,,1051.7279500998557,None,,,,,,,,,,,,,,,,,congress,60,49,aloud,old,red,1047.9672217993066,None,1047.9672217993066,None,6,2.9209451004862785,1047.9672217993066,None,2.9209451004862785,1050.9124741991982,None,1051.430996899493,None,1051.430996899493,None,r,0.27326770033687353,1051.430996899493,None,0.27326770033687353,,,80 Aloud,001,2022_Nov_15_1604,ProdSingRedoBetween,2021.2.3,60.0248024651864,
,,,,49,0,49,0,,,,,,,,,,,,,,,,,,,,,,1054.9314397992566,None,,,,,,,,,,,,,,,,,scene,162,50,aloud,new,null,1052.2340144999325,None,1052.2340144999325,None,6,1.6541838999837637,1052.2340144999325,None,1.6541838999837637,1053.9150484995916,None,1054.4205209994689,None,1054.4205209994689,None,r,0.49170579947531223,1054.4205209994689,None,0.49170579947531223,,,80 Aloud,001,2022_Nov_15_1604,ProdSingRedoBetween,2021.2.3,60.0248024651864,
,,,,50,0,50,0,,,,,,,,,,,,,,,,,,,,,,1061.1706521995366,None,,,,,,,,,,,,,,,,,build,177,51,aloud,new,null,1055.4332412993535,None,1055.4332412993535,None,2,1.942925600335002,1055.4332412993535,None,1.942925600335002,1057.401264199987,None,1057.900864499621,None,1057.900864499621,None,r,3.2433559000492096,1057.900864499621,None,3.2433559000492096,,,80 Aloud,001,2022_Nov_15_1604,ProdSingRedoBetween,2021.2.3,60.0248024651864,
,,,,51,0,51,0,,,,,,,,,,,,,,,,,,,,,,1064.9934150995687,None,,,,,,,,,,,,,,,,,profession,179,52,aloud,new,null,1061.683444599621,None,1061.683444599621,None,6,2.0526562007144094,1061.683444599621,None,2.0526562007144094,1063.77400859911,None,1064.274947299622,None,1064.274947299622,None,r,0.6932716006413102,1064.274947299622,None,0.6932716006413102,,,80 Aloud,001,2022_Nov_15_1604,ProdSingRedoBetween,2021.2.3,60.0248024651864,
,,,,52,0,52,0,,,,,,,,,,,,,,,,,,,,,,1068.7784065995365,None,,,,,,,,,,,,,,,,,comfort,159,53,aloud,new,null,1065.5115933995694,None,1065.5115933995694,None,2,2.0885038999840617,1065.5115933995694,None,2.0885038999840617,1067.6283717993647,None,1068.1401835000142,None,1068.1401835000142,None,r,0.6199482996016741,1068.1401835000142,None,0.6199482996016741,,,80 Aloud,001,2022_Nov_15_1604,ProdSingRedoBetween,2021.2.3,60.0248024651864,
,,,,53,0,53,0,,,,,,,,,,,,,,,,,,,,,,1073.2193489996716,None,,,,,,,,,,,,,,,,,bitter,130,54,aloud,new,null,1069.2899217996746,None,1069.2899217996746,None,2,2.7662376007065177,1069.2899217996746,None,2.7662376007065177,1072.0817799996585,None,1072.585353099741,None,1072.585353099741,None,r,0.6069939006119967,1072.585353099741,None,0.6069939006119967,,,80 Aloud,001,2022_Nov_15_1604,ProdSingRedoBetween,2021.2.3,60.0248024651864,
,,,,54,0,54,0,,,,,,,,,,,,,,,,,,,,,,1077.4898223998025,None,,,,,,,,,,,,,,,,,suggestion,85,55,aloud,old,red,1073.7472420996055,None,1073.7472420996055,None,4,2.940948599949479,1073.7472420996055,None,2.940948599949479,1076.719602899626,None,1077.2269184999168,None,1077.2269184999168,None,r,0.23728410061448812,1077.2269184999168,None,0.23728410061448812,,,80 Aloud,001,2022_Nov_15_1604,ProdSingRedoBetween,2021.2.3,60.0248024651864,
,,,,55,0,55,0,,,,,,,,,,,,,,,,,,,,,,1080.5955725992098,None,,,,,,,,,,,,,,,,,health,75,56,aloud,old,red,1078.0086220996454,None,1078.0086220996454,None,6,1.767675899900496,1078.0086220996454,None,1.767675899900496,1079.8095287997276,None,1080.3232585992664,None,1080.3232585992664,None,r,0.24507889989763498,1080.3232585992664,None,0.24507889989763498,,,80 Aloud,001,2022_Nov_15_1604,ProdSingRedoBetween,2021.2.3,60.0248024651864,
,,,,56,0,56,0,,,,,,,,,,,,,,,,,,,,,,1084.59394949954,None,,,,,,,,,,,,,,,,,institute,44,57,aloud,old,blue,1081.1149333994836,None,1081.1149333994836,None,6,2.0771773997694254,1081.1149333994836,None,2.0771773997694254,1083.2101895995438,None,1083.714250699617,None,1083.714250699617,None,r,0.8538336995989084,1083.714250699617,None,0.8538336995989084,,,80 Aloud,001,2022_Nov_15_1604,ProdSingRedoBetween,2021.2.3,60.0248024651864,
,,,,57,0,57,0,,,,,,,,,,,,,,,,,,,,,,1088.1143011990935,None,,,,,,,,,,,,,,,,,blind,59,58,aloud,old,yellow,1085.1068430999294,None,1085.1068430999294,None,6,1.6452403999865055,1085.1068430999294,None,1.6452403999865055,1086.7795250993222,None,1087.2835580995306,None,1087.2835580995306,None,r,0.8044766997918487,1087.2835580995306,None,0.8044766997918487,,,80 Aloud,001,2022_Nov_15_1604,ProdSingRedoBetween,2021.2.3,60.0248024651864,
,,,,58,0,58,0,,,,,,,,,,,,,,,,,,,,,,1091.5509942993522,None,,,,,,,,,,,,,,,,,sight,1,59,aloud,old,yellow,1088.6272559994832,None,1088.6272559994832,None,6,1.8208119003102183,1088.6272559994832,None,1.8208119003102183,1090.4679719991982,None,1090.9672037996352,None,1090.9672037996352,None,r,0.5529490001499653,1090.9672037996352,None,0.5529490001499653,,,80 Aloud,001,2022_Nov_15_1604,ProdSingRedoBetween,2021.2.3,60.0248024651864,
,,,,59,0,59,0,,,,,,,,,,,,,,,,,,,,,,1094.754130399786,None,,,,,,,,,,,,,,,,,space,82,60,aloud,old,red,1092.0614274991676,None,1092.0614274991676,None,6,1.7228487003594637,1092.0614274991676,None,1.7228487003594637,1093.8033197997138,None,1094.3039096994326,None,1094.3039096994326,None,r,0.4321721000596881,1094.3039096994326,None,0.4321721000596881,,,80 Aloud,001,2022_Nov_15_1604,ProdSingRedoBetween,2021.2.3,60.0248024651864,
,,,,60,0,60,0,,,,,,,,,,,,,,,,,,,,,,1098.3617356996983,None,,,,,,,,,,,,,,,,,commercial,73,61,aloud,old,red,1095.2611706992611,None,1095.2611706992611,None,6,2.186965899541974,1095.2611706992611,None,2.186965899541974,1097.480421799235,None,1098.0013682991266,None,1098.0013682991266,None,r,0.3269429998472333,1098.0013682991266,None,0.3269429998472333,,,80 Aloud,001,2022_Nov_15_1604,ProdSingRedoBetween,2021.2.3,60.0248024651864,
,,,,61,0,61,0,,,,,,,,,,,,,,,,,,,,,,1101.594226599671,None,,,,,,,,,,,,,,,,,state,137,62,aloud,new,null,1098.8828534996137,None,1098.8828534996137,None,6,1.7811164995655417,1098.8828534996137,None,1.7811164995655417,1100.697827199474,None,1101.2107581999153,None,1101.2107581999153,None,r,0.3574965000152588,1101.2107581999153,None,0.3574965000152588,,,80 Aloud,001,2022_Nov_15_1604,ProdSingRedoBetween,2021.2.3,60.0248024651864,
,,,,62,0,62,0,,,,,,,,,,,,,,,,,,,,,,1105.2313506994396,None,,,,,,,,,,,,,,,,,cousin,46,63,aloud,old,blue,1102.0971393994987,None,1102.0971393994987,None,2,2.1189239993691444,1102.0971393994987,None,2.1189239993691444,1104.2497013993561,None,1104.7748468993232,None,1104.7748468993232,None,r,0.43319200072437525,1104.7748468993232,None,0.43319200072437525,,,80 Aloud,001,2022_Nov_15_1604,ProdSingRedoBetween,2021.2.3,60.0248024651864,
,,,,63,0,63,0,,,,,,,,,,,,,,,,,,,,,,1108.250983699225,None,,,,,,,,,,,,,,,,,rapid,103,64,aloud,new,null,1105.7395537998527,None,1105.7395537998527,None,6,1.7647445006296039,1105.7395537998527,None,1.7647445006296039,1107.5517631992698,None,1108.0508971996605,None,1108.0508971996605,None,r,0.17314929980784655,1108.0508971996605,None,0.17314929980784655,,,80 Aloud,001,2022_Nov_15_1604,ProdSingRedoBetween,2021.2.3,60.0248024651864,
,,,,64,0,64,0,,,,,,,,,,,,,,,,,,,,,,1110.9536880999804,None,,,,,,,,,,,,,,,,,court,67,65,aloud,old,red,1108.7588391993195,None,1108.7588391993195,None,5,1.3532541999593377,1108.7588391993195,None,1.3532541999593377,1110.1376557992771,None,1110.6415181998163,None,1110.6415181998163,None,r,0.2944911001250148,1110.6415181998163,None,0.2944911001250148,,,80 Aloud,001,2022_Nov_15_1604,ProdSingRedoBetween,2021.2.3,60.0248024651864,
,,,,65,0,65,0,,,,,,,,,,,,,,,,,,,,,,1116.4258006997406,None,,,,,,,,,,,,,,,,,curve,173,66,aloud,new,null,1111.4630025997758,None,1111.4630025997758,None,5,3.4330185996368527,1111.4630025997758,None,3.4330185996368527,1114.9277958991006,None,1115.4415394999087,None,1115.4415394999087,None,r,0.9586056005209684,1115.4415394999087,None,0.9586056005209684,,,80 Aloud,001,2022_Nov_15_1604,ProdSingRedoBetween,2021.2.3,60.0248024651864,
,,,,66,0,66,0,,,,,,,,,,,,,,,,,,,,,,1120.9469569996,None,,,,,,,,,,,,,,,,,stranger,165,67,aloud,new,null,1116.9304011994973,None,1116.9304011994973,None,6,3.3177191000431776,1116.9304011994973,None,3.3177191000431776,1120.2671578992158,None,1120.7803360996768,None,1120.7803360996768,None,r,0.14781930018216372,1120.7803360996768,None,0.14781930018216372,,,80 Aloud,001,2022_Nov_15_1604,ProdSingRedoBetween,2021.2.3,60.0248024651864,
,,,,67,0,67,0,,,,,,,,,,,,,,,,,,,,,,1124.1339348992333,None,,,,,,,,,,,,,,,,,message,11,68,aloud,old,yellow,1121.4574316991493,None,1121.4574316991493,None,4,1.5586681002750993,1121.4574316991493,None,1.5586681002750993,1123.0377989998087,None,1123.5494088996202,None,1123.5494088996202,None,r,0.5625983001664281,1123.5494088996202,None,0.5625983001664281,,,80 Aloud,001,2022_Nov_15_1604,ProdSingRedoBetween,2021.2.3,60.0248024651864,
,,,,68,0,68,0,,,,,,,,,,,,,,,,,,,,,,1130.3574976995587,None,,,,,,,,,,,,,,,,,length,53,69,aloud,old,blue,1124.6416159998626,None,1124.6416159998626,None,6,4.974442000500858,1124.6416159998626,None,4.974442000500858,1129.6407022997737,None,1130.156031099148,None,1130.156031099148,None,r,0.17992119956761599,1130.156031099148,None,0.17992119956761599,,,80 Aloud,001,2022_Nov_15_1604,ProdSingRedoBetween,2021.2.3,60.0248024651864,
,,,,69,0,69,0,,,,,,,,,,,,,,,,,,,,,,1134.3770257998258,None,,,,,,,,,,,,,,,,,breath,18,70,aloud,old,yellow,1130.856818699278,None,1130.856818699278,None,2,1.8232821999117732,1130.856818699278,None,1.8232821999117732,1132.711169699207,None,1133.2257429994643,None,1133.2257429994643,None,r,1.1265999991446733,1133.2257429994643,None,1.1265999991446733,,,80 Aloud,001,2022_Nov_15_1604,ProdSingRedoBetween,2021.2.3,60.0248024651864,
,,,,70,0,70,0,,,,,,,,,,,,,,,,,,,,,,1142.2515390999615,None,,,,,,,,,,,,,,,,,worker,118,71,aloud,new,null,1134.8882100991905,None,1134.8882100991905,None,2,6.5998895997181535,1134.8882100991905,None,6.5998895997181535,1141.5272127995268,None,1142.0347549999133,None,1142.0347549999133,None,r,0.19733599945902824,1142.0347549999133,None,0.19733599945902824,,,80 Aloud,001,2022_Nov_15_1604,ProdSingRedoBetween,2021.2.3,60.0248024651864,
,,,,71,0,71,0,,,,,,,,,,,,,,,,,,,,,,1145.5556471999735,None,,,,,,,,,,,,,,,,,threat,144,72,aloud,new,null,1142.7571597993374,None,1142.7571597993374,None,5,1.9629659000784159,1142.7571597993374,None,1.9629659000784159,1144.7401988999918,None,1145.2558106994256,None,1145.2558106994256,None,r,0.2802792005240917,1145.2558106994256,None,0.2802792005240917,,,80 Aloud,001,2022_Nov_15_1604,ProdSingRedoBetween,2021.2.3,60.0248024651864,
,,,,72,0,72,0,,,,,,,,,,,,,,,,,,,,,,1148.791411199607,None,,,,,,,,,,,,,,,,,council,45,73,aloud,old,blue,1146.0565588995814,None,1146.0565588995814,None,6,1.767430399544537,1146.0565588995814,None,1.767430399544537,1147.8413708992302,None,1148.3411097992212,None,1148.3411097992212,None,r,0.4348879000172019,1148.3411097992212,None,0.4348879000172019,,,80 Aloud,001,2022_Nov_15_1604,ProdSingRedoBetween,2021.2.3,60.0248024651864,
,,,,73,0,73,0,,,,,,,,,,,,,,,,,,,,,,1151.6106223994866,None,,,,,,,,,,,,,,,,,fellow,62,74,aloud,old,red,1149.302261499688,None,1149.302261499688,None,6,1.3617545999586582,1149.302261499688,None,1.3617545999586582,1150.6963567994535,None,1151.2105312999338,None,1151.2105312999338,None,r,0.37346099968999624,1151.2105312999338,None,0.37346099968999624,,,80 Aloud,001,2022_Nov_15_1604,ProdSingRedoBetween,2021.2.3,60.0248024651864,
,,,,74,0,74,0,,,,,,,,,,,,,,,,,,,,,,1159.4520505992696,None,,,,,,,,,,,,,,,,,group,86,75,aloud,old,red,1152.122986599803,None,1152.122986599803,None,6,6.116971499286592,1152.122986599803,None,6.116971499286592,1158.2704241992906,None,1158.7848045993596,None,1158.7848045993596,None,r,0.6391833005473018,1158.7848045993596,None,0.6391833005473018,,,80 Aloud,001,2022_Nov_15_1604,ProdSingRedoBetween,2021.2.3,60.0248024651864,
,,,,75,0,75,0,,,,,,,,,,,,,,,,,,,,,,1162.5550820995122,None,,,,,,,,,,,,,,,,,thick,126,76,aloud,new,null,1159.9611579999328,None,1159.9611579999328,None,6,1.9509839992970228,1159.9611579999328,None,1.9509839992970228,1161.9400375997648,None,1162.4607732994482,None,1162.4607732994482,None,r,0.06718940008431673,1162.4607732994482,None,0.06718940008431673,,,80 Aloud,001,2022_Nov_15_1604,ProdSingRedoBetween,2021.2.3,60.0248024651864,
,,,,76,0,76,0,,,,,,,,,,,,,,,,,,,,,,1167.459917399101,None,,,,,,,,,,,,,,,,,marriage,92,77,aloud,new,null,1163.0632921997458,None,1163.0632921997458,None,2,2.4649509992450476,1163.0632921997458,None,2.4649509992450476,1165.5651691993698,None,1166.0754398992285,None,1166.0754398992285,None,r,1.3645534003153443,1166.0754398992285,None,1.3645534003153443,,,80 Aloud,001,2022_Nov_15_1604,ProdSingRedoBetween,2021.2.3,60.0248024651864,
,,,,77,0,77,0,,,,,,,,,,,,,,,,,,,,,,1172.948564399965,None,,,,,,,,,,,,,,,,,tennis,128,78,aloud,new,null,1167.9697431996465,None,1167.9697431996465,None,2,2.502229600213468,1167.9697431996465,None,2.502229600213468,1170.4981713993475,None,1171.0140591999516,None,1171.0140591999516,None,r,1.9058156004175544,1171.0140591999516,None,1.9058156004175544,,,80 Aloud,001,2022_Nov_15_1604,ProdSingRedoBetween,2021.2.3,60.0248024651864,
,,,,78,0,78,0,,,,,,,,,,,,,,,,,,,,,,1177.9221655996516,None,,,,,,,,,,,,,,,,,pressure,26,79,aloud,old,yellow,1173.4603504994884,None,1173.4603504994884,None,5,3.755566000007093,1173.4603504994884,None,3.755566000007093,1177.2382223997265,None,1177.7537546996027,None,1177.7537546996027,None,r,0.1421162998303771,1177.7537546996027,None,0.1421162998303771,,,80 Aloud,001,2022_Nov_15_1604,ProdSingRedoBetween,2021.2.3,60.0248024651864,
,,,,79,0,79,0,,,,,,,,,,,,,,,,,,,,,,1181.040252899751,None,,,,,,,,,,,,,,,,,provision,38,80,aloud,old,blue,1178.4377174992114,None,1178.4377174992114,None,6,1.898267200216651,1178.4377174992114,None,1.898267200216651,1180.3585881991312,None,1180.8765506995842,None,1180.8765506995842,None,r,0.13940689992159605,1180.8765506995842,None,0.13940689992159605,,,80 Aloud,001,2022_Nov_15_1604,ProdSingRedoBetween,2021.2.3,60.0248024651864,
,,,,80,0,80,0,,,,,,,,,,,,,,,,,,,,,,1184.0598601996899,None,,,,,,,,,,,,,,,,,birth,115,81,aloud,new,null,1181.55037889909,None,1181.55037889909,None,1,1.625713599845767,1181.55037889909,None,1.625713599845767,1183.1940060993657,None,1183.7097520995885,None,1183.7097520995885,None,r,0.330447799526155,1183.7097520995885,None,0.330447799526155,,,80 Aloud,001,2022_Nov_15_1604,ProdSingRedoBetween,2021.2.3,60.0248024651864,
,,,,81,0,81,0,,,,,,,,,,,,,,,,,,,,,,1188.0803069993854,None,,,,,,,,,,,,,,,,,shape,16,82,aloud,old,yellow,1184.5682278992608,None,1184.5682278992608,None,6,2.6397222001105547,1184.5682278992608,None,2.6397222001105547,1187.2300555994734,None,1187.7371560996398,None,1187.7371560996398,None,r,0.32687290012836456,1187.7371560996398,None,0.32687290012836456,,,80 Aloud,001,2022_Nov_15_1604,ProdSingRedoBetween,2021.2.3,60.0248024651864,
,,,,82,0,82,0,,,,,,,,,,,,,,,,,,,,,,1195.1555238999426,None,,,,,,,,,,,,,,,,,discussion,65,83,aloud,old,red,1188.584597199224,None,1188.584597199224,None,3,5.775307700037956,1188.584597199224,None,5.775307700037956,1194.3905243994668,None,1194.9130788994953,None,1194.9130788994953,None,r,0.21493840031325817,1194.9130788994953,None,0.21493840031325817,,,80 Aloud,001,2022_Nov_15_1604,ProdSingRedoBetween,2021.2.3,60.0248024651864,
,,,,83,0,83,0,,,,,,,,,,,,,,,,,,,,,,1198.3242073999718,None,,,,,,,,,,,,,,,,,edition,94,84,aloud,new,null,1195.6708901999518,None,1195.6708901999518,None,2,1.7610505996271968,1195.6708901999518,None,1.7610505996271968,1197.4591731997207,None,1197.9739216994494,None,1197.9739216994494,None,r,0.3301635002717376,1197.9739216994494,None,0.3301635002717376,,,80 Aloud,001,2022_Nov_15_1604,ProdSingRedoBetween,2021.2.3,60.0248024651864,
,,,,84,0,84,0,,,,,,,,,,,,,,,,,,,,,,1203.2459518993273,None,,,,,,,,,,,,,,,,,principal,78,85,aloud,old,red,1198.8296430995688,None,1198.8296430995688,None,6,3.7783270003274083,1198.8296430995688,None,3.7783270003274083,1202.630026399158,None,1203.1290580993518,None,1203.1290580993518,None,r,0.08686350006610155,1203.1290580993518,None,0.08686350006610155,,,80 Aloud,001,2022_Nov_15_1604,ProdSingRedoBetween,2021.2.3,60.0248024651864,
,,,,85,0,85,0,,,,,,,,,,,,,,,,,,,,,,1206.1001987997442,None,,,,,,,,,,,,,,,,,degree,153,86,aloud,new,null,1203.7472484996542,None,1203.7472484996542,None,6,1.5086823999881744,1203.7472484996542,None,1.5086823999881744,1205.2837713994086,None,1205.7982716998085,None,1205.7982716998085,None,r,0.27367919962853193,1205.7982716998085,None,0.27367919962853193,,,80 Aloud,001,2022_Nov_15_1604,ProdSingRedoBetween,2021.2.3,60.0248024651864,
,,,,86,0,86,0,,,,,,,,,,,,,,,,,,,,,,1209.26811609976,None,,,,,,,,,,,,,,,,,department,91,87,aloud,new,null,1206.6176474997774,None,1206.6176474997774,None,2,1.7102316999807954,1206.6176474997774,None,1.7102316999807954,1208.3520443998277,None,1208.8595089996234,None,1208.8595089996234,None,r,0.3804772002622485,1208.8595089996234,None,0.3804772002622485,,,80 Aloud,001,2022_Nov_15_1604,ProdSingRedoBetween,2021.2.3,60.0248024651864,
,,,,87,0,87,0,,,,,,,,,,,,,,,,,,,,,,1217.8101865993813,None,,,,,,,,,,,,,,,,,motion,93,88,aloud,new,null,1209.7708037998527,None,1209.7708037998527,None,2,7.197113799862564,1209.7708037998527,None,7.197113799862564,1216.9939019000158,None,1217.493284999393,None,1217.493284999393,None,r,0.29079930018633604,1217.493284999393,None,0.29079930018633604,,,80 Aloud,001,2022_Nov_15_1604,ProdSingRedoBetween,2021.2.3,60.0248024651864,
,,,,88,0,88,0,,,,,,,,,,,,,,,,,,,,,,1221.6146125998348,None,,,,,,,,,,,,,,,,,under,175,89,aloud,new,null,1218.310824599117,None,1218.310824599117,None,3,2.592973600141704,1218.310824599117,None,2.592973600141704,1220.9319423995912,None,1221.4472476998344,None,1221.4472476998344,None,r,0.14469360001385212,1221.4472476998344,None,0.14469360001385212,,,80 Aloud,001,2022_Nov_15_1604,ProdSingRedoBetween,2021.2.3,60.0248024651864,
,,,,89,0,89,0,,,,,,,,,,,,,,,,,,,,,,1224.3331976998597,None,,,,,,,,,,,,,,,,,answer,33,90,aloud,old,blue,1222.1241526994854,None,1222.1241526994854,None,3,1.4756706999614835,1222.1241526994854,None,1.4756706999614835,1223.6189642995596,None,1224.1332677993923,None,1224.1332677993923,None,r,0.17863959912210703,1224.1332677993923,None,0.17863959912210703,,,80 Aloud,001,2022_Nov_15_1604,ProdSingRedoBetween,2021.2.3,60.0248024651864,
,,,,90,0,90,0,,,,,,,,,,,,,,,,,,,,,,1227.002671899274,None,,,,,,,,,,,,,,,,,strain,157,91,aloud,new,null,1224.8372230995446,None,1224.8372230995446,None,3,1.4347331998869777,1224.8372230995446,None,1.4347331998869777,1226.3070646999404,None,1226.8193911993876,None,1226.8193911993876,None,r,0.16452949959784746,1226.8193911993876,None,0.16452949959784746,,,80 Aloud,001,2022_Nov_15_1604,ProdSingRedoBetween,2021.2.3,60.0248024651864,
,,,,91,0,91,0,,,,,,,,,,,,,,,,,,,,,,1230.0057345991954,None,,,,,,,,,,,,,,,,,novel,106,92,aloud,new,null,1227.5131357992068,None,1227.5131357992068,None,3,1.7347459997981787,1227.5131357992068,None,1.7347459997981787,1229.2731296997517,None,1229.7722129998729,None,1229.7722129998729,None,r,0.20368419960141182,1229.7722129998729,None,0.20368419960141182,,,80 Aloud,001,2022_Nov_15_1604,ProdSingRedoBetween,2021.2.3,60.0248024651864,
,,,,92,0,92,0,,,,,,,,,,,,,,,,,,,,,,1235.0611699,None,,,,,,,,,,,,,,,,,reading,161,93,aloud,new,null,1230.5125859994441,None,1230.5125859994441,None,5,2.5831882003694773,1230.5125859994441,None,2.5831882003694773,1233.1289438996464,None,1233.6429447997361,None,1233.6429447997361,None,r,1.3971726996824145,1233.6429447997361,None,1.3971726996824145,,,80 Aloud,001,2022_Nov_15_1604,ProdSingRedoBetween,2021.2.3,60.0248024651864,
,,,,93,0,93,0,,,,,,,,,,,,,,,,,,,,,,1240.9016831992194,None,,,,,,,,,,,,,,,,,figure,102,94,aloud,new,null,1235.5670878998935,None,1235.5670878998935,None,4,4.720752799883485,1235.5670878998935,None,4.720752799883485,1240.317446699366,None,1240.821094499901,None,1240.821094499901,None,r,0.058821000158786774,1240.821094499901,None,0.058821000158786774,,,80 Aloud,001,2022_Nov_15_1604,ProdSingRedoBetween,2021.2.3,60.0248024651864,
,,,,94,0,94,0,,,,,,,,,,,,,,,,,,,,,,1244.0696349991485,None,,,,,,,,,,,,,,,,,religion,117,95,aloud,new,null,1241.417312799953,None,1241.417312799953,None,2,2.0706120999529958,1241.417312799953,None,2.0706120999529958,1243.5223561991006,None,1244.036520799622,None,1244.036520799622,None,r,0.01137979980558157,1244.036520799622,None,0.01137979980558157,,,80 Aloud,001,2022_Nov_15_1604,ProdSingRedoBetween,2021.2.3,60.0248024651864,
,,,,95,0,95,0,,,,,,,,,,,,,,,,,,,,,,1247.2405977994204,None,,,,,,,,,,,,,,,,,frank,42,96,aloud,old,blue,1244.5712713999674,None,1244.5712713999674,None,2,2.012601099908352,1244.5712713999674,None,2.012601099908352,1246.6106399996206,None,1247.1229711994529,None,1247.1229711994529,None,r,0.1009459001943469,1247.1229711994529,None,0.1009459001943469,,,80 Aloud,001,2022_Nov_15_1604,ProdSingRedoBetween,2021.2.3,60.0248024651864,
,,,,96,0,96,0,,,,,,,,,,,,,,,,,,,,,,1251.1431674994528,None,,,,,,,,,,,,,,,,,dispute,8,97,aloud,old,yellow,1247.743398799561,None,1247.743398799561,None,6,2.5283807003870606,1247.743398799561,None,2.5283807003870606,1250.2925242995843,None,1250.793138999492,None,1250.793138999492,None,r,0.3266457002609968,1250.793138999492,None,0.3266457002609968,,,80 Aloud,001,2022_Nov_15_1604,ProdSingRedoBetween,2021.2.3,60.0248024651864,
,,,,97,0,97,0,,,,,,,,,,,,,,,,,,,,,,1256.0162421995774,None,,,,,,,,,,,,,,,,,agency,10,98,aloud,old,yellow,1251.650592399761,None,1251.650592399761,None,6,3.6372801000252366,1251.650592399761,None,3.6372801000252366,1255.3160771997645,None,1255.8347291992977,None,1255.8347291992977,None,r,0.1571364002302289,1255.8347291992977,None,0.1571364002302289,,,80 Aloud,001,2022_Nov_15_1604,ProdSingRedoBetween,2021.2.3,60.0248024651864,
,,,,98,0,98,0,,,,,,,,,,,,,,,,,,,,,,1258.6175432996824,None,,,,,,,,,,,,,,,,,error,89,99,aloud,old,red,1256.5157247995958,None,1256.5157247995958,None,6,1.2762737004086375,1256.5157247995958,None,1.2762737004086375,1257.8189850999042,None,1258.3339007999748,None,1258.3339007999748,None,r,0.2659823000431061,1258.3339007999748,None,0.2659823000431061,,,80 Aloud,001,2022_Nov_15_1604,ProdSingRedoBetween,2021.2.3,60.0248024651864,
,,,,99,0,99,0,,,,,,,,,,,,,,,,,,,,,,1262.4214023994282,None,,,,,,,,,,,,,,,,,store,48,100,aloud,old,blue,1259.12789949961,None,1259.12789949961,None,5,2.6318096993491054,1259.12789949961,None,2.6318096993491054,1261.7910927999765,None,1262.3142049992457,None,1262.3142049992457,None,r,0.0857631005346775,1262.3142049992457,None,0.0857631005346775,,,80 Aloud,001,2022_Nov_15_1604,ProdSingRedoBetween,2021.2.3,60.0248024651864,
,,,,100,0,100,0,,,,,,,,,,,,,,,,,,,,,,1266.2100929999724,None,,,,,,,,,,,,,,,,,style,13,101,aloud,old,yellow,1262.928987099789,None,1262.928987099789,None,2,2.446848100051284,1262.928987099789,None,2.446848100051284,1265.3925625998527,None,1265.8985087992623,None,1265.8985087992623,None,r,0.28538820054382086,1265.8985087992623,None,0.28538820054382086,,,80 Aloud,001,2022_Nov_15_1604,ProdSingRedoBetween,2021.2.3,60.0248024651864,
,,,,101,0,101,0,,,,,,,,,,,,,,,,,,,,,,1275.9347183993086,None,,,,,,,,,,,,,,,,,whole,58,102,aloud,old,blue,1266.7122899992391,None,1266.7122899992391,None,2,8.479458000510931,1266.7122899992391,None,8.479458000510931,1275.2242639996111,None,1275.7347391992807,None,1275.7347391992807,None,r,0.1689547998830676,1275.7347391992807,None,0.1689547998830676,,,80 Aloud,001,2022_Nov_15_1604,ProdSingRedoBetween,2021.2.3,60.0248024651864,
,,,,102,0,102,0,,,,,,,,,,,,,,,,,,,,,,1280.9228672999889,None,,,,,,,,,,,,,,,,,article,171,103,aloud,new,null,1276.4440379999578,None,1276.4440379999578,None,5,2.7557653998956084,1276.4440379999578,None,2.7557653998956084,1279.2212161999196,None,1279.7251815991476,None,1279.7251815991476,None,r,1.1784972995519638,1279.7251815991476,None,1.1784972995519638,,,80 Aloud,001,2022_Nov_15_1604,ProdSingRedoBetween,2021.2.3,60.0248024651864,
,,,,103,0,103,0,,,,,,,,,,,,,,,,,,,,,,1285.9116847999394,None,,,,,,,,,,,,,,,,,collection,121,104,aloud,new,null,1281.4345677997917,None,1281.4345677997917,None,6,2.8611749997362494,1281.4345677997917,None,2.8611749997362494,1284.3279585000128,None,1284.8272467991337,None,1284.8272467991337,None,r,1.0685574999079108,1284.8272467991337,None,1.0685574999079108,,,80 Aloud,001,2022_Nov_15_1604,ProdSingRedoBetween,2021.2.3,60.0248024651864,
,,,,104,0,104,0,,,,,,,,,,,,,,,,,,,,,,1291.3668722994626,None,,,,,,,,,,,,,,,,,number,168,105,aloud,new,null,1286.4150380995125,None,1286.4150380995125,None,2,4.088697699829936,1286.4150380995125,None,4.088697699829936,1290.5336914993823,None,1291.0333528993651,None,1291.0333528993651,None,r,0.3184943003579974,1291.0333528993651,None,0.3184943003579974,,,80 Aloud,001,2022_Nov_15_1604,ProdSingRedoBetween,2021.2.3,60.0248024651864,
,,,,105,0,105,0,,,,,,,,,,,,,,,,,,,,,,1295.6210740990937,None,,,,,,,,,,,,,,,,,finish,101,106,aloud,new,null,1291.8759845998138,None,1291.8759845998138,None,6,3.0517130000516772,1291.8759845998138,None,3.0517130000516772,1294.9553693998605,None,1295.471104199998,None,1295.471104199998,None,r,0.12868310045450926,1295.471104199998,None,0.12868310045450926,,,80 Aloud,001,2022_Nov_15_1604,ProdSingRedoBetween,2021.2.3,60.0248024651864,
,,,,106,0,106,0,,,,,,,,,,,,,,,,,,,,,,1299.441955799237,None,,,,,,,,,,,,,,,,,mayor,155,107,aloud,new,null,1296.1281221993268,None,1296.1281221993268,None,6,2.567660399712622,1296.1281221993268,None,2.567660399712622,1298.7251400994137,None,1299.2248234990984,None,1299.2248234990984,None,r,0.19886070024222136,1299.2248234990984,None,0.19886070024222136,,,80 Aloud,001,2022_Nov_15_1604,ProdSingRedoBetween,2021.2.3,60.0248024651864,
,,,,107,0,107,0,,,,,,,,,,,,,,,,,,,,,,1303.3454797994345,None,,,,,,,,,,,,,,,,,drama,127,108,aloud,new,null,1299.942076499574,None,1299.942076499574,None,4,2.041581899859011,1299.942076499574,None,2.041581899859011,1302.014227299951,None,1302.5282454993576,None,1302.5282454993576,None,r,0.7915217000991106,1302.5282454993576,None,0.7915217000991106,,,80 Aloud,001,2022_Nov_15_1604,ProdSingRedoBetween,2021.2.3,60.0248024651864,
,,,,108,0,108,0,,,,,,,,,,,,,,,,,,,,,,1310.502412399277,None,,,,,,,,,,,,,,,,,country,74,109,aloud,old,red,1303.846149499528,None,1303.846149499528,None,6,5.161665600724518,1303.846149499528,None,5.161665600724518,1309.0415106993169,None,1309.552170499228,None,1309.552170499228,None,r,0.9194686003029346,1309.552170499228,None,0.9194686003029346,,,80 Aloud,001,2022_Nov_15_1604,ProdSingRedoBetween,2021.2.3,60.0248024651864,
,,,,109,0,109,0,,,,,,,,,,,,,,,,,,,,,,1324.2161707999185,None,,,,,,,,,,,,,,,,,income,84,110,aloud,old,red,1311.0056193992496,None,1311.0056193992496,None,3,11.94624340068549,1311.0056193992496,None,11.94624340068549,1322.9825682993978,None,1323.4824136998504,None,1323.4824136998504,None,r,0.7092342004179955,1323.4824136998504,None,0.7092342004179955,,,80 Aloud,001,2022_Nov_15_1604,ProdSingRedoBetween,2021.2.3,60.0248024651864,
,,,,110,0,110,0,,,,,,,,,,,,,,,,,,,,,,1326.7688629999757,None,,,,,,,,,,,,,,,,,election,52,111,aloud,old,blue,1324.7183147994801,None,1324.7183147994801,None,6,1.3453881004825234,1324.7183147994801,None,1.3453881004825234,1326.0866749994457,None,1326.6119367992505,None,1326.6119367992505,None,r,0.13974120002239943,1326.6119367992505,None,0.13974120002239943,,,80 Aloud,001,2022_Nov_15_1604,ProdSingRedoBetween,2021.2.3,60.0248024651864,
,,,,111,0,111,0,,,,,,,,,,,,,,,,,,,,,,1330.522651899606,None,,,,,,,,,,,,,,,,,broke,22,112,aloud,old,yellow,1327.2718795994297,None,1327.2718795994297,None,6,2.6479128003120422,1327.2718795994297,None,2.6479128003120422,1329.939587299712,None,1330.4426353992894,None,1330.4426353992894,None,r,0.05302200000733137,1330.4426353992894,None,0.05302200000733137,,,80 Aloud,001,2022_Nov_15_1604,ProdSingRedoBetween,2021.2.3,60.0248024651864,
,,,,112,0,112,0,,,,,,,,,,,,,,,,,,,,,,1334.0094268992543,None,,,,,,,,,,,,,,,,,drove,125,113,aloud,new,null,1331.0308210998774,None,1331.0308210998774,None,1,2.0328909000381827,1331.0308210998774,None,2.0328909000381827,1333.0948629993945,None,1333.6091990992427,None,1333.6091990992427,None,r,0.3825602000579238,1333.6091990992427,None,0.3825602000579238,,,80 Aloud,001,2022_Nov_15_1604,ProdSingRedoBetween,2021.2.3,60.0248024651864,
,,,,113,0,113,0,,,,,,,,,,,,,,,,,,,,,,1337.713053299114,None,,,,,,,,,,,,,,,,,symbol,3,114,aloud,old,yellow,1334.5113954991102,None,1334.5113954991102,None,5,2.4883120004087687,1334.5113954991102,None,2.4883120004087687,1337.0320045994595,None,1337.5464025996625,None,1337.5464025996625,None,r,0.14128969982266426,1337.5464025996625,None,0.14128969982266426,,,80 Aloud,001,2022_Nov_15_1604,ProdSingRedoBetween,2021.2.3,60.0248024651864,
,,,,114,0,114,0,,,,,,,,,,,,,,,,,,,,,,1340.6003067996353,None,,,,,,,,,,,,,,,,,dream,29,115,aloud,old,blue,1338.2151254992932,None,1338.2151254992932,None,5,1.7765586003661156,1338.2151254992932,None,1.7765586003661156,1340.0173003999516,None,1340.5325558995828,None,1340.5325558995828,None,r,0.05105169955641031,1340.5325558995828,None,0.05105169955641031,,,80 Aloud,001,2022_Nov_15_1604,ProdSingRedoBetween,2021.2.3,60.0248024651864,
,,,,115,0,115,0,,,,,,,,,,,,,,,,,,,,,,1343.3518685000017,None,,,,,,,,,,,,,,,,,nation,20,116,aloud,old,yellow,1341.1025598999113,None,1341.1025598999113,None,5,1.4091600999236107,1341.1025598999113,None,1.4091600999236107,1342.5356695000082,None,1343.0352062992752,None,1343.0352062992752,None,r,0.30045870039612055,1343.0352062992752,None,0.30045870039612055,,,80 Aloud,001,2022_Nov_15_1604,ProdSingRedoBetween,2021.2.3,60.0248024651864,
,,,,116,0,116,0,,,,,,,,,,,,,,,,,,,,,,1346.5569282993674,None,,,,,,,,,,,,,,,,,husband,139,117,aloud,new,null,1343.8603752991185,None,1343.8603752991185,None,4,2.083351000212133,1343.8603752991185,None,2.083351000212133,1345.976183699444,None,1346.4887215998024,None,1346.4887215998024,None,r,0.039001899771392345,1346.4887215998024,None,0.039001899771392345,,,80 Aloud,001,2022_Nov_15_1604,ProdSingRedoBetween,2021.2.3,60.0248024651864,
,,,,117,0,117,0,,,,,,,,,,,,,,,,,,,,,,1349.341401499696,None,,,,,,,,,,,,,,,,,grade,174,118,aloud,new,null,1347.0648362999782,None,1347.0648362999782,None,6,1.5267417998984456,1347.0648362999782,None,1.5267417998984456,1348.6071343999356,None,1349.1127545991912,None,1349.1127545991912,None,r,0.20684920065104961,1349.1127545991912,None,0.20684920065104961,,,80 Aloud,001,2022_Nov_15_1604,ProdSingRedoBetween,2021.2.3,60.0248024651864,
,,,,118,0,118,0,,,,,,,,,,,,,,,,,,,,,,1355.2806121995673,None,,,,,,,,,,,,,,,,,platform,57,119,aloud,old,blue,1349.847486499697,None,1349.847486499697,None,3,4.72818720061332,1349.847486499697,None,4.72818720061332,1354.5984747000039,None,1355.118474099785,None,1355.118474099785,None,r,0.13724879920482635,1355.118474099785,None,0.13724879920482635,,,80 Aloud,001,2022_Nov_15_1604,ProdSingRedoBetween,2021.2.3,60.0248024651864,
,,,,119,0,119,0,,,,,,,,,,,,,,,,,,,,,,1359.6015748996288,None,,,,,,,,,,,,,,,,,industry,32,120,aloud,old,blue,1355.7899267999455,None,1355.7899267999455,None,6,3.217698300257325,1355.7899267999455,None,3.217698300257325,1359.0374159999192,None,1359.5516913998872,None,1359.5516913998872,None,r,0.023992599919438362,1359.5516913998872,None,0.023992599919438362,,,80 Aloud,001,2022_Nov_15_1604,ProdSingRedoBetween,2021.2.3,60.0248024651864,
,,,,120,0,120,0,,,,,,,,,,,,,,,,,,,,,,1366.9089872995391,None,,,,,,,,,,,,,,,,,signal,2,121,aloud,old,yellow,1360.1103128995746,None,1360.1103128995746,None,4,5.257346199825406,1360.1103128995746,None,5.257346199825406,1365.3924509994686,None,1365.9080812996253,None,1365.9080812996253,None,r,0.971624999307096,1365.9080812996253,None,0.971624999307096,,,80 Aloud,001,2022_Nov_15_1604,ProdSingRedoBetween,2021.2.3,60.0248024651864,
,,,,121,0,121,0,,,,,,,,,,,,,,,,,,,,,,1373.451320799999,None,,,,,,,,,,,,,,,,,graduate,0,122,aloud,old,yellow,1367.4094819994643,None,1367.4094819994643,None,2,5.47812999971211,1367.4094819994643,None,5.47812999971211,1372.9157573999837,None,1373.4193861996755,None,1373.4193861996755,None,r,0.0045155007392168045,1373.4193861996755,None,0.0045155007392168045,,,80 Aloud,001,2022_Nov_15_1604,ProdSingRedoBetween,2021.2.3,60.0248024651864,
,,,,122,0,122,0,,,,,,,,,,,,,,,,,,,,,,1379.2044832995161,None,,,,,,,,,,,,,,,,,short,138,123,aloud,new,null,1373.9708753991872,None,1373.9708753991872,None,4,4.532685600221157,1373.9708753991872,None,4.532685600221157,1378.5229579992592,None,1379.0378276994452,None,1379.0378276994452,None,r,0.13782420009374619,1379.0378276994452,None,0.13782420009374619,,,80 Aloud,001,2022_Nov_15_1604,ProdSingRedoBetween,2021.2.3,60.0248024651864,
,,,,123,0,123,0,,,,,,,,,,,,,,,,,,,,,,1382.3740468993783,None,,,,,,,,,,,,,,,,,drink,148,124,aloud,new,null,1379.707535999827,None,1379.707535999827,None,2,1.7001750003546476,1379.707535999827,None,1.7001750003546476,1381.4252891996875,None,1381.9420740995556,None,1381.9420740995556,None,r,0.4175571007654071,1381.9420740995556,None,0.4175571007654071,,,80 Aloud,001,2022_Nov_15_1604,ProdSingRedoBetween,2021.2.3,60.0248024651864,
,,,,124,0,124,0,,,,,,,,,,,,,,,,,,,,,,1387.1971657993272,None,,,,,,,,,,,,,,,,,account,151,125,aloud,new,null,1382.8748747995123,None,1382.8748747995123,None,5,2.7087052995339036,1382.8748747995123,None,2.7087052995339036,1385.6110530998558,None,1386.1160339992493,None,1386.1160339992493,None,r,1.0598004003986716,1386.1160339992493,None,1.0598004003986716,,,80 Aloud,001,2022_Nov_15_1604,ProdSingRedoBetween,2021.2.3,60.0248024651864,
,,,,125,0,125,0,,,,,,,,,,,,,,,,,,,,,,1390.6843165997416,None,,,,,,,,,,,,,,,,,charter,47,126,aloud,old,blue,1387.7017448991537,None,1387.7017448991537,None,6,1.481811499223113,1387.7017448991537,None,1.481811499223113,1389.2144791996107,None,1389.7149359993637,None,1389.7149359993637,None,r,0.9487276002764702,1389.7149359993637,None,0.9487276002764702,,,80 Aloud,001,2022_Nov_15_1604,ProdSingRedoBetween,2021.2.3,60.0248024651864,
,,,,126,0,126,0,,,,,,,,,,,,,,,,,,,,,,1393.034945299849,None,,,,,,,,,,,,,,,,,author,51,127,aloud,old,blue,1391.19979629945,None,1391.19979629945,None,6,1.160033400170505,1391.19979629945,None,1.160033400170505,1392.3919339999557,None,1392.9015309996903,None,1392.9015309996903,None,r,0.10614969953894615,1392.9015309996903,None,0.10614969953894615,,,80 Aloud,001,2022_Nov_15_1604,ProdSingRedoBetween,2021.2.3,60.0248024651864,
,,,,127,0,127,0,,,,,,,,,,,,,,,,,,,,,,1397.8397257998586,None,,,,,,,,,,,,,,,,,volume,79,128,aloud,old,red,1393.5354033997282,None,1393.5354033997282,None,4,2.648187399841845,1393.5354033997282,None,2.648187399841845,1396.2062383992597,None,1396.705521499738,None,1396.705521499738,None,r,1.1101123997941613,1396.705521499738,None,1.1101123997941613,,,80 Aloud,001,2022_Nov_15_1604,ProdSingRedoBetween,2021.2.3,60.0248024651864,
,,,,128,0,128,0,,,,,,,,,,,,,,,,,,,,,,1401.0280369995162,None,,,,,,,,,,,,,,,,,bicycle,4,129,aloud,old,yellow,1398.3475134996697,None,1398.3475134996697,None,6,2.0039799008518457,1398.3475134996697,None,2.0039799008518457,1400.384221999906,None,1400.8926748000085,None,1400.8926748000085,None,r,0.10679570026695728,1400.8926748000085,None,0.10679570026695728,,,80 Aloud,001,2022_Nov_15_1604,ProdSingRedoBetween,2021.2.3,60.0248024651864,
,,,,129,0,129,0,,,,,,,,,,,,,,,,,,,,,,1408.3669288000092,None,,,,,,,,,,,,,,,,,nature,176,130,aloud,new,null,1401.5518277995288,None,1401.5518277995288,None,4,5.927897999994457,1401.5518277995288,None,5.927897999994457,1407.5006684996188,None,1408.0078453999013,None,1408.0078453999013,None,r,0.32776910066604614,1408.0078453999013,None,0.32776910066604614,,,80 Aloud,001,2022_Nov_15_1604,ProdSingRedoBetween,2021.2.3,60.0248024651864,
,,,,130,0,130,0,,,,,,,,,,,,,,,,,,,,,,1412.7212678994983,None,,,,,,,,,,,,,,,,,shear,24,131,aloud,old,yellow,1408.8770780991763,None,1408.8770780991763,None,5,3.050645399838686,1408.8770780991763,None,3.050645399838686,1411.9552576998249,None,1412.4589318996295,None,1412.4589318996295,None,r,0.24455599952489138,1412.4589318996295,None,0.24455599952489138,,,80 Aloud,001,2022_Nov_15_1604,ProdSingRedoBetween,2021.2.3,60.0248024651864,
,,,,131,0,131,0,,,,,,,,,,,,,,,,,,,,,,1416.3248685998842,None,,,,,,,,,,,,,,,,,foundation,100,132,aloud,new,null,1413.2349018994719,None,1413.2349018994719,None,2,2.332759700715542,1413.2349018994719,None,2.332759700715542,1415.5941133992746,None,1416.110717699863,None,1416.110717699863,None,r,0.18479380011558533,1416.110717699863,None,0.18479380011558533,,,80 Aloud,001,2022_Nov_15_1604,ProdSingRedoBetween,2021.2.3,60.0248024651864,
,,,,132,0,132,0,,,,,,,,,,,,,,,,,,,,,,1424.3328952994198,None,,,,,,,,,,,,,,,,,distance,166,133,aloud,new,null,1416.8284636000171,None,1416.8284636000171,None,5,6.787044799886644,1416.8284636000171,None,6.787044799886644,1423.6378681994975,None,1424.1494802990928,None,1424.1494802990928,None,r,0.16208229959011078,1424.1494802990928,None,0.16208229959011078,,,80 Aloud,001,2022_Nov_15_1604,ProdSingRedoBetween,2021.2.3,60.0248024651864,
,,,,133,0,133,0,,,,,,,,,,,,,,,,,,,,,,1428.8373783994466,None,,,,,,,,,,,,,,,,,household,87,134,aloud,old,red,1424.8341880999506,None,1424.8341880999506,None,2,3.2933751000091434,1424.8341880999506,None,3.2933751000091434,1428.1562861995772,None,1428.6758853998035,None,1428.6758853998035,None,r,0.13163499999791384,1428.6758853998035,None,0.13163499999791384,,,80 Aloud,001,2022_Nov_15_1604,ProdSingRedoBetween,2021.2.3,60.0248024651864,
,,,,134,0,134,0,,,,,,,,,,,,,,,,,,,,,,1431.8088794993237,None,,,,,,,,,,,,,,,,,production,7,135,aloud,old,yellow,1429.343797499314,None,1429.343797499314,None,6,1.6236661998555064,1429.343797499314,None,1.6236661998555064,1430.994128299877,None,1431.5067743994296,None,1431.5067743994296,None,r,0.2768195001408458,1431.5067743994296,None,0.2768195001408458,,,80 Aloud,001,2022_Nov_15_1604,ProdSingRedoBetween,2021.2.3,60.0248024651864,
,,,,135,0,135,0,,,,,,,,,,,,,,,,,,,,,,1435.4445244995877,None,,,,,,,,,,,,,,,,,opening,19,136,aloud,old,yellow,1432.3256640993059,None,1432.3256640993059,None,2,2.193948599509895,1432.3256640993059,None,2.193948599509895,1434.5434053996578,None,1435.04755499959,None,1435.04755499959,None,r,0.36804729979485273,1435.04755499959,None,0.36804729979485273,,,80 Aloud,001,2022_Nov_15_1604,ProdSingRedoBetween,2021.2.3,60.0248024651864,
,,,,136,0,136,0,,,,,,,,,,,,,,,,,,,,,,1439.4145289994776,None,,,,,,,,,,,,,,,,,budget,142,137,aloud,new,null,1435.9490814991295,None,1435.9490814991295,None,2,2.698361299932003,1435.9490814991295,None,2.698361299932003,1438.665102799423,None,1439.1750845992938,None,1439.1750845992938,None,r,0.22444240003824234,1439.1750845992938,None,0.22444240003824234,,,80 Aloud,001,2022_Nov_15_1604,ProdSingRedoBetween,2021.2.3,60.0248024651864,
,,,,137,0,137,0,,,,,,,,,,,,,,,,,,,,,,1446.2568628992885,None,,,,,,,,,,,,,,,,,salary,5,138,aloud,old,yellow,1439.918000499718,None,1439.918000499718,None,6,5.553478999994695,1439.918000499718,None,5.553478999994695,1445.4915514998138,None,1446.010504999198,None,1446.010504999198,None,r,0.22105740010738373,1446.010504999198,None,0.22105740010738373,,,80 Aloud,001,2022_Nov_15_1604,ProdSingRedoBetween,2021.2.3,60.0248024651864,
,,,,138,0,138,0,,,,,,,,,,,,,,,,,,,,,,1450.4756320994347,None,,,,,,,,,,,,,,,,,trash,170,139,aloud,new,null,1446.78154299967,None,1446.78154299967,None,2,2.705934699624777,1446.78154299967,None,2.705934699624777,1449.5103078996763,None,1450.0332250995561,None,1450.0332250995561,None,r,0.4142719004303217,1450.0332250995561,None,0.4142719004303217,,,80 Aloud,001,2022_Nov_15_1604,ProdSingRedoBetween,2021.2.3,60.0248024651864,
,,,,139,0,139,0,,,,,,,,,,,,,,,,,,,,,,1453.6118191992864,None,,,,,,,,,,,,,,,,,course,80,140,aloud,old,red,1450.983890099451,None,1450.983890099451,None,5,1.7995786992833018,1450.983890099451,None,1.7995786992833018,1452.813996099867,None,1453.3321710992604,None,1453.3321710992604,None,r,0.25935580022633076,1453.3321710992604,None,0.25935580022633076,,,80 Aloud,001,2022_Nov_15_1604,ProdSingRedoBetween,2021.2.3,60.0248024651864,
,,,,140,0,140,0,,,,,,,,,,,,,,,,,,,,,,1456.2979360995814,None,,,,,,,,,,,,,,,,,permit,154,141,aloud,new,null,1454.1191390994936,None,1454.1191390994936,None,6,1.4083711998537183,1454.1191390994936,None,1.4083711998537183,1455.5490149995312,None,1456.0646634995937,None,1456.0646634995937,None,r,0.21483749989420176,1456.0646634995937,None,0.21483749989420176,,,80 Aloud,001,2022_Nov_15_1604,ProdSingRedoBetween,2021.2.3,60.0248024651864,
,,,,141,0,141,0,,,,,,,,,,,,,,,,,,,,,,1460.685902099125,None,,,,,,,,,,,,,,,,,smell,167,142,aloud,new,null,1456.7986230999231,None,1456.7986230999231,None,3,2.1609352994710207,1456.7986230999231,None,2.1609352994710207,1458.9889652999118,None,1459.501421299763,None,1459.501421299763,None,r,1.1620091991499066,1459.501421299763,None,1.1620091991499066,,,80 Aloud,001,2022_Nov_15_1604,ProdSingRedoBetween,2021.2.3,60.0248024651864,
,,,,142,0,142,0,,,,,,,,,,,,,,,,,,,,,,1464.1057924991474,None,,,,,,,,,,,,,,,,,childhood,95,143,aloud,new,null,1461.186351899989,None,1461.186351899989,None,6,2.1891062995418906,1461.186351899989,None,2.1891062995418906,1463.4060820993036,None,1463.9133240999654,None,1463.9133240999654,None,r,0.1741665005683899,1463.9133240999654,None,0.1741665005683899,,,80 Aloud,001,2022_Nov_15_1604,ProdSingRedoBetween,2021.2.3,60.0248024651864,
,,,,143,0,143,0,,,,,,,,,,,,,,,,,,,,,,1467.4590984992683,None,,,,,,,,,,,,,,,,,produce,43,144,aloud,old,blue,1464.6132201999426,None,1464.6132201999426,None,6,2.0902579007670283,1464.6132201999426,None,2.0902579007670283,1466.726482999511,None,1467.225748299621,None,1467.225748299621,None,r,0.21372750028967857,1467.225748299621,None,0.21372750028967857,,,80 Aloud,001,2022_Nov_15_1604,ProdSingRedoBetween,2021.2.3,60.0248024651864,
,,,,144,0,144,0,,,,,,,,,,,,,,,,,,,,,,1471.746743099764,None,,,,,,,,,,,,,,,,,mankind,124,145,aloud,new,null,1467.9705263990909,None,1467.9705263990909,None,2,2.9568731002509594,1467.9705263990909,None,2.9568731002509594,1470.9478796999902,None,1471.46326249931,None,1471.46326249931,None,r,0.26422350015491247,1471.46326249931,None,0.26422350015491247,,,80 Aloud,001,2022_Nov_15_1604,ProdSingRedoBetween,2021.2.3,60.0248024651864,
,,,,145,0,145,0,,,,,,,,,,,,,,,,,,,,,,1475.7199578993022,None,,,,,,,,,,,,,,,,,leader,136,146,aloud,new,null,1472.2493695998564,None,1472.2493695998564,None,1,2.7582010999321938,1472.2493695998564,None,2.7582010999321938,1475.0400631995872,None,1475.552776299417,None,1475.552776299417,None,r,0.14294210076332092,1475.552776299417,None,0.14294210076332092,,,80 Aloud,001,2022_Nov_15_1604,ProdSingRedoBetween,2021.2.3,60.0248024651864,
,,,,146,0,146,0,,,,,,,,,,,,,,,,,,,,,,1484.0590106993914,None,,,,,,,,,,,,,,,,,employment,77,147,aloud,old,red,1476.2362996991724,None,1476.2362996991724,None,3,7.251135300844908,1476.2362996991724,None,7.251135300844908,1483.5101511999965,None,1484.0258024996147,None,1484.0258024996147,None,r,0.0057311998680233955,1484.0258024996147,None,0.0057311998680233955,,,80 Aloud,001,2022_Nov_15_1604,ProdSingRedoBetween,2021.2.3,60.0248024651864,
,,,,147,0,147,0,,,,,,,,,,,,,,,,,,,,,,1488.2798401992768,None,,,,,,,,,,,,,,,,,defeat,104,148,aloud,new,null,1484.5702194999903,None,1484.5702194999903,None,3,2.2291350001469254,1484.5702194999903,None,2.2291350001469254,1486.8409543000162,None,1487.3455098997802,None,1487.3455098997802,None,r,0.9099509995430708,1487.3455098997802,None,0.9099509995430708,,,80 Aloud,001,2022_Nov_15_1604,ProdSingRedoBetween,2021.2.3,60.0248024651864,
,,,,148,0,148,0,,,,,,,,,,,,,,,,,,,,,,1499.2909085992724,None,,,,,,,,,,,,,,,,,conference,49,149,aloud,old,blue,1488.7813000995666,None,1488.7813000995666,None,5,9.31410240009427,1488.7813000995666,None,9.31410240009427,1498.1245624991134,None,1498.6277823997661,None,1498.6277823997661,None,r,0.6436489000916481,1498.6277823997661,None,0.6436489000916481,,,80 Aloud,001,2022_Nov_15_1604,ProdSingRedoBetween,2021.2.3,60.0248024651864,
,,,,149,0,149,0,,,,,,,,,,,,,,,,,,,,,,1508.933838199824,None,,,,,,,,,,,,,,,,,reach,6,150,aloud,old,yellow,1499.800606799312,None,1499.800606799312,None,5,7.518791199661791,1499.800606799312,None,7.518791199661791,1507.3489091992378,None,1507.849558099173,None,1507.849558099173,None,r,1.0618496993556619,1507.849558099173,None,1.0618496993556619,,,80 Aloud,001,2022_Nov_15_1604,ProdSingRedoBetween,2021.2.3,60.0248024651864,
,,,,150,0,150,0,,,,,,,,,,,,,,,,,,,,,,1512.3370695998892,None,,,,,,,,,,,,,,,,,property,64,151,aloud,old,red,1509.442504399456,None,1509.442504399456,None,6,2.148907699622214,1509.442504399456,None,2.148907699622214,1511.62140519917,None,1512.1282384991646,None,1512.1282384991646,None,r,0.1832129005342722,1512.1282384991646,None,0.1832129005342722,,,80 Aloud,001,2022_Nov_15_1604,ProdSingRedoBetween,2021.2.3,60.0248024651864,
,,,,151,0,151,0,,,,,,,,,,,,,,,,,,,,,,1515.4904165994376,None,,,,,,,,,,,,,,,,,alert,97,152,aloud,new,null,1512.8380620991811,None,1512.8380620991811,None,5,1.889385899528861,1512.8380620991811,None,1.889385899528861,1514.757362499833,None,1515.2599285999313,None,1515.2599285999313,None,r,0.21155859995633364,1515.2599285999313,None,0.21155859995633364,,,80 Aloud,001,2022_Nov_15_1604,ProdSingRedoBetween,2021.2.3,60.0248024651864,
,,,,152,0,152,0,,,,,,,,,,,,,,,,,,,,,,1520.9959287997335,None,,,,,,,,,,,,,,,,,owner,158,153,aloud,new,null,1516.001138399355,None,1516.001138399355,None,2,4.166169000789523,1516.001138399355,None,4.166169000789523,1520.200341399759,None,1520.7121116993949,None,1520.7121116993949,None,r,0.2551700994372368,1520.7121116993949,None,0.2551700994372368,,,80 Aloud,001,2022_Nov_15_1604,ProdSingRedoBetween,2021.2.3,60.0248024651864,
,,,,153,0,153,0,,,,,,,,,,,,,,,,,,,,,,1533.942205999978,None,,,,,,,,,,,,,,,,,throw,50,154,aloud,old,blue,1521.501718999818,None,1521.501718999818,None,6,11.089664599858224,1521.501718999818,None,11.089664599858224,1532.6108488999307,None,1533.1277498994023,None,1533.1277498994023,None,r,0.7836071997880936,1533.1277498994023,None,0.7836071997880936,,,80 Aloud,001,2022_Nov_15_1604,ProdSingRedoBetween,2021.2.3,60.0248024651864,
,,,,154,0,154,0,,,,,,,,,,,,,,,,,,,,,,1537.3304987996817,None,,,,,,,,,,,,,,,,,passage,108,155,aloud,new,null,1534.4426587997004,None,1534.4426587997004,None,3,1.828707099892199,1534.4426587997004,None,1.828707099892199,1536.29643929936,None,1536.811821599491,None,1536.811821599491,None,r,0.4915682002902031,1536.811821599491,None,0.4915682002902031,,,80 Aloud,001,2022_Nov_15_1604,ProdSingRedoBetween,2021.2.3,60.0248024651864,
,,,,155,0,155,0,,,,,,,,,,,,,,,,,,,,,,1542.6508549991995,None,,,,,,,,,,,,,,,,,general,116,156,aloud,new,null,1537.845676199533,None,1537.845676199533,None,6,3.8256633998826146,1537.845676199533,None,3.8256633998826146,1541.6995826996863,None,1542.20212719962,None,1542.20212719962,None,r,0.42922519985586405,1542.20212719962,None,0.42922519985586405,,,80 Aloud,001,2022_Nov_15_1604,ProdSingRedoBetween,2021.2.3,60.0248024651864,
,,,,156,0,156,0,,,,,,,,,,,,,,,,,,,,,,1545.6871995991096,None,,,,,,,,,,,,,,,,,research,160,157,aloud,new,null,1543.169750799425,None,1543.169750799425,None,6,1.557651599869132,1543.169750799425,None,1.557651599869132,1544.7607121998444,None,1545.273992699571,None,1545.273992699571,None,r,0.3973561003804207,1545.273992699571,None,0.3973561003804207,,,80 Aloud,001,2022_Nov_15_1604,ProdSingRedoBetween,2021.2.3,60.0248024651864,
,,,,157,0,157,0,,,,,,,,,,,,,,,,,,,,,,1550.0916566997766,None,,,,,,,,,,,,,,,,,school,134,158,aloud,new,null,1546.1939487997442,None,1546.1939487997442,None,2,3.0773374000564218,1546.1939487997442,None,3.0773374000564218,1549.291725399904,None,1549.7914145998657,None,1549.7914145998657,None,r,0.2719267997890711,1549.7914145998657,None,0.2719267997890711,,,80 Aloud,001,2022_Nov_15_1604,ProdSingRedoBetween,2021.2.3,60.0248024651864,
,,,,158,0,158,0,,,,,,,,,,,,,,,,,,,,,,1557.0230081994087,None,,,,,,,,,,,,,,,,,incident,150,159,aloud,new,null,1550.5946859996766,None,1550.5946859996766,None,3,5.692818499170244,1550.5946859996766,None,5.692818499170244,1556.3146561998874,None,1556.82028519921,None,1556.82028519921,None,r,0.17946370039135218,1556.82028519921,None,0.17946370039135218,,,80 Aloud,001,2022_Nov_15_1604,ProdSingRedoBetween,2021.2.3,60.0248024651864,
,,,,159,0,159,0,,,,,,,,,,,,,,,,,,,,,,1561.5863830996677,None,,,,,,,,,,,,,,,,,brief,113,160,aloud,new,null,1557.5350025994703,None,1557.5350025994703,None,2,3.280318300239742,1557.5350025994703,None,3.280318300239742,1560.8378130998462,None,1561.357276099734,None,1561.357276099734,None,r,0.202020900323987,1561.357276099734,None,0.202020900323987,,,80 Aloud,001,2022_Nov_15_1604,ProdSingRedoBetween,2021.2.3,60.0248024651864,
,,,,160,0,160,0,,,,,,,,,,,,,,,,,,,,,,1568.7267984999344,None,,,,,,,,,,,,,,,,,goose,132,161,aloud,new,null,1562.0875349994749,None,1562.0875349994749,None,2,5.919823399744928,1562.0875349994749,None,5.919823399744928,1568.0282224994153,None,1568.5474154995754,None,1568.5474154995754,None,r,0.14806140027940273,1568.5474154995754,None,0.14806140027940273,,,80 Aloud,001,2022_Nov_15_1604,ProdSingRedoBetween,2021.2.3,60.0248024651864,
,,,,161,0,161,0,,,,,,,,,,,,,,,,,,,,,,1577.4355233991519,None,,,,,,,,,,,,,,,,,sweet,37,162,aloud,old,blue,1569.2273488994688,None,1569.2273488994688,None,6,7.491891500540078,1569.2273488994688,None,7.491891500540078,1576.7354332990944,None,1577.2394368993118,None,1577.2394368993118,None,r,0.17590729985386133,1577.2394368993118,None,0.17590729985386133,,,80 Aloud,001,2022_Nov_15_1604,ProdSingRedoBetween,2021.2.3,60.0248024651864,
,,,,162,0,162,0,,,,,,,,,,,,,,,,,,,,,,1582.224614799954,None,,,,,,,,,,,,,,,,,portion,25,163,aloud,old,yellow,1577.9403856992722,None,1577.9403856992722,None,3,3.490912100300193,1577.9403856992722,None,3.490912100300193,1581.4568783994764,None,1581.960025999695,None,1581.960025999695,None,r,0.23934559989720583,1581.960025999695,None,0.23934559989720583,,,80 Aloud,001,2022_Nov_15_1604,ProdSingRedoBetween,2021.2.3,60.0248024651864,
,,,,163,0,163,0,,,,,,,,,,,,,,,,,,,,,,1589.2498209998012,None,,,,,,,,,,,,,,,,,tough,35,164,aloud,old,blue,1582.72676199954,None,1582.72676199954,None,5,5.912539400160313,1582.72676199954,None,5.912539400160313,1588.665630299598,None,1589.1823850991204,None,1589.1823850991204,None,r,0.049423299729824066,1589.1823850991204,None,0.049423299729824066,,,80 Aloud,001,2022_Nov_15_1604,ProdSingRedoBetween,2021.2.3,60.0248024651864,
,,,,164,0,164,0,,,,,,,,,,,,,,,,,,,,,,1592.3504080995917,None,,,,,,,,,,,,,,,,,piece,110,165,aloud,new,null,1589.7661124998704,None,1589.7661124998704,None,2,1.665237800218165,1589.7661124998704,None,1.665237800218165,1591.4607520997524,None,1591.9674705993384,None,1591.9674705993384,None,r,0.3519119005650282,1591.9674705993384,None,0.3519119005650282,,,80 Aloud,001,2022_Nov_15_1604,ProdSingRedoBetween,2021.2.3,60.0248024651864,
,,,,165,0,165,0,,,,,,,,,,,,,,,,,,,,,,1601.1759953992441,None,,,,,,,,,,,,,,,,,growth,63,166,aloud,old,red,1592.8555041998625,None,1592.8555041998625,None,6,7.167683799751103,1592.8555041998625,None,7.167683799751103,1600.0432045999914,None,1600.5587094994262,None,1600.5587094994262,None,r,0.5924232006072998,1600.5587094994262,None,0.5924232006072998,,,80 Aloud,001,2022_Nov_15_1604,ProdSingRedoBetween,2021.2.3,60.0248024651864,
,,,,166,0,166,0,,,,,,,,,,,,,,,,,,,,,,1604.5126567995176,None,,,,,,,,,,,,,,,,,listen,122,167,aloud,new,null,1601.6771805994213,None,1601.6771805994213,None,2,1.8100544000044465,1601.6771805994213,None,1.8100544000044465,1603.5144835999236,None,1604.0288116997108,None,1604.0288116997108,None,r,0.4665995007380843,1604.0288116997108,None,0.4665995007380843,,,80 Aloud,001,2022_Nov_15_1604,ProdSingRedoBetween,2021.2.3,60.0248024651864,
,,,,167,0,167,0,,,,,,,,,,,,,,,,,,,,,,1615.757021899335,None,,,,,,,,,,,,,,,,,accident,152,168,aloud,new,null,1605.0195841994137,None,1605.0195841994137,None,4,9.34749859943986,1605.0195841994137,None,9.34749859943986,1614.389151699841,None,1614.8958136998117,None,1614.8958136998117,None,r,0.8313891999423504,1614.8958136998117,None,0.8313891999423504,,,80 Aloud,001,2022_Nov_15_1604,ProdSingRedoBetween,2021.2.3,60.0248024651864,
,,,,168,0,168,0,,,,,,,,,,,,,,,,,,,,,,1620.6619119998068,None,,,,,,,,,,,,,,,,,prime,40,169,aloud,old,blue,1616.2761656995863,None,1616.2761656995863,None,6,3.579100400209427,1616.2761656995863,None,3.579100400209427,1619.880133099854,None,1620.3954926999286,None,1620.3954926999286,None,r,0.23569030035287142,1620.3954926999286,None,0.23569030035287142,,,80 Aloud,001,2022_Nov_15_1604,ProdSingRedoBetween,2021.2.3,60.0248024651864,
,,,,169,0,169,0,,,,,,,,,,,,,,,,,,,,,,1624.7159926993772,None,,,,,,,,,,,,,,,,,partner,105,170,aloud,new,null,1621.1650402992964,None,1621.1650402992964,None,2,2.6501152999699116,1621.1650402992964,None,2.6501152999699116,1623.8332108994946,None,1624.3367650993168,None,1624.3367650993168,None,r,0.35843720007687807,1624.3367650993168,None,0.35843720007687807,,,80 Aloud,001,2022_Nov_15_1604,ProdSingRedoBetween,2021.2.3,60.0248024651864,
,,,,170,0,170,0,,,,,,,,,,,,,,,,,,,,,,1629.0035995999351,None,,,,,,,,,,,,,,,,,balance,81,171,aloud,old,red,1625.21702049952,None,1625.21702049952,None,4,3.1181279998272657,1625.21702049952,None,3.1181279998272657,1628.3530110996217,None,1628.8594479998574,None,1628.8594479998574,None,r,0.123734500259161,1628.8594479998574,None,0.123734500259161,,,80 Aloud,001,2022_Nov_15_1604,ProdSingRedoBetween,2021.2.3,60.0248024651864,
,,,,171,0,171,0,,,,,,,,,,,,,,,,,,,,,,1632.9909112993628,None,,,,,,,,,,,,,,,,,poetry,120,172,aloud,new,null,1629.5151602998376,None,1629.5151602998376,None,2,2.036010899581015,1629.5151602998376,None,2.036010899581015,1631.57400689926,None,1632.0732269994915,None,1632.0732269994915,None,r,0.8939581997692585,1632.0732269994915,None,0.8939581997692585,,,80 Aloud,001,2022_Nov_15_1604,ProdSingRedoBetween,2021.2.3,60.0248024651864,
,,,,172,0,172,0,,,,,,,,,,,,,,,,,,,,,,1636.6610445994884,None,,,,,,,,,,,,,,,,,present,66,173,aloud,old,red,1633.5059250993654,None,1633.5059250993654,None,6,1.5814148001372814,1633.5059250993654,None,1.5814148001372814,1635.1100169997662,None,1635.6103021996096,None,1635.6103021996096,None,r,1.0208119004964828,1635.6103021996096,None,1.0208119004964828,,,80 Aloud,001,2022_Nov_15_1604,ProdSingRedoBetween,2021.2.3,60.0248024651864,
,,,,173,0,173,0,,,,,,,,,,,,,,,,,,,,,,1643.2010255996138,None,,,,,,,,,,,,,,,,,hunger,140,174,aloud,new,null,1637.1693188995123,None,1637.1693188995123,None,2,4.6298535000532866,1637.1693188995123,None,4.6298535000532866,1641.8162205992267,None,1642.3212602995336,None,1642.3212602995336,None,r,0.8538012998178601,1642.3212602995336,None,0.8538012998178601,,,80 Aloud,001,2022_Nov_15_1604,ProdSingRedoBetween,2021.2.3,60.0248024651864,
,,,,174,0,174,0,,,,,,,,,,,,,,,,,,,,,,1648.1058144997805,None,,,,,,,,,,,,,,,,,trail,76,175,aloud,old,red,1643.7014821991324,None,1643.7014821991324,None,2,2.4096588995307684,1643.7014821991324,None,2.4096588995307684,1646.1399991996586,None,1646.6546072997153,None,1646.6546072997153,None,r,1.4325842997059226,1646.6546072997153,None,1.4325842997059226,,,80 Aloud,001,2022_Nov_15_1604,ProdSingRedoBetween,2021.2.3,60.0248024651864,
,,,,175,0,175,0,,,,,,,,,,,,,,,,,,,,,,1652.793931399472,None,,,,,,,,,,,,,,,,,mechanical,172,176,aloud,new,null,1648.6142021995038,None,1648.6142021995038,None,6,3.240833199582994,1648.6142021995038,None,3.240833199582994,1651.8807989992201,None,1652.3935773996636,None,1652.3935773996636,None,r,0.3735333001241088,1652.3935773996636,None,0.3735333001241088,,,80 Aloud,001,2022_Nov_15_1604,ProdSingRedoBetween,2021.2.3,60.0248024651864,
