StudyLoop.thisRepN,StudyLoop.thisTrialN,StudyLoop.thisN,StudyLoop.thisIndex,TestLoop.thisRepN,TestLoop.thisTrialN,TestLoop.thisN,TestLoop.thisIndex,textCondition.started,textCondition.stopped,keyCondition.keys,keyCondition.rt,keyCondition.started,keyCondition.stopped,Condition,textWelcome.started,textWelcome.stopped,keyWelcome.keys,keyWelcome.rt,keyWelcome.started,keyWelcome.stopped,textAloud.started,textAloud.stopped,textSilent.started,textSilent.stopped,textSing.started,textSing.stopped,conditional_text.started,conditional_text.stopped,textBlank500.started,textBlank500.stopped,study_word,study_num,study_order,study_type,word_color,textStudy.started,textStudy.stopped,keyStudy.keys,keyStudy.started,keyStudy.stopped,textTestInstructions.started,textTestInstructions.stopped,key_resp_3.keys,key_resp_3.rt,key_resp_3.started,key_resp_3.stopped,test_word,test_num,test_order,test_condition,old_new_test,test_word_original_color,textConf.started,textConf.stopped,textConfScale.started,textConfScale.stopped,keyConf.keys,keyConf.rt,keyConf.started,keyConf.stopped,confidence response time,textTestBlank.started,textTestBlank.stopped,textRKN.started,textRKN.stopped,textRKNScale.started,textRKNScale.stopped,keyRKN.keys,keyRKN.rt,keyRKN.started,keyRKN.stopped,rkn response time,textEnd.started,textEnd.stopped,participant,session,date,expName,psychopyVersion,frameRate,
,,,,,,,,30.929307400248945,None,c,2.069959199987352,30.929307400248945,None,,,,,,,,,,,,,,,,,,,,,,,,,,,,,,,,,,,,,,,,,,,,,,,,,,,,,,,,,,,,,,81 Sing,001,2022_Nov_15_1633,ProdSingRedoBetween,2021.2.3,59.93744933188563,
,,,,,,,,,,,,,,SingTest,33.02997609972954,None,space,488.17667699977756,33.02997609972954,None,,,,,,,,,,,,,,,,,,,,,,,,,,,,,,,,,,,,,,,,,,,,,,,,,,,,,,,81 Sing,001,2022_Nov_15_1633,ProdSingRedoBetween,2021.2.3,59.93744933188563,
0,0,0,0,,,,,,,,,,,,,,,,,,33.02997609972954,None,33.02997609972954,None,33.02997609972954,None,33.02997609972954,None,523.7544322004542,None,literature,34,1,sing,blue,521.7433527996764,None,None,521.7433527996764,None,,,,,,,,,,,,,,,,,,,,,,,,,,,,,,,,,,,81 Sing,001,2022_Nov_15_1633,ProdSingRedoBetween,2021.2.3,59.93744933188563,
1,0,1,0,,,,,,,,,,,,,,,,,,,,,,,,,,526.2735790004954,None,orchestra,20,2,sing,yellow,524.2609107000753,None,None,524.2609107000753,None,,,,,,,,,,,,,,,,,,,,,,,,,,,,,,,,,,,81 Sing,001,2022_Nov_15_1633,ProdSingRedoBetween,2021.2.3,59.93744933188563,
2,0,2,0,,,,,,,,,,,,,,,,,,,,,,,,,,528.7927911002189,None,disease,53,3,sing,blue,526.7817179998383,None,None,526.7817179998383,None,,,,,,,,,,,,,,,,,,,,,,,,,,,,,,,,,,,81 Sing,001,2022_Nov_15_1633,ProdSingRedoBetween,2021.2.3,59.93744933188563,
3,0,3,0,,,,,,,,,,,,,,,,,,,,,,,,,,531.2953877998516,None,permit,66,4,sing,red,529.2932291999459,None,None,529.2932291999459,None,,,,,,,,,,,,,,,,,,,,,,,,,,,,,,,,,,,81 Sing,001,2022_Nov_15_1633,ProdSingRedoBetween,2021.2.3,59.93744933188563,
4,0,4,0,,,,,,,,,,,,,,,,,,,,,,,,,,533.7977195996791,None,group,81,5,sing,red,531.7954970002174,None,None,531.7954970002174,None,,,,,,,,,,,,,,,,,,,,,,,,,,,,,,,,,,,81 Sing,001,2022_Nov_15_1633,ProdSingRedoBetween,2021.2.3,59.93744933188563,
5,0,5,0,,,,,,,,,,,,,,,,,,,,,,,,,,536.3002840997651,None,birth,21,6,sing,yellow,534.3005509003997,None,None,534.3005509003997,None,,,,,,,,,,,,,,,,,,,,,,,,,,,,,,,,,,,81 Sing,001,2022_Nov_15_1633,ProdSingRedoBetween,2021.2.3,59.93744933188563,
6,0,6,0,,,,,,,,,,,,,,,,,,,,,,,,,,538.8193854996935,None,signal,9,7,sing,yellow,536.8072734000161,None,None,536.8072734000161,None,,,,,,,,,,,,,,,,,,,,,,,,,,,,,,,,,,,81 Sing,001,2022_Nov_15_1633,ProdSingRedoBetween,2021.2.3,59.93744933188563,
7,0,7,0,,,,,,,,,,,,,,,,,,,,,,,,,,541.3384325001389,None,commercial,28,8,sing,yellow,539.3236745996401,None,None,539.3236745996401,None,,,,,,,,,,,,,,,,,,,,,,,,,,,,,,,,,,,81 Sing,001,2022_Nov_15_1633,ProdSingRedoBetween,2021.2.3,59.93744933188563,
8,0,8,0,,,,,,,,,,,,,,,,,,,,,,,,,,543.8410809002817,None,surprise,24,9,sing,yellow,541.8388708997518,None,None,541.8388708997518,None,,,,,,,,,,,,,,,,,,,,,,,,,,,,,,,,,,,81 Sing,001,2022_Nov_15_1633,ProdSingRedoBetween,2021.2.3,59.93744933188563,
9,0,9,0,,,,,,,,,,,,,,,,,,,,,,,,,,546.3434477997944,None,bureau,52,10,sing,blue,544.3416475998238,None,None,544.3416475998238,None,,,,,,,,,,,,,,,,,,,,,,,,,,,,,,,,,,,81 Sing,001,2022_Nov_15_1633,ProdSingRedoBetween,2021.2.3,59.93744933188563,
10,0,10,0,,,,,,,,,,,,,,,,,,,,,,,,,,548.8628337997943,None,junior,60,11,sing,red,546.8485746001825,None,None,546.8485746001825,None,,,,,,,,,,,,,,,,,,,,,,,,,,,,,,,,,,,81 Sing,001,2022_Nov_15_1633,ProdSingRedoBetween,2021.2.3,59.93744933188563,
11,0,11,0,,,,,,,,,,,,,,,,,,,,,,,,,,551.3651959002018,None,length,13,12,sing,yellow,549.363120900467,None,None,549.363120900467,None,,,,,,,,,,,,,,,,,,,,,,,,,,,,,,,,,,,81 Sing,001,2022_Nov_15_1633,ProdSingRedoBetween,2021.2.3,59.93744933188563,
12,0,12,0,,,,,,,,,,,,,,,,,,,,,,,,,,553.8844146002084,None,private,77,13,sing,red,551.8689601998776,None,None,551.8689601998776,None,,,,,,,,,,,,,,,,,,,,,,,,,,,,,,,,,,,81 Sing,001,2022_Nov_15_1633,ProdSingRedoBetween,2021.2.3,59.93744933188563,
13,0,13,0,,,,,,,,,,,,,,,,,,,,,,,,,,556.3868829002604,None,object,74,14,sing,red,554.3849692000076,None,None,554.3849692000076,None,,,,,,,,,,,,,,,,,,,,,,,,,,,,,,,,,,,81 Sing,001,2022_Nov_15_1633,ProdSingRedoBetween,2021.2.3,59.93744933188563,
14,0,14,0,,,,,,,,,,,,,,,,,,,,,,,,,,558.8893640004098,None,collection,26,15,sing,yellow,556.887474199757,None,None,556.887474199757,None,,,,,,,,,,,,,,,,,,,,,,,,,,,,,,,,,,,81 Sing,001,2022_Nov_15_1633,ProdSingRedoBetween,2021.2.3,59.93744933188563,
15,0,15,0,,,,,,,,,,,,,,,,,,,,,,,,,,561.4086408000439,None,rural,6,16,sing,yellow,559.3949948996305,None,None,559.3949948996305,None,,,,,,,,,,,,,,,,,,,,,,,,,,,,,,,,,,,81 Sing,001,2022_Nov_15_1633,ProdSingRedoBetween,2021.2.3,59.93744933188563,
16,0,16,0,,,,,,,,,,,,,,,,,,,,,,,,,,563.911118700169,None,waste,58,17,sing,blue,561.9111155001447,None,None,561.9111155001447,None,,,,,,,,,,,,,,,,,,,,,,,,,,,,,,,,,,,81 Sing,001,2022_Nov_15_1633,ProdSingRedoBetween,2021.2.3,59.93744933188563,
17,0,17,0,,,,,,,,,,,,,,,,,,,,,,,,,,566.4136319002137,None,present,22,18,sing,yellow,564.411958700046,None,None,564.411958700046,None,,,,,,,,,,,,,,,,,,,,,,,,,,,,,,,,,,,81 Sing,001,2022_Nov_15_1633,ProdSingRedoBetween,2021.2.3,59.93744933188563,
18,0,18,0,,,,,,,,,,,,,,,,,,,,,,,,,,568.9160983003676,None,speech,27,19,sing,yellow,566.9141648001969,None,None,566.9141648001969,None,,,,,,,,,,,,,,,,,,,,,,,,,,,,,,,,,,,81 Sing,001,2022_Nov_15_1633,ProdSingRedoBetween,2021.2.3,59.93744933188563,
19,0,19,0,,,,,,,,,,,,,,,,,,,,,,,,,,571.4349333001301,None,universal,18,20,sing,yellow,569.4207437997684,None,None,569.4207437997684,None,,,,,,,,,,,,,,,,,,,,,,,,,,,,,,,,,,,81 Sing,001,2022_Nov_15_1633,ProdSingRedoBetween,2021.2.3,59.93744933188563,
20,0,20,0,,,,,,,,,,,,,,,,,,,,,,,,,,573.9376801000908,None,instrument,59,21,sing,yellow,571.9354790998623,None,None,571.9354790998623,None,,,,,,,,,,,,,,,,,,,,,,,,,,,,,,,,,,,81 Sing,001,2022_Nov_15_1633,ProdSingRedoBetween,2021.2.3,59.93744933188563,
21,0,21,0,,,,,,,,,,,,,,,,,,,,,,,,,,576.4567200997844,None,clear,64,22,sing,red,574.4465741002932,None,None,574.4465741002932,None,,,,,,,,,,,,,,,,,,,,,,,,,,,,,,,,,,,81 Sing,001,2022_Nov_15_1633,ProdSingRedoBetween,2021.2.3,59.93744933188563,
22,0,22,0,,,,,,,,,,,,,,,,,,,,,,,,,,578.9759970000014,None,addition,46,23,sing,blue,576.9674377003685,None,None,576.9674377003685,None,,,,,,,,,,,,,,,,,,,,,,,,,,,,,,,,,,,81 Sing,001,2022_Nov_15_1633,ProdSingRedoBetween,2021.2.3,59.93744933188563,
23,0,23,0,,,,,,,,,,,,,,,,,,,,,,,,,,581.4951186999679,None,appeal,30,24,sing,blue,579.4796909000725,None,None,579.4796909000725,None,,,,,,,,,,,,,,,,,,,,,,,,,,,,,,,,,,,81 Sing,001,2022_Nov_15_1633,ProdSingRedoBetween,2021.2.3,59.93744933188563,
24,0,24,0,,,,,,,,,,,,,,,,,,,,,,,,,,584.0144688002765,None,watch,50,25,sing,blue,581.9992567999288,None,None,581.9992567999288,None,,,,,,,,,,,,,,,,,,,,,,,,,,,,,,,,,,,81 Sing,001,2022_Nov_15_1633,ProdSingRedoBetween,2021.2.3,59.93744933188563,
25,0,25,0,,,,,,,,,,,,,,,,,,,,,,,,,,586.5167816998437,None,distance,36,26,sing,blue,584.5150089003146,None,None,584.5150089003146,None,,,,,,,,,,,,,,,,,,,,,,,,,,,,,,,,,,,81 Sing,001,2022_Nov_15_1633,ProdSingRedoBetween,2021.2.3,59.93744933188563,
26,0,26,0,,,,,,,,,,,,,,,,,,,,,,,,,,589.0194060001522,None,republic,57,27,sing,blue,587.0182589003816,None,None,587.0182589003816,None,,,,,,,,,,,,,,,,,,,,,,,,,,,,,,,,,,,81 Sing,001,2022_Nov_15_1633,ProdSingRedoBetween,2021.2.3,59.93744933188563,
27,0,27,0,,,,,,,,,,,,,,,,,,,,,,,,,,591.5384028004482,None,short,72,28,sing,red,589.52721690014,None,None,589.52721690014,None,,,,,,,,,,,,,,,,,,,,,,,,,,,,,,,,,,,81 Sing,001,2022_Nov_15_1633,ProdSingRedoBetween,2021.2.3,59.93744933188563,
28,0,28,0,,,,,,,,,,,,,,,,,,,,,,,,,,594.0578099004924,None,thing,7,29,sing,yellow,592.044467500411,None,None,592.044467500411,None,,,,,,,,,,,,,,,,,,,,,,,,,,,,,,,,,,,81 Sing,001,2022_Nov_15_1633,ProdSingRedoBetween,2021.2.3,59.93744933188563,
29,0,29,0,,,,,,,,,,,,,,,,,,,,,,,,,,596.5767165003344,None,majority,79,30,sing,red,594.5618601003662,None,None,594.5618601003662,None,,,,,,,,,,,,,,,,,,,,,,,,,,,,,,,,,,,81 Sing,001,2022_Nov_15_1633,ProdSingRedoBetween,2021.2.3,59.93744933188563,
30,0,30,0,,,,,,,,,,,,,,,,,,,,,,,,,,599.0791801996529,None,prime,75,31,sing,red,597.0773013001308,None,None,597.0773013001308,None,,,,,,,,,,,,,,,,,,,,,,,,,,,,,,,,,,,81 Sing,001,2022_Nov_15_1633,ProdSingRedoBetween,2021.2.3,59.93744933188563,
31,0,31,0,,,,,,,,,,,,,,,,,,,,,,,,,,601.5818918999285,None,foundation,45,32,sing,blue,599.5809634998441,None,None,599.5809634998441,None,,,,,,,,,,,,,,,,,,,,,,,,,,,,,,,,,,,81 Sing,001,2022_Nov_15_1633,ProdSingRedoBetween,2021.2.3,59.93744933188563,
32,0,32,0,,,,,,,,,,,,,,,,,,,,,,,,,,604.0845392001793,None,nation,47,33,sing,blue,602.0823715003207,None,None,602.0823715003207,None,,,,,,,,,,,,,,,,,,,,,,,,,,,,,,,,,,,81 Sing,001,2022_Nov_15_1633,ProdSingRedoBetween,2021.2.3,59.93744933188563,
33,0,33,0,,,,,,,,,,,,,,,,,,,,,,,,,,606.6037250999361,None,history,11,34,sing,yellow,604.5896715000272,None,None,604.5896715000272,None,,,,,,,,,,,,,,,,,,,,,,,,,,,,,,,,,,,81 Sing,001,2022_Nov_15_1633,ProdSingRedoBetween,2021.2.3,59.93744933188563,
34,0,34,0,,,,,,,,,,,,,,,,,,,,,,,,,,609.106193699874,None,estate,38,35,sing,blue,607.1042060004547,None,None,607.1042060004547,None,,,,,,,,,,,,,,,,,,,,,,,,,,,,,,,,,,,81 Sing,001,2022_Nov_15_1633,ProdSingRedoBetween,2021.2.3,59.93744933188563,
35,0,35,0,,,,,,,,,,,,,,,,,,,,,,,,,,611.6086819004267,None,dispute,44,36,sing,blue,609.6093997005373,None,None,609.6093997005373,None,,,,,,,,,,,,,,,,,,,,,,,,,,,,,,,,,,,81 Sing,001,2022_Nov_15_1633,ProdSingRedoBetween,2021.2.3,59.93744933188563,
36,0,36,0,,,,,,,,,,,,,,,,,,,,,,,,,,614.1279140999541,None,court,35,37,sing,blue,612.1148808998987,None,None,612.1148808998987,None,,,,,,,,,,,,,,,,,,,,,,,,,,,,,,,,,,,81 Sing,001,2022_Nov_15_1633,ProdSingRedoBetween,2021.2.3,59.93744933188563,
37,0,37,0,,,,,,,,,,,,,,,,,,,,,,,,,,616.6300919996575,None,angle,73,38,sing,red,614.628092000261,None,None,614.628092000261,None,,,,,,,,,,,,,,,,,,,,,,,,,,,,,,,,,,,81 Sing,001,2022_Nov_15_1633,ProdSingRedoBetween,2021.2.3,59.93744933188563,
38,0,38,0,,,,,,,,,,,,,,,,,,,,,,,,,,619.1329752001911,None,article,82,39,sing,red,617.1308730999008,None,None,617.1308730999008,None,,,,,,,,,,,,,,,,,,,,,,,,,,,,,,,,,,,81 Sing,001,2022_Nov_15_1633,ProdSingRedoBetween,2021.2.3,59.93744933188563,
39,0,39,0,,,,,,,,,,,,,,,,,,,,,,,,,,621.6519697001204,None,trend,25,40,sing,yellow,619.6371919000521,None,None,619.6371919000521,None,,,,,,,,,,,,,,,,,,,,,,,,,,,,,,,,,,,81 Sing,001,2022_Nov_15_1633,ProdSingRedoBetween,2021.2.3,59.93744933188563,
40,0,40,0,,,,,,,,,,,,,,,,,,,,,,,,,,624.1545112999156,None,evidence,85,41,sing,red,622.1525312000886,None,None,622.1525312000886,None,,,,,,,,,,,,,,,,,,,,,,,,,,,,,,,,,,,81 Sing,001,2022_Nov_15_1633,ProdSingRedoBetween,2021.2.3,59.93744933188563,
41,0,41,0,,,,,,,,,,,,,,,,,,,,,,,,,,626.6734552998096,None,weather,5,42,sing,yellow,624.6604591002688,None,None,624.6604591002688,None,,,,,,,,,,,,,,,,,,,,,,,,,,,,,,,,,,,81 Sing,001,2022_Nov_15_1633,ProdSingRedoBetween,2021.2.3,59.93744933188563,
42,0,42,0,,,,,,,,,,,,,,,,,,,,,,,,,,629.176017999649,None,bicycle,49,43,sing,blue,627.1742423996329,None,None,627.1742423996329,None,,,,,,,,,,,,,,,,,,,,,,,,,,,,,,,,,,,81 Sing,001,2022_Nov_15_1633,ProdSingRedoBetween,2021.2.3,59.93744933188563,
43,0,43,0,,,,,,,,,,,,,,,,,,,,,,,,,,631.6781764002517,None,match,80,44,sing,red,629.6771143004298,None,None,629.6771143004298,None,,,,,,,,,,,,,,,,,,,,,,,,,,,,,,,,,,,81 Sing,001,2022_Nov_15_1633,ProdSingRedoBetween,2021.2.3,59.93744933188563,
44,0,44,0,,,,,,,,,,,,,,,,,,,,,,,,,,634.1811931002885,None,thick,88,45,sing,red,632.1801644004881,None,None,632.1801644004881,None,,,,,,,,,,,,,,,,,,,,,,,,,,,,,,,,,,,81 Sing,001,2022_Nov_15_1633,ProdSingRedoBetween,2021.2.3,59.93744933188563,
45,0,45,0,,,,,,,,,,,,,,,,,,,,,,,,,,636.6837026998401,None,military,63,46,sing,red,634.6820806004107,None,None,634.6820806004107,None,,,,,,,,,,,,,,,,,,,,,,,,,,,,,,,,,,,81 Sing,001,2022_Nov_15_1633,ProdSingRedoBetween,2021.2.3,59.93744933188563,
46,0,46,0,,,,,,,,,,,,,,,,,,,,,,,,,,639.1861612005159,None,engineer,48,47,sing,blue,637.1839479003102,None,None,637.1839479003102,None,,,,,,,,,,,,,,,,,,,,,,,,,,,,,,,,,,,81 Sing,001,2022_Nov_15_1633,ProdSingRedoBetween,2021.2.3,59.93744933188563,
47,0,47,0,,,,,,,,,,,,,,,,,,,,,,,,,,641.6887301001698,None,leader,14,48,sing,yellow,639.6894322000444,None,None,639.6894322000444,None,,,,,,,,,,,,,,,,,,,,,,,,,,,,,,,,,,,81 Sing,001,2022_Nov_15_1633,ProdSingRedoBetween,2021.2.3,59.93744933188563,
48,0,48,0,,,,,,,,,,,,,,,,,,,,,,,,,,644.1909277997911,None,judge,83,49,sing,red,642.1914659002796,None,None,642.1914659002796,None,,,,,,,,,,,,,,,,,,,,,,,,,,,,,,,,,,,81 Sing,001,2022_Nov_15_1633,ProdSingRedoBetween,2021.2.3,59.93744933188563,
49,0,49,0,,,,,,,,,,,,,,,,,,,,,,,,,,646.7103639002889,None,colonel,67,50,sing,red,644.7009236002341,None,None,644.7009236002341,None,,,,,,,,,,,,,,,,,,,,,,,,,,,,,,,,,,,81 Sing,001,2022_Nov_15_1633,ProdSingRedoBetween,2021.2.3,59.93744933188563,
50,0,50,0,,,,,,,,,,,,,,,,,,,,,,,,,,649.212659300305,None,sight,51,51,sing,blue,647.2134589003399,None,None,647.2134589003399,None,,,,,,,,,,,,,,,,,,,,,,,,,,,,,,,,,,,81 Sing,001,2022_Nov_15_1633,ProdSingRedoBetween,2021.2.3,59.93744933188563,
51,0,51,0,,,,,,,,,,,,,,,,,,,,,,,,,,651.7152335001156,None,theme,78,52,sing,red,649.7133213002235,None,None,649.7133213002235,None,,,,,,,,,,,,,,,,,,,,,,,,,,,,,,,,,,,81 Sing,001,2022_Nov_15_1633,ProdSingRedoBetween,2021.2.3,59.93744933188563,
52,0,52,0,,,,,,,,,,,,,,,,,,,,,,,,,,654.234331600368,None,substance,12,53,sing,yellow,652.2231585001573,None,None,652.2231585001573,None,,,,,,,,,,,,,,,,,,,,,,,,,,,,,,,,,,,81 Sing,001,2022_Nov_15_1633,ProdSingRedoBetween,2021.2.3,59.93744933188563,
53,0,53,0,,,,,,,,,,,,,,,,,,,,,,,,,,656.737135800533,None,order,10,54,sing,yellow,654.7348372004926,None,None,654.7348372004926,None,,,,,,,,,,,,,,,,,,,,,,,,,,,,,,,,,,,81 Sing,001,2022_Nov_15_1633,ProdSingRedoBetween,2021.2.3,59.93744933188563,
54,0,54,0,,,,,,,,,,,,,,,,,,,,,,,,,,659.2562883002684,None,vision,33,55,sing,blue,657.2434245003387,None,None,657.2434245003387,None,,,,,,,,,,,,,,,,,,,,,,,,,,,,,,,,,,,81 Sing,001,2022_Nov_15_1633,ProdSingRedoBetween,2021.2.3,59.93744933188563,
55,0,55,0,,,,,,,,,,,,,,,,,,,,,,,,,,661.775040499866,None,society,0,56,sing,yellow,659.760245599784,None,None,659.760245599784,None,,,,,,,,,,,,,,,,,,,,,,,,,,,,,,,,,,,81 Sing,001,2022_Nov_15_1633,ProdSingRedoBetween,2021.2.3,59.93744933188563,
56,0,56,0,,,,,,,,,,,,,,,,,,,,,,,,,,664.2776800999418,None,touch,1,57,sing,yellow,662.2754148002714,None,None,662.2754148002714,None,,,,,,,,,,,,,,,,,,,,,,,,,,,,,,,,,,,81 Sing,001,2022_Nov_15_1633,ProdSingRedoBetween,2021.2.3,59.93744933188563,
57,0,57,0,,,,,,,,,,,,,,,,,,,,,,,,,,666.780366900377,None,fashion,56,58,sing,blue,664.7787768999115,None,None,664.7787768999115,None,,,,,,,,,,,,,,,,,,,,,,,,,,,,,,,,,,,81 Sing,001,2022_Nov_15_1633,ProdSingRedoBetween,2021.2.3,59.93744933188563,
58,0,58,0,,,,,,,,,,,,,,,,,,,,,,,,,,669.2995180003345,None,smell,65,59,sing,red,667.2857638997957,None,None,667.2857638997957,None,,,,,,,,,,,,,,,,,,,,,,,,,,,,,,,,,,,81 Sing,001,2022_Nov_15_1633,ProdSingRedoBetween,2021.2.3,59.93744933188563,
59,0,59,0,,,,,,,,,,,,,,,,,,,,,,,,,,671.8021076004952,None,notice,23,60,sing,yellow,669.8000953998417,None,None,669.8000953998417,None,,,,,,,,,,,,,,,,,,,,,,,,,,,,,,,,,,,81 Sing,001,2022_Nov_15_1633,ProdSingRedoBetween,2021.2.3,59.93744933188563,
60,0,60,0,,,,,,,,,,,,,,,,,,,,,,,,,,674.321266300045,None,shear,15,61,sing,yellow,672.3064079005271,None,None,672.3064079005271,None,,,,,,,,,,,,,,,,,,,,,,,,,,,,,,,,,,,81 Sing,001,2022_Nov_15_1633,ProdSingRedoBetween,2021.2.3,59.93744933188563,
61,0,61,0,,,,,,,,,,,,,,,,,,,,,,,,,,676.8238017000258,None,alert,87,62,sing,red,674.8219435000792,None,None,674.8219435000792,None,,,,,,,,,,,,,,,,,,,,,,,,,,,,,,,,,,,81 Sing,001,2022_Nov_15_1633,ProdSingRedoBetween,2021.2.3,59.93744933188563,
62,0,62,0,,,,,,,,,,,,,,,,,,,,,,,,,,679.3428678996861,None,budget,2,63,sing,yellow,677.3273098003119,None,None,677.3273098003119,None,,,,,,,,,,,,,,,,,,,,,,,,,,,,,,,,,,,81 Sing,001,2022_Nov_15_1633,ProdSingRedoBetween,2021.2.3,59.93744933188563,
63,0,63,0,,,,,,,,,,,,,,,,,,,,,,,,,,681.862015100196,None,travel,29,64,sing,blue,679.8528083004057,None,None,679.8528083004057,None,,,,,,,,,,,,,,,,,,,,,,,,,,,,,,,,,,,81 Sing,001,2022_Nov_15_1633,ProdSingRedoBetween,2021.2.3,59.93744933188563,
64,0,64,0,,,,,,,,,,,,,,,,,,,,,,,,,,684.3644642997533,None,childhood,4,65,sing,yellow,682.3643097998574,None,None,682.3643097998574,None,,,,,,,,,,,,,,,,,,,,,,,,,,,,,,,,,,,81 Sing,001,2022_Nov_15_1633,ProdSingRedoBetween,2021.2.3,59.93744933188563,
65,0,65,0,,,,,,,,,,,,,,,,,,,,,,,,,,686.866734799929,None,title,89,66,sing,red,684.8648391002789,None,None,684.8648391002789,None,,,,,,,,,,,,,,,,,,,,,,,,,,,,,,,,,,,81 Sing,001,2022_Nov_15_1633,ProdSingRedoBetween,2021.2.3,59.93744933188563,
66,0,66,0,,,,,,,,,,,,,,,,,,,,,,,,,,689.3862164001912,None,people,42,67,sing,blue,687.3720891997218,None,None,687.3720891997218,None,,,,,,,,,,,,,,,,,,,,,,,,,,,,,,,,,,,81 Sing,001,2022_Nov_15_1633,ProdSingRedoBetween,2021.2.3,59.93744933188563,
67,0,67,0,,,,,,,,,,,,,,,,,,,,,,,,,,691.8883702000603,None,audience,84,68,sing,red,689.8867293996736,None,None,689.8867293996736,None,,,,,,,,,,,,,,,,,,,,,,,,,,,,,,,,,,,81 Sing,001,2022_Nov_15_1633,ProdSingRedoBetween,2021.2.3,59.93744933188563,
68,0,68,0,,,,,,,,,,,,,,,,,,,,,,,,,,694.3909149002284,None,store,62,69,sing,red,692.3890228001401,None,None,692.3890228001401,None,,,,,,,,,,,,,,,,,,,,,,,,,,,,,,,,,,,81 Sing,001,2022_Nov_15_1633,ProdSingRedoBetween,2021.2.3,59.93744933188563,
69,0,69,0,,,,,,,,,,,,,,,,,,,,,,,,,,696.8937969002873,None,track,31,70,sing,blue,694.8916094005108,None,None,694.8916094005108,None,,,,,,,,,,,,,,,,,,,,,,,,,,,,,,,,,,,81 Sing,001,2022_Nov_15_1633,ProdSingRedoBetween,2021.2.3,59.93744933188563,
70,0,70,0,,,,,,,,,,,,,,,,,,,,,,,,,,699.3961944999173,None,threat,40,71,sing,blue,697.3942486997694,None,None,697.3942486997694,None,,,,,,,,,,,,,,,,,,,,,,,,,,,,,,,,,,,81 Sing,001,2022_Nov_15_1633,ProdSingRedoBetween,2021.2.3,59.93744933188563,
71,0,71,0,,,,,,,,,,,,,,,,,,,,,,,,,,701.8987530004233,None,level,17,72,sing,yellow,699.8973356001079,None,None,699.8973356001079,None,,,,,,,,,,,,,,,,,,,,,,,,,,,,,,,,,,,81 Sing,001,2022_Nov_15_1633,ProdSingRedoBetween,2021.2.3,59.93744933188563,
72,0,72,0,,,,,,,,,,,,,,,,,,,,,,,,,,704.4011474996805,None,council,41,73,sing,blue,702.3999963998795,None,None,702.3999963998795,None,,,,,,,,,,,,,,,,,,,,,,,,,,,,,,,,,,,81 Sing,001,2022_Nov_15_1633,ProdSingRedoBetween,2021.2.3,59.93744933188563,
73,0,73,0,,,,,,,,,,,,,,,,,,,,,,,,,,706.9203891996294,None,still,70,74,sing,red,704.9091603998095,None,None,704.9091603998095,None,,,,,,,,,,,,,,,,,,,,,,,,,,,,,,,,,,,81 Sing,001,2022_Nov_15_1633,ProdSingRedoBetween,2021.2.3,59.93744933188563,
74,0,74,0,,,,,,,,,,,,,,,,,,,,,,,,,,709.4229616997764,None,pressure,8,75,sing,yellow,707.4208410996944,None,None,707.4208410996944,None,,,,,,,,,,,,,,,,,,,,,,,,,,,,,,,,,,,81 Sing,001,2022_Nov_15_1633,ProdSingRedoBetween,2021.2.3,59.93744933188563,
75,0,75,0,,,,,,,,,,,,,,,,,,,,,,,,,,711.9419467002153,None,discussion,32,76,sing,blue,709.927318200469,None,None,709.927318200469,None,,,,,,,,,,,,,,,,,,,,,,,,,,,,,,,,,,,81 Sing,001,2022_Nov_15_1633,ProdSingRedoBetween,2021.2.3,59.93744933188563,
76,0,76,0,,,,,,,,,,,,,,,,,,,,,,,,,,714.4611951000988,None,atmosphere,39,77,sing,blue,712.447267900221,None,None,712.447267900221,None,,,,,,,,,,,,,,,,,,,,,,,,,,,,,,,,,,,81 Sing,001,2022_Nov_15_1633,ProdSingRedoBetween,2021.2.3,59.93744933188563,
77,0,77,0,,,,,,,,,,,,,,,,,,,,,,,,,,716.9638034002855,None,front,16,78,sing,yellow,714.9618006004021,None,None,714.9618006004021,None,,,,,,,,,,,,,,,,,,,,,,,,,,,,,,,,,,,81 Sing,001,2022_Nov_15_1633,ProdSingRedoBetween,2021.2.3,59.93744933188563,
78,0,78,0,,,,,,,,,,,,,,,,,,,,,,,,,,719.4829465001822,None,session,55,79,sing,blue,717.4692761003971,None,None,717.4692761003971,None,,,,,,,,,,,,,,,,,,,,,,,,,,,,,,,,,,,81 Sing,001,2022_Nov_15_1633,ProdSingRedoBetween,2021.2.3,59.93744933188563,
79,0,79,0,,,,,,,,,,,,,,,,,,,,,,,,,,721.9855706002563,None,goose,43,80,sing,blue,719.9836309002712,None,None,719.9836309002712,None,,,,,,,,,,,,,,,,,,,,,,,,,,,,,,,,,,,81 Sing,001,2022_Nov_15_1633,ProdSingRedoBetween,2021.2.3,59.93744933188563,
80,0,80,0,,,,,,,,,,,,,,,,,,,,,,,,,,724.4879687000066,None,household,61,81,sing,red,722.4859683997929,None,None,722.4859683997929,None,,,,,,,,,,,,,,,,,,,,,,,,,,,,,,,,,,,81 Sing,001,2022_Nov_15_1633,ProdSingRedoBetween,2021.2.3,59.93744933188563,
81,0,81,0,,,,,,,,,,,,,,,,,,,,,,,,,,726.9904968002811,None,column,86,82,sing,red,724.9886191003025,None,None,724.9886191003025,None,,,,,,,,,,,,,,,,,,,,,,,,,,,,,,,,,,,81 Sing,001,2022_Nov_15_1633,ProdSingRedoBetween,2021.2.3,59.93744933188563,
82,0,82,0,,,,,,,,,,,,,,,,,,,,,,,,,,729.5095629999414,None,incident,37,83,sing,blue,727.4943695003167,None,None,727.4943695003167,None,,,,,,,,,,,,,,,,,,,,,,,,,,,,,,,,,,,81 Sing,001,2022_Nov_15_1633,ProdSingRedoBetween,2021.2.3,59.93744933188563,
83,0,83,0,,,,,,,,,,,,,,,,,,,,,,,,,,732.0120871001855,None,welcome,19,84,sing,yellow,730.0100769000128,None,None,730.0100769000128,None,,,,,,,,,,,,,,,,,,,,,,,,,,,,,,,,,,,81 Sing,001,2022_Nov_15_1633,ProdSingRedoBetween,2021.2.3,59.93744933188563,
84,0,84,0,,,,,,,,,,,,,,,,,,,,,,,,,,734.5311930002645,None,message,69,85,sing,red,732.5169203998521,None,None,732.5169203998521,None,,,,,,,,,,,,,,,,,,,,,,,,,,,,,,,,,,,81 Sing,001,2022_Nov_15_1633,ProdSingRedoBetween,2021.2.3,59.93744933188563,
85,0,85,0,,,,,,,,,,,,,,,,,,,,,,,,,,737.0337656997144,None,defeat,54,86,sing,blue,735.0317379003391,None,None,735.0317379003391,None,,,,,,,,,,,,,,,,,,,,,,,,,,,,,,,,,,,81 Sing,001,2022_Nov_15_1633,ProdSingRedoBetween,2021.2.3,59.93744933188563,
86,0,86,0,,,,,,,,,,,,,,,,,,,,,,,,,,739.5361738000065,None,worker,71,87,sing,red,737.5346429999918,None,None,737.5346429999918,None,,,,,,,,,,,,,,,,,,,,,,,,,,,,,,,,,,,81 Sing,001,2022_Nov_15_1633,ProdSingRedoBetween,2021.2.3,59.93744933188563,
87,0,87,0,,,,,,,,,,,,,,,,,,,,,,,,,,742.0386961996555,None,blind,76,88,sing,red,740.0367350000888,None,None,740.0367350000888,None,,,,,,,,,,,,,,,,,,,,,,,,,,,,,,,,,,,81 Sing,001,2022_Nov_15_1633,ProdSingRedoBetween,2021.2.3,59.93744933188563,
88,0,88,0,,,,,,,,,,,,,,,,,,,,,,,,,,744.5576376002282,None,fight,3,89,sing,yellow,742.5436605997384,None,None,742.5436605997384,None,,,,,,,,,,,,,,,,,,,,,,,,,,,,,,,,,,,81 Sing,001,2022_Nov_15_1633,ProdSingRedoBetween,2021.2.3,59.93744933188563,
89,0,89,0,,,,,,,,,,,,,,,,,,,,,,,,,,747.0770527999848,None,harmony,68,90,sing,red,745.0633706999943,None,None,745.0633706999943,None,,,,,,,,,,,,,,,,,,,,,,,,,,,,,,,,,,,81 Sing,001,2022_Nov_15_1633,ProdSingRedoBetween,2021.2.3,59.93744933188563,
,,,,,,,,,,,,,,,,,,,,,,,,,,,,,,,,,,,,,,,,,747.5779678002,None,k,237.26785579975694,747.5779678002,None,,,,,,,,,,,,,,,,,,,,,,,,,,,,,81 Sing,001,2022_Nov_15_1633,ProdSingRedoBetween,2021.2.3,59.93744933188563,
,,,,0,0,0,0,,,,,,,,,,,,,,,,,,,,,,1035.2311653001234,None,,,,,,,,,,,,,,,,,search,161,1,sing,new,null,985.3857843996957,None,985.3857843996957,None,6,37.891857200302184,985.3857843996957,None,37.891857200302184,1023.3045934000984,None,1023.819945000112,None,1023.819945000112,None,r,11.385716800577939,1023.819945000112,None,11.385716800577939,,,81 Sing,001,2022_Nov_15_1633,ProdSingRedoBetween,2021.2.3,59.93744933188563,
,,,,1,0,1,0,,,,,,,,,,,,,,,,,,,,,,1070.7833423996344,None,,,,,,,,,,,,,,,,,weather,5,2,sing,old,yellow,1035.7396499002352,None,1035.7396499002352,None,6,33.05011790059507,1035.7396499002352,None,33.05011790059507,1068.8177533000708,None,1069.3353340998292,None,1069.3353340998292,None,r,1.422279299236834,1069.3353340998292,None,1.422279299236834,,,81 Sing,001,2022_Nov_15_1633,ProdSingRedoBetween,2021.2.3,59.93744933188563,
,,,,2,0,2,0,,,,,,,,,,,,,,,,,,,,,,1085.064210800454,None,,,,,,,,,,,,,,,,,junior,60,3,sing,old,red,1071.2897551003844,None,1071.2897551003844,None,6,9.51580569986254,1071.2897551003844,None,9.51580569986254,1080.8282021004707,None,1081.3462383998558,None,1081.3462383998558,None,f,3.699207999743521,1081.3462383998558,None,3.699207999743521,,,81 Sing,001,2022_Nov_15_1633,ProdSingRedoBetween,2021.2.3,59.93744933188563,
,,,,3,0,3,0,,,,,,,,,,,,,,,,,,,,,,1094.3234350997955,None,,,,,,,,,,,,,,,,,style,100,4,sing,new,null,1085.5757256001234,None,1085.5757256001234,None,5,5.38981709908694,1085.5757256001234,None,5.38981709908694,1090.9942127997056,None,1091.5091252001002,None,1091.5091252001002,None,f,2.7843771995976567,1091.5091252001002,None,2.7843771995976567,,,81 Sing,001,2022_Nov_15_1633,ProdSingRedoBetween,2021.2.3,59.93744933188563,
,,,,4,0,4,0,,,,,,,,,,,,,,,,,,,,,,1101.964356499724,None,,,,,,,,,,,,,,,,,character,178,5,sing,new,null,1094.8349625999108,None,1094.8349625999108,None,5,4.0025647999718785,1094.8349625999108,None,4.0025647999718785,1098.8639486003667,None,1099.3806025004014,None,1099.3806025004014,None,n,2.55288300011307,1099.3806025004014,None,2.55288300011307,,,81 Sing,001,2022_Nov_15_1633,ProdSingRedoBetween,2021.2.3,59.93744933188563,
,,,,5,0,5,0,,,,,,,,,,,,,,,,,,,,,,1106.035086300224,None,,,,,,,,,,,,,,,,,childhood,4,6,sing,old,yellow,1102.4736946998164,None,1102.4736946998164,None,6,2.419817299582064,1102.4736946998164,None,2.419817299582064,1104.9190202997997,None,1105.4361394997686,None,1105.4361394997686,None,r,0.5773029001429677,1105.4361394997686,None,0.5773029001429677,,,81 Sing,001,2022_Nov_15_1633,ProdSingRedoBetween,2021.2.3,59.93744933188563,
,,,,6,0,6,0,,,,,,,,,,,,,,,,,,,,,,1110.0073573002592,None,,,,,,,,,,,,,,,,,shear,15,7,sing,old,yellow,1106.5417323997244,None,1106.5417323997244,None,6,1.6397836999967694,1106.5417323997244,None,1.6397836999967694,1108.2061318000779,None,1108.7262535002083,None,1108.7262535002083,None,r,1.2552819000557065,1108.7262535002083,None,1.2552819000557065,,,81 Sing,001,2022_Nov_15_1633,ProdSingRedoBetween,2021.2.3,59.93744933188563,
,,,,7,0,7,0,,,,,,,,,,,,,,,,,,,,,,1115.897719300352,None,,,,,,,,,,,,,,,,,fight,3,8,sing,old,yellow,1110.5297841001302,None,1110.5297841001302,None,5,2.939733900129795,1110.5297841001302,None,2.939733900129795,1113.4954832000658,None,1114.0121299996972,None,1114.0121299996972,None,f,1.8573831003159285,1114.0121299996972,None,1.8573831003159285,,,81 Sing,001,2022_Nov_15_1633,ProdSingRedoBetween,2021.2.3,59.93744933188563,
,,,,8,0,8,0,,,,,,,,,,,,,,,,,,,,,,1123.7389272004366,None,,,,,,,,,,,,,,,,,worker,71,9,sing,old,red,1116.421831900254,None,1116.421831900254,None,5,5.3356320997700095,1116.421831900254,None,5.3356320997700095,1121.7867766004056,None,1122.3024393003434,None,1122.3024393003434,None,f,1.4151091994717717,1122.3024393003434,None,1.4151091994717717,,,81 Sing,001,2022_Nov_15_1633,ProdSingRedoBetween,2021.2.3,59.93744933188563,
,,,,9,0,9,0,,,,,,,,,,,,,,,,,,,,,,1128.2092896001413,None,,,,,,,,,,,,,,,,,couch,165,10,sing,new,null,1124.2599013997242,None,1124.2599013997242,None,6,1.7135683000087738,1124.2599013997242,None,1.7135683000087738,1125.9895539004356,None,1126.501794300042,None,1126.501794300042,None,f,1.6797684002667665,1126.501794300042,None,1.6797684002667665,,,81 Sing,001,2022_Nov_15_1633,ProdSingRedoBetween,2021.2.3,59.93744933188563,
,,,,10,0,10,0,,,,,,,,,,,,,,,,,,,,,,1132.8448649998754,None,,,,,,,,,,,,,,,,,trend,25,11,sing,old,yellow,1128.7279876004905,None,1128.7279876004905,None,6,2.189496399834752,1128.7279876004905,None,2.189496399834752,1130.9431565999985,None,1131.4438886996359,None,1131.4438886996359,None,r,1.3775873994454741,1131.4438886996359,None,1.3775873994454741,,,81 Sing,001,2022_Nov_15_1633,ProdSingRedoBetween,2021.2.3,59.93744933188563,
,,,,11,0,11,0,,,,,,,,,,,,,,,,,,,,,,1138.301653300412,None,,,,,,,,,,,,,,,,,foundation,45,12,sing,old,blue,1133.356924599968,None,1133.356924599968,None,5,3.504556800238788,1133.356924599968,None,3.504556800238788,1136.885892400518,None,1137.3998245997354,None,1137.3998245997354,None,f,0.877700500190258,1137.3998245997354,None,0.877700500190258,,,81 Sing,001,2022_Nov_15_1633,ProdSingRedoBetween,2021.2.3,59.93744933188563,
,,,,12,0,12,0,,,,,,,,,,,,,,,,,,,,,,1143.756055300124,None,,,,,,,,,,,,,,,,,waste,58,13,sing,old,blue,1138.8041495997459,None,1138.8041495997459,None,5,3.193211999721825,1138.8041495997459,None,3.193211999721825,1142.0252934005111,None,1142.5382526004687,None,1142.5382526004687,None,f,1.1952908001840115,1142.5382526004687,None,1.1952908001840115,,,81 Sing,001,2022_Nov_15_1633,ProdSingRedoBetween,2021.2.3,59.93744933188563,
,,,,13,0,13,0,,,,,,,,,,,,,,,,,,,,,,1150.033164399676,None,,,,,,,,,,,,,,,,,impact,121,14,sing,new,null,1144.261028200388,None,1144.261028200388,None,5,3.4726369995623827,1144.261028200388,None,3.4726369995623827,1147.7621806003153,None,1148.282857700251,None,1148.282857700251,None,n,1.7306567998602986,1148.282857700251,None,1.7306567998602986,,,81 Sing,001,2022_Nov_15_1633,ProdSingRedoBetween,2021.2.3,59.93744933188563,
,,,,14,0,14,0,,,,,,,,,,,,,,,,,,,,,,1159.5757456002757,None,,,,,,,,,,,,,,,,,relation,96,15,sing,new,null,1150.5462752003223,None,1150.5462752003223,None,5,5.443168899975717,1150.5462752003223,None,5.443168899975717,1156.0191967003047,None,1156.521972199902,None,1156.521972199902,None,f,3.0195219004526734,1156.521972199902,None,3.0195219004526734,,,81 Sing,001,2022_Nov_15_1633,ProdSingRedoBetween,2021.2.3,59.93744933188563,
,,,,15,0,15,0,,,,,,,,,,,,,,,,,,,,,,1165.3275127997622,None,,,,,,,,,,,,,,,,,height,113,16,sing,new,null,1160.0959445005283,None,1160.0959445005283,None,6,4.213350799866021,1160.0959445005283,None,4.213350799866021,1164.3284921003506,None,1164.844880799763,None,1164.844880799763,None,n,0.46450590062886477,1164.844880799763,None,0.46450590062886477,,,81 Sing,001,2022_Nov_15_1633,ProdSingRedoBetween,2021.2.3,59.93744933188563,
,,,,16,0,16,0,,,,,,,,,,,,,,,,,,,,,,1168.5807975996286,None,,,,,,,,,,,,,,,,,object,74,17,sing,old,red,1165.8333136001602,None,1165.8333136001602,None,6,1.7640217998996377,1165.8333136001602,None,1.7640217998996377,1167.613745099865,None,1168.12401460018,None,1168.12401460018,None,r,0.4414013996720314,1168.12401460018,None,0.4414013996720314,,,81 Sing,001,2022_Nov_15_1633,ProdSingRedoBetween,2021.2.3,59.93744933188563,
,,,,17,0,17,0,,,,,,,,,,,,,,,,,,,,,,1175.220722399652,None,,,,,,,,,,,,,,,,,still,70,18,sing,old,red,1169.088065000251,None,1169.088065000251,None,5,2.805258199572563,1169.088065000251,None,2.805258199572563,1171.9232352003455,None,1172.4344867998734,None,1172.4344867998734,None,r,2.7708128998056054,1172.4344867998734,None,2.7708128998056054,,,81 Sing,001,2022_Nov_15_1633,ProdSingRedoBetween,2021.2.3,59.93744933188563,
,,,,18,0,18,0,,,,,,,,,,,,,,,,,,,,,,1179.2586417999119,None,,,,,,,,,,,,,,,,,signal,9,19,sing,old,yellow,1175.7304974999279,None,1175.7304974999279,None,6,2.450925599783659,1175.7304974999279,None,2.450925599783659,1178.2099577002227,None,1178.7327714003623,None,1178.7327714003623,None,r,0.4966799998655915,1178.7327714003623,None,0.4966799998655915,,,81 Sing,001,2022_Nov_15_1633,ProdSingRedoBetween,2021.2.3,59.93744933188563,
,,,,19,0,19,0,,,,,,,,,,,,,,,,,,,,,,1184.363220400177,None,,,,,,,,,,,,,,,,,candidate,129,20,sing,new,null,1179.7683351002634,None,1179.7683351002634,None,6,3.165160699747503,1179.7683351002634,None,3.165160699747503,1182.9670690000057,None,1183.4795420998707,None,1183.4795420998707,None,n,0.8538306998088956,1183.4795420998707,None,0.8538306998088956,,,81 Sing,001,2022_Nov_15_1633,ProdSingRedoBetween,2021.2.3,59.93744933188563,
,,,,20,0,20,0,,,,,,,,,,,,,,,,,,,,,,1189.6684897001833,None,,,,,,,,,,,,,,,,,fashion,56,21,sing,old,blue,1184.8635100005195,None,1184.8635100005195,None,6,3.781893899664283,1184.8635100005195,None,3.781893899664283,1188.6696974001825,None,1189.1876443997025,None,1189.1876443997025,None,r,0.46573940012604,1189.1876443997025,None,0.46573940012604,,,81 Sing,001,2022_Nov_15_1633,ProdSingRedoBetween,2021.2.3,59.93744933188563,
,,,,21,0,21,0,,,,,,,,,,,,,,,,,,,,,,1193.972793799825,None,,,,,,,,,,,,,,,,,union,179,22,sing,new,null,1190.1841547004879,None,1190.1841547004879,None,5,2.3252163007855415,1190.1841547004879,None,2.3252163007855415,1192.5453393002972,None,1193.055275700055,None,1193.055275700055,None,f,0.8861568002030253,1193.055275700055,None,0.8861568002030253,,,81 Sing,001,2022_Nov_15_1633,ProdSingRedoBetween,2021.2.3,59.93744933188563,
,,,,22,0,22,0,,,,,,,,,,,,,,,,,,,,,,1199.4782512998208,None,,,,,,,,,,,,,,,,,benefit,168,23,sing,new,null,1194.480855899863,None,1194.480855899863,None,5,2.0844623995944858,1194.480855899863,None,2.0844623995944858,1196.594766500406,None,1197.1125499000773,None,1197.1125499000773,None,f,2.3487622998654842,1197.1125499000773,None,2.3487622998654842,,,81 Sing,001,2022_Nov_15_1633,ProdSingRedoBetween,2021.2.3,59.93744933188563,
,,,,23,0,23,0,,,,,,,,,,,,,,,,,,,,,,1202.4976772004738,None,,,,,,,,,,,,,,,,,birth,21,24,sing,old,yellow,1199.9825772000477,None,1199.9825772000477,None,6,1.4227781994268298,1199.9825772000477,None,1.4227781994268298,1201.431919700466,None,1201.9471631003544,None,1201.9471631003544,None,r,0.5220633000135422,1201.9471631003544,None,0.5220633000135422,,,81 Sing,001,2022_Nov_15_1633,ProdSingRedoBetween,2021.2.3,59.93744933188563,
,,,,24,0,24,0,,,,,,,,,,,,,,,,,,,,,,1208.3704776000232,None,,,,,,,,,,,,,,,,,discussion,32,25,sing,old,blue,1203.0087865004316,None,1203.0087865004316,None,5,2.8367021000012755,1203.0087865004316,None,2.8367021000012755,1205.869621500373,None,1206.3901637997478,None,1206.3901637997478,None,n,1.9591763000935316,1206.3901637997478,None,1.9591763000935316,,,81 Sing,001,2022_Nov_15_1633,ProdSingRedoBetween,2021.2.3,59.93744933188563,
,,,,25,0,25,0,,,,,,,,,,,,,,,,,,,,,,1211.9405020000413,None,,,,,,,,,,,,,,,,,republic,57,26,sing,old,blue,1208.8731035003439,None,1208.8731035003439,None,6,2.060240600258112,1208.8731035003439,None,2.060240600258112,1210.9591461000964,None,1211.4785499004647,None,1211.4785499004647,None,r,0.4388188002631068,1211.4785499004647,None,0.4388188002631068,,,81 Sing,001,2022_Nov_15_1633,ProdSingRedoBetween,2021.2.3,59.93744933188563,
,,,,26,0,26,0,,,,,,,,,,,,,,,,,,,,,,1215.1271999003366,None,,,,,,,,,,,,,,,,,prime,75,27,sing,old,red,1212.4505393998697,None,1212.4505393998697,None,6,1.682856099680066,1212.4505393998697,None,1.682856099680066,1214.1669365996495,None,1214.6803724002093,None,1214.6803724002093,None,r,0.4209759999066591,1214.6803724002093,None,0.4209759999066591,,,81 Sing,001,2022_Nov_15_1633,ProdSingRedoBetween,2021.2.3,59.93744933188563,
,,,,27,0,27,0,,,,,,,,,,,,,,,,,,,,,,1217.9966935003176,None,,,,,,,,,,,,,,,,,bureau,52,28,sing,old,blue,1215.6275669001043,None,1215.6275669001043,None,6,1.2658016998320818,1215.6275669001043,None,1.2658016998320818,1216.913857200183,None,1217.4315127003938,None,1217.4315127003938,None,r,0.541851400397718,1217.4315127003938,None,0.541851400397718,,,81 Sing,001,2022_Nov_15_1633,ProdSingRedoBetween,2021.2.3,59.93744933188563,
,,,,28,0,28,0,,,,,,,,,,,,,,,,,,,,,,1220.8162310002372,None,,,,,,,,,,,,,,,,,rural,6,29,sing,old,yellow,1218.4997816998512,None,1218.4997816998512,None,6,1.1298179002478719,1218.4997816998512,None,1.1298179002478719,1219.6578283999115,None,1220.1654495997354,None,1220.1654495997354,None,f,0.6319266995415092,1220.1654495997354,None,0.6319266995415092,,,81 Sing,001,2022_Nov_15_1633,ProdSingRedoBetween,2021.2.3,59.93744933188563,
,,,,29,0,29,0,,,,,,,,,,,,,,,,,,,,,,1225.1538569005206,None,,,,,,,,,,,,,,,,,blind,76,30,sing,old,red,1221.3234203001484,None,1221.3234203001484,None,6,1.5539458002895117,1221.3234203001484,None,1.5539458002895117,1222.9033960998058,None,1223.4199713999406,None,1223.4199713999406,None,f,1.713348699733615,1223.4199713999406,None,1.713348699733615,,,81 Sing,001,2022_Nov_15_1633,ProdSingRedoBetween,2021.2.3,59.93744933188563,
,,,,30,0,30,0,,,,,,,,,,,,,,,,,,,,,,1229.5749233998358,None,,,,,,,,,,,,,,,,,bicycle,49,31,sing,old,blue,1225.6664156997576,None,1225.6664156997576,None,6,2.5389917995780706,1225.6664156997576,None,2.5389917995780706,1228.2345535997301,None,1228.7408801000565,None,1228.7408801000565,None,f,0.8163652997463942,1228.7408801000565,None,0.8163652997463942,,,81 Sing,001,2022_Nov_15_1633,ProdSingRedoBetween,2021.2.3,59.93744933188563,
,,,,31,0,31,0,,,,,,,,,,,,,,,,,,,,,,1233.6123042004183,None,,,,,,,,,,,,,,,,,guide,150,32,sing,new,null,1230.0820546001196,None,1230.0820546001196,None,6,2.427185599692166,1230.0820546001196,None,2.427185599692166,1232.5335368001834,None,1233.053336800076,None,1233.053336800076,None,f,0.5359492003917694,1233.053336800076,None,0.5359492003917694,,,81 Sing,001,2022_Nov_15_1633,ProdSingRedoBetween,2021.2.3,59.93744933188563,
,,,,32,0,32,0,,,,,,,,,,,,,,,,,,,,,,1237.4494607001543,None,,,,,,,,,,,,,,,,,business,107,33,sing,new,null,1234.1129884999245,None,1234.1129884999245,None,6,2.3403338994830847,1234.1129884999245,None,2.3403338994830847,1236.4829168003052,None,1236.9897054005414,None,1236.9897054005414,None,f,0.4395551001653075,1236.9897054005414,None,0.4395551001653075,,,81 Sing,001,2022_Nov_15_1633,ProdSingRedoBetween,2021.2.3,59.93744933188563,
,,,,33,0,33,0,,,,,,,,,,,,,,,,,,,,,,1240.3883747998625,None,,,,,,,,,,,,,,,,,generation,127,34,sing,new,null,1237.9560115002096,None,1237.9560115002096,None,6,1.5372739993035793,1237.9560115002096,None,1.5372739993035793,1239.5208852998912,None,1240.0415182998404,None,1240.0415182998404,None,r,0.3158644000068307,1240.0415182998404,None,0.3158644000068307,,,81 Sing,001,2022_Nov_15_1633,ProdSingRedoBetween,2021.2.3,59.93744933188563,
,,,,34,0,34,0,,,,,,,,,,,,,,,,,,,,,,1243.9396887999028,None,,,,,,,,,,,,,,,,,smooth,104,35,sing,new,null,1240.9054573997855,None,1240.9054573997855,None,6,1.707829600200057,1240.9054573997855,None,1.707829600200057,1242.6399547001347,None,1243.1571867996827,None,1243.1571867996827,None,n,0.7600662000477314,1243.1571867996827,None,0.7600662000477314,,,81 Sing,001,2022_Nov_15_1633,ProdSingRedoBetween,2021.2.3,59.93744933188563,
,,,,35,0,35,0,,,,,,,,,,,,,,,,,,,,,,1247.87887590006,None,,,,,,,,,,,,,,,,,substance,12,36,sing,old,yellow,1244.4477035999298,None,1244.4477035999298,None,6,1.725462400354445,1244.4477035999298,None,1.725462400354445,1246.1945577003062,None,1246.7088104998693,None,1246.7088104998693,None,r,1.1526212999597192,1246.7088104998693,None,1.1526212999597192,,,81 Sing,001,2022_Nov_15_1633,ProdSingRedoBetween,2021.2.3,59.93744933188563,
,,,,36,0,36,0,,,,,,,,,,,,,,,,,,,,,,1251.1533203003928,None,,,,,,,,,,,,,,,,,judge,83,37,sing,old,red,1248.3948055002838,None,1248.3948055002838,None,6,1.5864548003301024,1248.3948055002838,None,1.5864548003301024,1250.015012100339,None,1250.529594000429,None,1250.529594000429,None,r,0.5878663994371891,1250.529594000429,None,0.5878663994371891,,,81 Sing,001,2022_Nov_15_1633,ProdSingRedoBetween,2021.2.3,59.93744933188563,
,,,,37,0,37,0,,,,,,,,,,,,,,,,,,,,,,1255.3338625999168,None,,,,,,,,,,,,,,,,,detective,172,38,sing,new,null,1251.6700104000047,None,1251.6700104000047,None,6,1.639174299314618,1251.6700104000047,None,1.639174299314618,1253.3435835000128,None,1253.8492251001298,None,1253.8492251001298,None,n,1.4680127995088696,1253.8492251001298,None,1.4680127995088696,,,81 Sing,001,2022_Nov_15_1633,ProdSingRedoBetween,2021.2.3,59.93744933188563,
,,,,38,0,38,0,,,,,,,,,,,,,,,,,,,,,,1258.1715865004808,None,,,,,,,,,,,,,,,,,nation,47,39,sing,old,blue,1255.842322099954,None,1255.842322099954,None,6,1.2428231006488204,1255.842322099954,None,1.2428231006488204,1257.1104263002053,None,1257.6246645003557,None,1257.6246645003557,None,r,0.5166114000603557,1257.6246645003557,None,0.5166114000603557,,,81 Sing,001,2022_Nov_15_1633,ProdSingRedoBetween,2021.2.3,59.93744933188563,
,,,,39,0,39,0,,,,,,,,,,,,,,,,,,,,,,1261.8425738001242,None,,,,,,,,,,,,,,,,,portion,91,40,sing,new,null,1258.6802781000733,None,1258.6802781000733,None,6,1.1894519003108144,1258.6802781000733,None,1.1894519003108144,1259.9120385004207,None,1260.4223755002022,None,1260.4223755002022,None,n,1.3987610004842281,1260.4223755002022,None,1.3987610004842281,,,81 Sing,001,2022_Nov_15_1633,ProdSingRedoBetween,2021.2.3,59.93744933188563,
,,,,40,0,40,0,,,,,,,,,,,,,,,,,,,,,,1265.6274234000593,None,,,,,,,,,,,,,,,,,block,135,41,sing,new,null,1262.3576221996918,None,1262.3576221996918,None,6,1.7915872000157833,1262.3576221996918,None,1.7915872000157833,1264.1771657001227,None,1264.6767452005297,None,1264.6767452005297,None,f,0.9205048996955156,1264.6767452005297,None,0.9205048996955156,,,81 Sing,001,2022_Nov_15_1633,ProdSingRedoBetween,2021.2.3,59.93744933188563,
,,,,41,0,41,0,,,,,,,,,,,,,,,,,,,,,,1268.768328900449,None,,,,,,,,,,,,,,,,,danger,114,42,sing,new,null,1266.1417474998161,None,1266.1417474998161,None,6,1.3997113993391395,1266.1417474998161,None,1.3997113993391395,1267.5686549004167,None,1268.0866580996662,None,1268.0866580996662,None,f,0.6546465000137687,1268.0866580996662,None,0.6546465000137687,,,81 Sing,001,2022_Nov_15_1633,ProdSingRedoBetween,2021.2.3,59.93744933188563,
,,,,42,0,42,0,,,,,,,,,,,,,,,,,,,,,,1272.3362900000066,None,,,,,,,,,,,,,,,,,finance,115,43,sing,new,null,1269.2826642999426,None,1269.2826642999426,None,6,1.6986306998878717,1269.2826642999426,None,1.6986306998878717,1270.9999825004488,None,1271.5083824004978,None,1271.5083824004978,None,f,0.8088564006611705,1271.5083824004978,None,0.8088564006611705,,,81 Sing,001,2022_Nov_15_1633,ProdSingRedoBetween,2021.2.3,59.93744933188563,
,,,,43,0,43,0,,,,,,,,,,,,,,,,,,,,,,1276.5383854005486,None,,,,,,,,,,,,,,,,,safety,126,44,sing,new,null,1272.861202900298,None,1272.861202900298,None,6,1.9202728001400828,1272.861202900298,None,1.9202728001400828,1274.8188899997622,None,1275.3303803997114,None,1275.3303803997114,None,f,1.178919999860227,1275.3303803997114,None,1.178919999860227,,,81 Sing,001,2022_Nov_15_1633,ProdSingRedoBetween,2021.2.3,59.93744933188563,
,,,,44,0,44,0,,,,,,,,,,,,,,,,,,,,,,1279.591506499797,None,,,,,,,,,,,,,,,,,people,42,45,sing,old,blue,1277.0508928000927,None,1277.0508928000927,None,6,1.0103289000689983,1277.0508928000927,None,1.0103289000689983,1278.092796499841,None,1278.6126428004354,None,1278.6126428004354,None,r,0.9604739006608725,1278.6126428004354,None,0.9604739006608725,,,81 Sing,001,2022_Nov_15_1633,ProdSingRedoBetween,2021.2.3,59.93744933188563,
,,,,45,0,45,0,,,,,,,,,,,,,,,,,,,,,,1283.9960010005161,None,,,,,,,,,,,,,,,,,period,151,46,sing,new,null,1280.1000092001632,None,1280.1000092001632,None,6,1.7612755000591278,1280.1000092001632,None,1.7612755000591278,1281.8783691003919,None,1282.3788692001253,None,1282.3788692001253,None,f,1.5862258998677135,1282.3788692001253,None,1.5862258998677135,,,81 Sing,001,2022_Nov_15_1633,ProdSingRedoBetween,2021.2.3,59.93744933188563,
,,,,46,0,46,0,,,,,,,,,,,,,,,,,,,,,,1286.8001937996596,None,,,,,,,,,,,,,,,,,number,132,47,sing,new,null,1284.497359099798,None,1284.497359099798,None,6,1.139856300316751,1284.497359099798,None,1.139856300316751,1285.6666202005,None,1286.181515100412,None,1286.181515100412,None,f,0.5916882995516062,1286.181515100412,None,0.5916882995516062,,,81 Sing,001,2022_Nov_15_1633,ProdSingRedoBetween,2021.2.3,59.93744933188563,
,,,,47,0,47,0,,,,,,,,,,,,,,,,,,,,,,1292.4877773998305,None,,,,,,,,,,,,,,,,,trial,158,48,sing,new,null,1287.3159805005416,None,1287.3159805005416,None,6,2.1693475004285574,1287.3159805005416,None,2.1693475004285574,1289.5045627001673,None,1290.01990030054,None,1290.01990030054,None,f,2.4491792991757393,1290.01990030054,None,2.4491792991757393,,,81 Sing,001,2022_Nov_15_1633,ProdSingRedoBetween,2021.2.3,59.93744933188563,
,,,,48,0,48,0,,,,,,,,,,,,,,,,,,,,,,1295.0233051003888,None,,,,,,,,,,,,,,,,,council,41,49,sing,old,blue,1292.9929616004229,None,1292.9929616004229,None,6,1.0922617996111512,1292.9929616004229,None,1.0922617996111512,1294.1112070996314,None,1294.6232848996297,None,1294.6232848996297,None,r,0.3739278996363282,1294.6232848996297,None,0.3739278996363282,,,81 Sing,001,2022_Nov_15_1633,ProdSingRedoBetween,2021.2.3,59.93744933188563,
,,,,49,0,49,0,,,,,,,,,,,,,,,,,,,,,,1300.8165519004688,None,,,,,,,,,,,,,,,,,quick,167,50,sing,new,null,1295.5391097003594,None,1295.5391097003594,None,6,1.898094699718058,1295.5391097003594,None,1.898094699718058,1297.4609080003574,None,1297.9767380002886,None,1297.9767380002886,None,f,2.8204270005226135,1297.9767380002886,None,2.8204270005226135,,,81 Sing,001,2022_Nov_15_1633,ProdSingRedoBetween,2021.2.3,59.93744933188563,
,,,,50,0,50,0,,,,,,,,,,,,,,,,,,,,,,1304.1698564998806,None,,,,,,,,,,,,,,,,,employment,160,51,sing,new,null,1301.3376877000555,None,1301.3376877000555,None,6,1.8114432003349066,1301.3376877000555,None,1.8114432003349066,1303.1667403001338,None,1303.692737299949,None,1303.692737299949,None,n,0.4567729998379946,1303.692737299949,None,0.4567729998379946,,,81 Sing,001,2022_Nov_15_1633,ProdSingRedoBetween,2021.2.3,59.93744933188563,
,,,,51,0,51,0,,,,,,,,,,,,,,,,,,,,,,1307.5359664997086,None,,,,,,,,,,,,,,,,,private,77,52,sing,old,red,1304.6931034997106,None,1304.6931034997106,None,6,1.3521043993532658,1304.6931034997106,None,1.3521043993532658,1306.0728342002258,None,1306.5851827003062,None,1306.5851827003062,None,f,0.9320340994745493,1306.5851827003062,None,0.9320340994745493,,,81 Sing,001,2022_Nov_15_1633,ProdSingRedoBetween,2021.2.3,59.93744933188563,
,,,,52,0,52,0,,,,,,,,,,,,,,,,,,,,,,1311.2564120003954,None,,,,,,,,,,,,,,,,,commercial,28,53,sing,old,yellow,1308.045613899827,None,1308.045613899827,None,6,1.6636197995394468,1308.045613899827,None,1.6636197995394468,1309.739153300412,None,1310.244226500392,None,1310.244226500392,None,r,0.9848618004471064,1310.244226500392,None,0.9848618004471064,,,81 Sing,001,2022_Nov_15_1633,ProdSingRedoBetween,2021.2.3,59.93744933188563,
,,,,53,0,53,0,,,,,,,,,,,,,,,,,,,,,,1315.6440567998216,None,,,,,,,,,,,,,,,,,majority,79,54,sing,old,red,1311.7706896001473,None,1311.7706896001473,None,6,2.234468000009656,1311.7706896001473,None,2.234468000009656,1314.0296600004658,None,1314.5430372003466,None,1314.5430372003466,None,n,1.0780417006462812,1314.5430372003466,None,1.0780417006462812,,,81 Sing,001,2022_Nov_15_1633,ProdSingRedoBetween,2021.2.3,59.93744933188563,
,,,,54,0,54,0,,,,,,,,,,,,,,,,,,,,,,1321.7120558004826,None,,,,,,,,,,,,,,,,,collection,26,55,sing,old,yellow,1316.1445867000148,None,1316.1445867000148,None,6,3.2846363000571728,1316.1445867000148,None,3.2846363000571728,1319.4530595997348,None,1319.9649435998872,None,1319.9649435998872,None,f,1.712125400081277,1319.9649435998872,None,1.712125400081277,,,81 Sing,001,2022_Nov_15_1633,ProdSingRedoBetween,2021.2.3,59.93744933188563,
,,,,55,0,55,0,,,,,,,,,,,,,,,,,,,,,,1325.1033736998215,None,,,,,,,,,,,,,,,,,graduate,94,56,sing,new,null,1322.2201795997098,None,1322.2201795997098,None,6,1.4651028998196125,1322.2201795997098,None,1.4651028998196125,1323.701853199862,None,1324.203475500457,None,1324.203475500457,None,n,0.8737115999683738,1324.203475500457,None,0.8737115999683738,,,81 Sing,001,2022_Nov_15_1633,ProdSingRedoBetween,2021.2.3,59.93744933188563,
,,,,56,0,56,0,,,,,,,,,,,,,,,,,,,,,,1329.1753553999588,None,,,,,,,,,,,,,,,,,course,176,57,sing,new,null,1325.6088340003043,None,1325.6088340003043,None,6,1.5324600003659725,1325.6088340003043,None,1.5324600003659725,1327.17549420055,None,1327.6909181000665,None,1327.6909181000665,None,n,1.4584415005519986,1327.6909181000665,None,1.4584415005519986,,,81 Sing,001,2022_Nov_15_1633,ProdSingRedoBetween,2021.2.3,59.93744933188563,
,,,,57,0,57,0,,,,,,,,,,,,,,,,,,,,,,1332.777842500247,None,,,,,,,,,,,,,,,,,surprise,24,58,sing,old,yellow,1329.6748310001567,None,1329.6748310001567,None,6,1.8903203001245856,1329.6748310001567,None,1.8903203001245856,1331.5948881004006,None,1332.1125681996346,None,1332.1125681996346,None,n,0.6365604000166059,1332.1125681996346,None,0.6365604000166059,,,81 Sing,001,2022_Nov_15_1633,ProdSingRedoBetween,2021.2.3,59.93744933188563,
,,,,58,0,58,0,,,,,,,,,,,,,,,,,,,,,,1337.1654746001586,None,,,,,,,,,,,,,,,,,atmosphere,39,59,sing,old,blue,1333.2848511999473,None,1333.2848511999473,None,6,2.0962438993155956,1333.2848511999473,None,2.0962438993155956,1335.3999226996675,None,1335.918431499973,None,1335.918431499973,None,r,1.2306586997583508,1335.918431499973,None,1.2306586997583508,,,81 Sing,001,2022_Nov_15_1633,ProdSingRedoBetween,2021.2.3,59.93744933188563,
,,,,59,0,59,0,,,,,,,,,,,,,,,,,,,,,,1340.8859636997804,None,,,,,,,,,,,,,,,,,piece,159,60,sing,new,null,1337.6766616003588,None,1337.6766616003588,None,6,1.632460200227797,1337.6766616003588,None,1.632460200227797,1339.3358958996832,None,1339.8402776997536,None,1339.8402776997536,None,f,1.028791100718081,1339.8402776997536,None,1.028791100718081,,,81 Sing,001,2022_Nov_15_1633,ProdSingRedoBetween,2021.2.3,59.93744933188563,
,,,,60,0,60,0,,,,,,,,,,,,,,,,,,,,,,1344.1725482000038,None,,,,,,,,,,,,,,,,,working,170,61,sing,new,null,1341.39479739964,None,1341.39479739964,None,6,1.1862708004191518,1341.39479739964,None,1.1862708004191518,1342.604433500208,None,1343.1058865003288,None,1343.1058865003288,None,f,1.0433823997154832,1343.1058865003288,None,1.0433823997154832,,,81 Sing,001,2022_Nov_15_1633,ProdSingRedoBetween,2021.2.3,59.93744933188563,
,,,,61,0,61,0,,,,,,,,,,,,,,,,,,,,,,1347.6092531001195,None,,,,,,,,,,,,,,,,,problem,140,62,sing,new,null,1344.6833114000037,None,1344.6833114000037,None,6,1.2897846000269055,1344.6833114000037,None,1.2897846000269055,1345.9979325998574,None,1346.5083510996774,None,1346.5083510996774,None,f,1.0807501003146172,1346.5083510996774,None,1.0807501003146172,,,81 Sing,001,2022_Nov_15_1633,ProdSingRedoBetween,2021.2.3,59.93744933188563,
,,,,62,0,62,0,,,,,,,,,,,,,,,,,,,,,,1350.728734199889,None,,,,,,,,,,,,,,,,,travel,29,63,sing,old,blue,1348.12752739992,None,1348.12752739992,None,6,1.3176359003409743,1348.12752739992,None,1.3176359003409743,1349.4632844999433,None,1349.9855337003246,None,1349.9855337003246,None,f,0.7236255994066596,1349.9855337003246,None,0.7236255994066596,,,81 Sing,001,2022_Nov_15_1633,ProdSingRedoBetween,2021.2.3,59.93744933188563,
,,,,63,0,63,0,,,,,,,,,,,,,,,,,,,,,,1353.3998475996777,None,,,,,,,,,,,,,,,,,angle,73,64,sing,old,red,1351.2301909001544,None,1351.2301909001544,None,6,1.0787915997207165,1351.2301909001544,None,1.0787915997207165,1352.3305935002863,None,1352.831292300485,None,1352.831292300485,None,r,0.5418214993551373,1352.831292300485,None,0.5418214993551373,,,81 Sing,001,2022_Nov_15_1633,ProdSingRedoBetween,2021.2.3,59.93744933188563,
,,,,64,0,64,0,,,,,,,,,,,,,,,,,,,,,,1356.267964700237,None,,,,,,,,,,,,,,,,,thing,7,65,sing,old,yellow,1353.9157907003537,None,1353.9157907003537,None,6,1.209484800696373,1353.9157907003537,None,1.209484800696373,1355.1512580001727,None,1355.6508533004671,None,1355.6508533004671,None,r,0.5942614991217852,1355.6508533004671,None,0.5942614991217852,,,81 Sing,001,2022_Nov_15_1633,ProdSingRedoBetween,2021.2.3,59.93744933188563,
,,,,65,0,65,0,,,,,,,,,,,,,,,,,,,,,,1359.790746100247,None,,,,,,,,,,,,,,,,,threat,40,66,sing,old,blue,1356.775289800018,None,1356.775289800018,None,6,1.5258283000439405,1356.775289800018,None,1.5258283000439405,1358.3207836998627,None,1358.8206016002223,None,1358.8206016002223,None,f,0.9445334002375603,1358.8206016002223,None,0.9445334002375603,,,81 Sing,001,2022_Nov_15_1633,ProdSingRedoBetween,2021.2.3,59.93744933188563,
,,,,66,0,66,0,,,,,,,,,,,,,,,,,,,,,,1362.874421400018,None,,,,,,,,,,,,,,,,,victory,120,67,sing,new,null,1360.3150086002424,None,1360.3150086002424,None,6,1.306130899116397,1360.3150086002424,None,1.306130899116397,1361.6451570997015,None,1362.1655256003141,None,1362.1655256003141,None,n,0.6877706004306674,1362.1655256003141,None,0.6877706004306674,,,81 Sing,001,2022_Nov_15_1633,ProdSingRedoBetween,2021.2.3,59.93744933188563,
,,,,67,0,67,0,,,,,,,,,,,,,,,,,,,,,,1366.27899469994,None,,,,,,,,,,,,,,,,,leader,14,68,sing,old,yellow,1363.3776385998353,None,1363.3776385998353,None,6,1.48344930075109,1363.3776385998353,None,1.48344930075109,1364.8799232998863,None,1365.4021755000576,None,1365.4021755000576,None,f,0.8590623000636697,1365.4021755000576,None,0.8590623000636697,,,81 Sing,001,2022_Nov_15_1633,ProdSingRedoBetween,2021.2.3,59.93744933188563,
,,,,68,0,68,0,,,,,,,,,,,,,,,,,,,,,,1369.88152469974,None,,,,,,,,,,,,,,,,,universal,18,69,sing,old,yellow,1366.784263299778,None,1366.784263299778,None,6,1.4526682998985052,1366.784263299778,None,1.4526682998985052,1368.2688137004152,None,1368.7803050996736,None,1368.7803050996736,None,r,1.0807696999982,1368.7803050996736,None,1.0807696999982,,,81 Sing,001,2022_Nov_15_1633,ProdSingRedoBetween,2021.2.3,59.93744933188563,
,,,,69,0,69,0,,,,,,,,,,,,,,,,,,,,,,1372.8511549998075,None,,,,,,,,,,,,,,,,,salary,102,70,sing,new,null,1370.3898603999987,None,1370.3898603999987,None,6,1.0632102005183697,1370.3898603999987,None,1.0632102005183697,1371.4864429002628,None,1372.0030196998268,None,1372.0030196998268,None,n,0.8261911002919078,1372.0030196998268,None,0.8261911002919078,,,81 Sing,001,2022_Nov_15_1633,ProdSingRedoBetween,2021.2.3,59.93744933188563,
,,,,70,0,70,0,,,,,,,,,,,,,,,,,,,,,,1375.7538390001282,None,,,,,,,,,,,,,,,,,short,72,71,sing,old,red,1373.3599143996835,None,1373.3599143996835,None,6,1.349069599993527,1373.3599143996835,None,1.349069599993527,1374.7374852001667,None,1375.2430357001722,None,1375.2430357001722,None,f,0.4900489002466202,1375.2430357001722,None,0.4900489002466202,,,81 Sing,001,2022_Nov_15_1633,ProdSingRedoBetween,2021.2.3,59.93744933188563,
,,,,71,0,71,0,,,,,,,,,,,,,,,,,,,,,,1379.073699399829,None,,,,,,,,,,,,,,,,,rapid,118,72,sing,new,null,1376.2585778003559,None,1376.2585778003559,None,6,1.074371999129653,1376.2585778003559,None,1.074371999129653,1377.3656662004068,None,1377.8728256002069,None,1377.8728256002069,None,f,1.1804077001288533,1377.8728256002069,None,1.1804077001288533,,,81 Sing,001,2022_Nov_15_1633,ProdSingRedoBetween,2021.2.3,59.93744933188563,
,,,,72,0,72,0,,,,,,,,,,,,,,,,,,,,,,1381.681376799941,None,,,,,,,,,,,,,,,,,engineer,48,73,sing,old,blue,1379.577525000088,None,1379.577525000088,None,6,1.1875738995149732,1379.577525000088,None,1.1875738995149732,1380.7941022999585,None,1381.3120146999136,None,1381.3120146999136,None,r,0.3489223998039961,1381.3120146999136,None,0.3489223998039961,,,81 Sing,001,2022_Nov_15_1633,ProdSingRedoBetween,2021.2.3,59.93744933188563,
,,,,73,0,73,0,,,,,,,,,,,,,,,,,,,,,,1384.4958899999037,None,,,,,,,,,,,,,,,,,dispute,44,74,sing,old,blue,1382.1946294000372,None,1382.1946294000372,None,6,1.330463300459087,1382.1946294000372,None,1.330463300459087,1383.5464984998107,None,1384.045797300525,None,1384.045797300525,None,r,0.4231142997741699,1384.045797300525,None,0.4231142997741699,,,81 Sing,001,2022_Nov_15_1633,ProdSingRedoBetween,2021.2.3,59.93744933188563,
,,,,74,0,74,0,,,,,,,,,,,,,,,,,,,,,,1388.4667124003172,None,,,,,,,,,,,,,,,,,exchange,106,75,sing,new,null,1385.0038459999487,None,1385.0038459999487,None,6,1.4652690002694726,1385.0038459999487,None,1.4652690002694726,1386.4993888000026,None,1387.0052564004436,None,1387.0052564004436,None,n,1.4399181008338928,1387.0052564004436,None,1.4399181008338928,,,81 Sing,001,2022_Nov_15_1633,ProdSingRedoBetween,2021.2.3,59.93744933188563,
,,,,75,0,75,0,,,,,,,,,,,,,,,,,,,,,,1391.386310200207,None,,,,,,,,,,,,,,,,,bitter,141,76,sing,new,null,1388.968050500378,None,1388.968050500378,None,6,1.1650243001058698,1388.968050500378,None,1.1650243001058698,1390.1528610996902,None,1390.6524210004136,None,1390.6524210004136,None,n,0.7046193005517125,1390.6524210004136,None,0.7046193005517125,,,81 Sing,001,2022_Nov_15_1633,ProdSingRedoBetween,2021.2.3,59.93744933188563,
,,,,76,0,76,0,,,,,,,,,,,,,,,,,,,,,,1395.9908018000424,None,,,,,,,,,,,,,,,,,empty,145,77,sing,new,null,1391.8902294998989,None,1391.8902294998989,None,6,1.0829520002007484,1391.8902294998989,None,1.0829520002007484,1392.989123900421,None,1393.4931121002883,None,1393.4931121002883,None,f,2.479830199852586,1393.4931121002883,None,2.479830199852586,,,81 Sing,001,2022_Nov_15_1633,ProdSingRedoBetween,2021.2.3,59.93744933188563,
,,,,77,0,77,0,,,,,,,,,,,,,,,,,,,,,,1398.7436071997508,None,,,,,,,,,,,,,,,,,light,169,78,sing,new,null,1396.5004414999858,None,1396.5004414999858,None,6,1.1365491999313235,1396.5004414999858,None,1.1365491999313235,1397.6603629998863,None,1398.1597960004583,None,1398.1597960004583,None,n,0.5653187008574605,1398.1597960004583,None,0.5653187008574605,,,81 Sing,001,2022_Nov_15_1633,ProdSingRedoBetween,2021.2.3,59.93744933188563,
,,,,78,0,78,0,,,,,,,,,,,,,,,,,,,,,,1401.881322500296,None,,,,,,,,,,,,,,,,,drama,119,79,sing,new,null,1399.2460614005104,None,1399.2460614005104,None,6,1.03900389932096,1399.2460614005104,None,1.03900389932096,1400.3185187000781,None,1400.832306000404,None,1400.832306000404,None,n,1.0288492999970913,1400.832306000404,None,1.0288492999970913,,,81 Sing,001,2022_Nov_15_1633,ProdSingRedoBetween,2021.2.3,59.93744933188563,
,,,,79,0,79,0,,,,,,,,,,,,,,,,,,,,,,1405.400346999988,None,,,,,,,,,,,,,,,,,congress,97,80,sing,new,null,1402.3853360004723,None,1402.3853360004723,None,6,1.1716978000476956,1402.3853360004723,None,1.1716978000476956,1403.5832556001842,None,1404.0889518000185,None,1404.0889518000185,None,n,1.292026000097394,1404.0889518000185,None,1.292026000097394,,,81 Sing,001,2022_Nov_15_1633,ProdSingRedoBetween,2021.2.3,59.93744933188563,
,,,,80,0,80,0,,,,,,,,,,,,,,,,,,,,,,1408.2198398998007,None,,,,,,,,,,,,,,,,,research,163,81,sing,new,null,1405.9157181996852,None,1405.9157181996852,None,6,1.1612670002505183,1405.9157181996852,None,1.1612670002505183,1407.1036598999053,None,1407.6191191002727,None,1407.6191191002727,None,f,0.5779122998937964,1407.6191191002727,None,0.5779122998937964,,,81 Sing,001,2022_Nov_15_1633,ProdSingRedoBetween,2021.2.3,59.93744933188563,
,,,,81,0,81,0,,,,,,,,,,,,,,,,,,,,,,1411.323425900191,None,,,,,,,,,,,,,,,,,pretty,123,82,sing,new,null,1408.7285687997937,None,1408.7285687997937,None,6,1.1323948996141553,1408.7285687997937,None,1.1323948996141553,1409.8891355004162,None,1410.3937480002642,None,1410.3937480002642,None,f,0.8991364995017648,1410.3937480002642,None,0.8991364995017648,,,81 Sing,001,2022_Nov_15_1633,ProdSingRedoBetween,2021.2.3,59.93744933188563,
,,,,82,0,82,0,,,,,,,,,,,,,,,,,,,,,,1413.9753010999411,None,,,,,,,,,,,,,,,,,message,69,83,sing,old,red,1411.8276823004708,None,1411.8276823004708,None,6,1.137249399907887,1411.8276823004708,None,1.137249399907887,1412.994186299853,None,1413.514003300108,None,1413.514003300108,None,r,0.44289940036833286,1413.514003300108,None,0.44289940036833286,,,81 Sing,001,2022_Nov_15_1633,ProdSingRedoBetween,2021.2.3,59.93744933188563,
,,,,83,0,83,0,,,,,,,,,,,,,,,,,,,,,,1417.6625254005194,None,,,,,,,,,,,,,,,,,running,108,84,sing,new,null,1414.4798204004765,None,1414.4798204004765,None,6,0.9091686001047492,1414.4798204004765,None,0.9091686001047492,1415.411231099628,None,1415.914828300476,None,1415.914828300476,None,f,1.7301000002771616,1415.914828300476,None,1.7301000002771616,,,81 Sing,001,2022_Nov_15_1633,ProdSingRedoBetween,2021.2.3,59.93744933188563,
,,,,84,0,84,0,,,,,,,,,,,,,,,,,,,,,,1420.4820260005072,None,,,,,,,,,,,,,,,,,estate,38,85,sing,old,blue,1418.1677815001458,None,1418.1677815001458,None,6,0.9571762997657061,1418.1677815001458,None,0.9571762997657061,1419.1486352002248,None,1419.6480144998059,None,1419.6480144998059,None,r,0.8050373001024127,1419.6480144998059,None,0.8050373001024127,,,81 Sing,001,2022_Nov_15_1633,ProdSingRedoBetween,2021.2.3,59.93744933188563,
,,,,85,0,85,0,,,,,,,,,,,,,,,,,,,,,,1423.5683935005218,None,,,,,,,,,,,,,,,,,group,81,86,sing,old,red,1420.9951333999634,None,1420.9951333999634,None,6,1.633831599727273,1420.9951333999634,None,1.633831599727273,1422.6529259001836,None,1423.1708068996668,None,1423.1708068996668,None,r,0.37012500036507845,1423.1708068996668,None,0.37012500036507845,,,81 Sing,001,2022_Nov_15_1633,ProdSingRedoBetween,2021.2.3,59.93744933188563,
,,,,86,0,86,0,,,,,,,,,,,,,,,,,,,,,,1426.4212135998532,None,,,,,,,,,,,,,,,,,express,103,87,sing,new,null,1424.082978900522,None,1424.082978900522,None,6,1.0579857006669044,1424.082978900522,None,1.0579857006669044,1425.171270799823,None,1425.6735517997295,None,1425.6735517997295,None,n,0.7232873998582363,1425.6735517997295,None,0.7232873998582363,,,81 Sing,001,2022_Nov_15_1633,ProdSingRedoBetween,2021.2.3,59.93744933188563,
,,,,87,0,87,0,,,,,,,,,,,,,,,,,,,,,,1429.5584281999618,None,,,,,,,,,,,,,,,,,colonel,67,88,sing,old,red,1426.931158799678,None,1426.931158799678,None,6,1.1058442005887628,1426.931158799678,None,1.1058442005887628,1428.0607089996338,None,1428.5777476998046,None,1428.5777476998046,None,r,0.9632154004648328,1428.5777476998046,None,0.9632154004648328,,,81 Sing,001,2022_Nov_15_1633,ProdSingRedoBetween,2021.2.3,59.93744933188563,
,,,,88,0,88,0,,,,,,,,,,,,,,,,,,,,,,1432.961067000404,None,,,,,,,,,,,,,,,,,track,31,89,sing,old,blue,1430.0659113004804,None,1430.0659113004804,None,6,1.2190362997353077,1430.0659113004804,None,1.2190362997353077,1431.3109403001145,None,1431.8132533002645,None,1431.8132533002645,None,f,1.1276826998218894,1431.8132533002645,None,1.1276826998218894,,,81 Sing,001,2022_Nov_15_1633,ProdSingRedoBetween,2021.2.3,59.93744933188563,
,,,,89,0,89,0,,,,,,,,,,,,,,,,,,,,,,1436.3644586000592,None,,,,,,,,,,,,,,,,,household,61,90,sing,old,red,1433.4726317999884,None,1433.4726317999884,None,6,1.7962567005306482,1433.4726317999884,None,1.7962567005306482,1435.298596699722,None,1435.8140142997727,None,1435.8140142997727,None,r,0.526974399574101,1435.8140142997727,None,0.526974399574101,,,81 Sing,001,2022_Nov_15_1633,ProdSingRedoBetween,2021.2.3,59.93744933188563,
,,,,90,0,90,0,,,,,,,,,,,,,,,,,,,,,,1438.716869099997,None,,,,,,,,,,,,,,,,,youth,109,91,sing,new,null,1436.8665086999536,None,1436.8665086999536,None,6,0.9624434998258948,1436.8665086999536,None,0.9624434998258948,1437.850224699825,None,1438.3499469002709,None,1438.3499469002709,None,f,0.34300459921360016,1438.3499469002709,None,0.34300459921360016,,,81 Sing,001,2022_Nov_15_1633,ProdSingRedoBetween,2021.2.3,59.93744933188563,
,,,,91,0,91,0,,,,,,,,,,,,,,,,,,,,,,1441.1522607002407,None,,,,,,,,,,,,,,,,,court,35,92,sing,old,blue,1439.2187729999423,None,1439.2187729999423,None,6,0.8740416998043656,1439.2187729999423,None,0.8740416998043656,1440.1230723997578,None,1440.6355635002255,None,1440.6355635002255,None,r,0.4973492994904518,1440.6355635002255,None,0.4973492994904518,,,81 Sing,001,2022_Nov_15_1633,ProdSingRedoBetween,2021.2.3,59.93744933188563,
,,,,92,0,92,0,,,,,,,,,,,,,,,,,,,,,,1444.2390585998073,None,,,,,,,,,,,,,,,,,partner,152,93,sing,new,null,1441.6567134996876,None,1441.6567134996876,None,6,1.0522640999406576,1441.6567134996876,None,1.0522640999406576,1442.7386304000393,None,1443.2438569003716,None,1443.2438569003716,None,n,0.9689966002479196,1443.2438569003716,None,0.9689966002479196,,,81 Sing,001,2022_Nov_15_1633,ProdSingRedoBetween,2021.2.3,59.93744933188563,
,,,,93,0,93,0,,,,,,,,,,,,,,,,,,,,,,1446.7930811000988,None,,,,,,,,,,,,,,,,,state,111,94,sing,new,null,1444.7393322996795,None,1444.7393322996795,None,6,1.0256402995437384,1444.7393322996795,None,1.0256402995437384,1445.7978410003707,None,1446.3113192999735,None,1446.3113192999735,None,r,0.45357990078628063,1446.3113192999735,None,0.45357990078628063,,,81 Sing,001,2022_Nov_15_1633,ProdSingRedoBetween,2021.2.3,59.93744933188563,
,,,,94,0,94,0,,,,,,,,,,,,,,,,,,,,,,1449.4608768001199,None,,,,,,,,,,,,,,,,,question,174,95,sing,new,null,1447.3113884003833,None,1447.3113884003833,None,6,1.053609499707818,1447.3113884003833,None,1.053609499707818,1448.3991783997044,None,1448.9104756005108,None,1448.9104756005108,None,f,0.534506100229919,1448.9104756005108,None,0.534506100229919,,,81 Sing,001,2022_Nov_15_1633,ProdSingRedoBetween,2021.2.3,59.93744933188563,
,,,,95,0,95,0,,,,,,,,,,,,,,,,,,,,,,1453.7148796999827,None,,,,,,,,,,,,,,,,,article,82,96,sing,old,red,1449.9652142003179,None,1449.9652142003179,None,6,1.2157134003937244,1449.9652142003179,None,1.2157134003937244,1451.1970114996657,None,1451.6990207005292,None,1451.6990207005292,None,f,1.993886100128293,1451.6990207005292,None,1.993886100128293,,,81 Sing,001,2022_Nov_15_1633,ProdSingRedoBetween,2021.2.3,59.93744933188563,
,,,,96,0,96,0,,,,,,,,,,,,,,,,,,,,,,1456.9850780004635,None,,,,,,,,,,,,,,,,,broad,112,97,sing,new,null,1454.2246391996741,None,1454.2246391996741,None,6,1.0763475000858307,1454.2246391996741,None,1.0763475000858307,1455.3193787997589,None,1455.837347799912,None,1455.837347799912,None,n,1.1195626994594932,1455.837347799912,None,1.1195626994594932,,,81 Sing,001,2022_Nov_15_1633,ProdSingRedoBetween,2021.2.3,59.93744933188563,
,,,,97,0,97,0,,,,,,,,,,,,,,,,,,,,,,1459.2879683999345,None,,,,,,,,,,,,,,,,,history,11,98,sing,old,yellow,1457.496497400105,None,1457.496497400105,None,6,0.9164406005293131,1457.496497400105,None,0.9164406005293131,1458.4379011001438,None,1458.9420830002055,None,1458.9420830002055,None,r,0.31880669947713614,1458.9420830002055,None,0.31880669947713614,,,81 Sing,001,2022_Nov_15_1633,ProdSingRedoBetween,2021.2.3,59.93744933188563,
,,,,98,0,98,0,,,,,,,,,,,,,,,,,,,,,,1461.808341300115,None,,,,,,,,,,,,,,,,,raise,99,99,sing,new,null,1459.791140800342,None,1459.791140800342,None,6,0.997774500399828,1459.791140800342,None,0.997774500399828,1460.8093439005315,None,1461.3228476997465,None,1461.3228476997465,None,f,0.4581873007118702,1461.3228476997465,None,0.4581873007118702,,,81 Sing,001,2022_Nov_15_1633,ProdSingRedoBetween,2021.2.3,59.93744933188563,
,,,,99,0,99,0,,,,,,,,,,,,,,,,,,,,,,1464.6594101004303,None,,,,,,,,,,,,,,,,,science,156,100,sing,new,null,1462.3364057000726,None,1462.3364057000726,None,6,0.9083604998886585,1462.3364057000726,None,0.9083604998886585,1463.2772818999365,None,1463.7918432001024,None,1463.7918432001024,None,f,0.8370961993932724,1463.7918432001024,None,0.8370961993932724,,,81 Sing,001,2022_Nov_15_1633,ProdSingRedoBetween,2021.2.3,59.93744933188563,
,,,,100,0,100,0,,,,,,,,,,,,,,,,,,,,,,1467.5991083001718,None,,,,,,,,,,,,,,,,,point,155,101,sing,new,null,1465.1695838999003,None,1465.1695838999003,None,6,1.1556861996650696,1465.1695838999003,None,1.1556861996650696,1466.3531729001552,None,1466.8638736000285,None,1466.8638736000285,None,f,0.7091255001723766,1466.8638736000285,None,0.7091255001723766,,,81 Sing,001,2022_Nov_15_1633,ProdSingRedoBetween,2021.2.3,59.93744933188563,
,,,,101,0,101,0,,,,,,,,,,,,,,,,,,,,,,1469.681101700291,None,,,,,,,,,,,,,,,,,military,63,102,sing,old,red,1468.1241035005078,None,1468.1241035005078,None,6,0.6809975998476148,1468.1241035005078,None,0.6809975998476148,1468.8339843004942,None,1469.3531403001398,None,1469.3531403001398,None,r,0.3077500993385911,1469.3531403001398,None,0.3077500993385911,,,81 Sing,001,2022_Nov_15_1633,ProdSingRedoBetween,2021.2.3,59.93744933188563,
,,,,102,0,102,0,,,,,,,,,,,,,,,,,,,,,,1472.6673884997144,None,,,,,,,,,,,,,,,,,space,90,103,sing,new,null,1470.1920288000256,None,1470.1920288000256,None,6,0.6529013002291322,1470.1920288000256,None,0.6529013002291322,1470.87293520011,None,1471.3829143000767,None,1471.3829143000767,None,r,1.2539681000635028,1471.3829143000767,None,1.2539681000635028,,,81 Sing,001,2022_Nov_15_1633,ProdSingRedoBetween,2021.2.3,59.93744933188563,
,,,,103,0,103,0,,,,,,,,,,,,,,,,,,,,,,1475.6536640003324,None,,,,,,,,,,,,,,,,,theme,78,104,sing,old,red,1473.1792588997632,None,1473.1792588997632,None,6,1.217649900354445,1473.1792588997632,None,1.217649900354445,1474.4217926999554,None,1474.9390928000212,None,1474.9390928000212,None,f,0.6979261999949813,1474.9390928000212,None,0.6979261999949813,,,81 Sing,001,2022_Nov_15_1633,ProdSingRedoBetween,2021.2.3,59.93744933188563,
,,,,104,0,104,0,,,,,,,,,,,,,,,,,,,,,,1478.2060857005417,None,,,,,,,,,,,,,,,,,audience,84,105,sing,old,red,1476.1545128999278,None,1476.1545128999278,None,6,1.2183569995686412,1476.1545128999278,None,1.2183569995686412,1477.39050410036,None,1477.9060572003946,None,1477.9060572003946,None,r,0.27493140008300543,1477.9060572003946,None,0.27493140008300543,,,81 Sing,001,2022_Nov_15_1633,ProdSingRedoBetween,2021.2.3,59.93744933188563,
,,,,105,0,105,0,,,,,,,,,,,,,,,,,,,,,,1480.6416268004104,None,,,,,,,,,,,,,,,,,session,55,106,sing,old,blue,1478.7172653004527,None,1478.7172653004527,None,6,0.9916874999180436,1478.7172653004527,None,0.9916874999180436,1479.7274579005316,None,1480.2439724002033,None,1480.2439724002033,None,r,0.376813099719584,1480.2439724002033,None,0.376813099719584,,,81 Sing,001,2022_Nov_15_1633,ProdSingRedoBetween,2021.2.3,59.93744933188563,
,,,,106,0,106,0,,,,,,,,,,,,,,,,,,,,,,1483.4198711002246,None,,,,,,,,,,,,,,,,,orchestra,20,107,sing,old,yellow,1481.1529480004683,None,1481.1529480004683,None,6,1.0520115001127124,1481.1529480004683,None,1.0520115001127124,1482.2338958000764,None,1482.7471390999854,None,1482.7471390999854,None,r,0.6336259003728628,1482.7471390999854,None,0.6336259003728628,,,81 Sing,001,2022_Nov_15_1633,ProdSingRedoBetween,2021.2.3,59.93744933188563,
,,,,107,0,107,0,,,,,,,,,,,,,,,,,,,,,,1485.9638147996739,None,,,,,,,,,,,,,,,,,review,131,108,sing,new,null,1483.9389056004584,None,1483.9389056004584,None,6,0.5940047996118665,1483.9389056004584,None,0.5940047996118665,1484.5695938998833,None,1485.083056899719,None,1485.083056899719,None,n,0.8578147003427148,1485.083056899719,None,0.8578147003427148,,,81 Sing,001,2022_Nov_15_1633,ProdSingRedoBetween,2021.2.3,59.93744933188563,
,,,,108,0,108,0,,,,,,,,,,,,,,,,,,,,,,1488.6667579999194,None,,,,,,,,,,,,,,,,,author,146,109,sing,new,null,1486.4724933002144,None,1486.4724933002144,None,6,1.0442689005285501,1486.4724933002144,None,1.0442689005285501,1487.5322414003313,None,1488.0328476000577,None,1488.0328476000577,None,n,0.6040475005283952,1488.0328476000577,None,0.6040475005283952,,,81 Sing,001,2022_Nov_15_1633,ProdSingRedoBetween,2021.2.3,59.93744933188563,
,,,,109,0,109,0,,,,,,,,,,,,,,,,,,,,,,1490.9372068997473,None,,,,,,,,,,,,,,,,,vision,33,110,sing,old,blue,1489.1786489002407,None,1489.1786489002407,None,6,0.9221663996577263,1489.1786489002407,None,0.9221663996577263,1490.1270668003708,None,1490.6354213999584,None,1490.6354213999584,None,r,0.27342879958450794,1490.6354213999584,None,0.27342879958450794,,,81 Sing,001,2022_Nov_15_1633,ProdSingRedoBetween,2021.2.3,59.93744933188563,
,,,,110,0,110,0,,,,,,,,,,,,,,,,,,,,,,1493.638096000068,None,,,,,,,,,,,,,,,,,patient,124,111,sing,new,null,1491.4550283001736,None,1491.4550283001736,None,6,0.8939081998541951,1491.4550283001736,None,0.8939081998541951,1492.3722433000803,None,1492.8877213001251,None,1492.8877213001251,None,f,0.7251105001196265,1492.8877213001251,None,0.7251105001196265,,,81 Sing,001,2022_Nov_15_1633,ProdSingRedoBetween,2021.2.3,59.93744933188563,
,,,,111,0,111,0,,,,,,,,,,,,,,,,,,,,,,1496.175000499934,None,,,,,,,,,,,,,,,,,whole,157,112,sing,new,null,1494.152682600543,None,1494.152682600543,None,6,0.7641540998592973,1494.152682600543,None,0.7641540998592973,1494.9430127004161,None,1495.456903300248,None,1495.456903300248,None,f,0.6919867005199194,1495.456903300248,None,0.6919867005199194,,,81 Sing,001,2022_Nov_15_1633,ProdSingRedoBetween,2021.2.3,59.93744933188563,
,,,,112,0,112,0,,,,,,,,,,,,,,,,,,,,,,1498.276274899952,None,,,,,,,,,,,,,,,,,silence,134,113,sing,new,null,1496.6891630999744,None,1496.6891630999744,None,6,0.7878783997148275,1496.6891630999744,None,0.7878783997148275,1497.4955294001848,None,1498.0093306005,None,1498.0093306005,None,f,0.24351990036666393,1498.0093306005,None,0.24351990036666393,,,81 Sing,001,2022_Nov_15_1633,ProdSingRedoBetween,2021.2.3,59.93744933188563,
,,,,113,0,113,0,,,,,,,,,,,,,,,,,,,,,,1500.379499300383,None,,,,,,,,,,,,,,,,,order,10,114,sing,old,yellow,1498.77851369977,None,1498.77851369977,None,6,0.7703050998970866,1498.77851369977,None,0.7703050998970866,1499.5976945003495,None,1500.1113887997344,None,1500.1113887997344,None,r,0.2375377994030714,1500.1113887997344,None,0.2375377994030714,,,81 Sing,001,2022_Nov_15_1633,ProdSingRedoBetween,2021.2.3,59.93744933188563,
,,,,114,0,114,0,,,,,,,,,,,,,,,,,,,,,,1502.547369199805,None,,,,,,,,,,,,,,,,,store,62,115,sing,old,red,1500.8870959002525,None,1500.8870959002525,None,6,0.7737201992422342,1500.8870959002525,None,0.7737201992422342,1501.6887557003647,None,1502.1966444002464,None,1502.1966444002464,None,r,0.3200846007093787,1502.1966444002464,None,0.3200846007093787,,,81 Sing,001,2022_Nov_15_1633,ProdSingRedoBetween,2021.2.3,59.93744933188563,
,,,,115,0,115,0,,,,,,,,,,,,,,,,,,,,,,1504.852753999643,None,,,,,,,,,,,,,,,,,figure,162,116,sing,new,null,1503.0550647005439,None,1503.0550647005439,None,6,0.6217460995540023,1503.0550647005439,None,0.6217460995540023,1503.7027671998367,None,1504.215403799899,None,1504.215403799899,None,n,0.6133095994591713,1504.215403799899,None,0.6133095994591713,,,81 Sing,001,2022_Nov_15_1633,ProdSingRedoBetween,2021.2.3,59.93744933188563,
,,,,116,0,116,0,,,,,,,,,,,,,,,,,,,,,,1507.9202939998358,None,,,,,,,,,,,,,,,,,speech,27,117,sing,old,yellow,1505.3752808002755,None,1505.3752808002755,None,6,1.3015729999169707,1505.3752808002755,None,1.3015729999169707,1506.7073307996616,None,1507.2186446003616,None,1507.2186446003616,None,r,0.6822138000279665,1507.2186446003616,None,0.6822138000279665,,,81 Sing,001,2022_Nov_15_1633,ProdSingRedoBetween,2021.2.3,59.93744933188563,
,,,,117,0,117,0,,,,,,,,,,,,,,,,,,,,,,1510.8230405002832,None,,,,,,,,,,,,,,,,,notice,23,118,sing,old,yellow,1508.4250737000257,None,1508.4250737000257,None,6,1.1159391002729535,1508.4250737000257,None,1.1159391002729535,1509.5766860004514,None,1510.0929421000183,None,1510.0929421000183,None,f,0.7038746997714043,1510.0929421000183,None,0.7038746997714043,,,81 Sing,001,2022_Nov_15_1633,ProdSingRedoBetween,2021.2.3,59.93744933188563,
,,,,118,0,118,0,,,,,,,,,,,,,,,,,,,,,,1513.2078491002321,None,,,,,,,,,,,,,,,,,column,86,119,sing,old,red,1511.3339694002643,None,1511.3339694002643,None,6,0.8948601996526122,1511.3339694002643,None,0.8948601996526122,1512.2594239003956,None,1512.77416620031,None,1512.77416620031,None,r,0.4147327998653054,1512.77416620031,None,0.4147327998653054,,,81 Sing,001,2022_Nov_15_1633,ProdSingRedoBetween,2021.2.3,59.93744933188563,
,,,,119,0,119,0,,,,,,,,,,,,,,,,,,,,,,1515.5608031004667,None,,,,,,,,,,,,,,,,,welcome,19,120,sing,old,yellow,1513.7082475004718,None,1513.7082475004718,None,6,0.7046558000147343,1513.7082475004718,None,0.7046558000147343,1514.4453034996986,None,1514.959717700258,None,1514.959717700258,None,r,0.5731062991544604,1514.959717700258,None,0.5731062991544604,,,81 Sing,001,2022_Nov_15_1633,ProdSingRedoBetween,2021.2.3,59.93744933188563,
,,,,120,0,120,0,,,,,,,,,,,,,,,,,,,,,,1519.9143733000383,None,,,,,,,,,,,,,,,,,distance,36,121,sing,old,blue,1516.069615200162,None,1516.069615200162,None,6,0.9272146001458168,1516.069615200162,None,0.9272146001458168,1517.017933299765,None,1517.5328938001767,None,1517.5328938001767,None,f,2.3598860995844007,1517.5328938001767,None,2.3598860995844007,,,81 Sing,001,2022_Nov_15_1633,ProdSingRedoBetween,2021.2.3,59.93744933188563,
,,,,121,0,121,0,,,,,,,,,,,,,,,,,,,,,,1522.3000071998686,None,,,,,,,,,,,,,,,,,thick,88,122,sing,old,red,1520.4202805003151,None,1520.4202805003151,None,6,1.0005240999162197,1520.4202805003151,None,1.0005240999162197,1521.4526559002697,None,1521.9722100002691,None,1521.9722100002691,None,f,0.29662009980529547,1521.9722100002691,None,0.29662009980529547,,,81 Sing,001,2022_Nov_15_1633,ProdSingRedoBetween,2021.2.3,59.93744933188563,
,,,,122,0,122,0,,,,,,,,,,,,,,,,,,,,,,1524.4690931998193,None,,,,,,,,,,,,,,,,,goose,43,123,sing,old,blue,1522.8116806996986,None,1522.8116806996986,None,6,0.833110399544239,1522.8116806996986,None,0.833110399544239,1523.6715547004715,None,1524.1855437001213,None,1524.1855437001213,None,r,0.267166200093925,1524.1855437001213,None,0.267166200093925,,,81 Sing,001,2022_Nov_15_1633,ProdSingRedoBetween,2021.2.3,59.93744933188563,
,,,,123,0,123,0,,,,,,,,,,,,,,,,,,,,,,1526.904813000001,None,,,,,,,,,,,,,,,,,production,154,124,sing,new,null,1524.9788579996675,None,1524.9788579996675,None,6,0.7378705004230142,1524.9788579996675,None,0.7378705004230142,1525.7389233997092,None,1526.2546749999747,None,1526.2546749999747,None,f,0.6301154000684619,1526.2546749999747,None,0.6301154000684619,,,81 Sing,001,2022_Nov_15_1633,ProdSingRedoBetween,2021.2.3,59.93744933188563,
,,,,124,0,124,0,,,,,,,,,,,,,,,,,,,,,,1529.143407500349,None,,,,,,,,,,,,,,,,,incident,37,125,sing,old,blue,1527.4071283005178,None,1527.4071283005178,None,6,0.8936924999579787,1527.4071283005178,None,0.8936924999579787,1528.324132299982,None,1528.825811800547,None,1528.825811800547,None,r,0.29903759993612766,1528.825811800547,None,0.29903759993612766,,,81 Sing,001,2022_Nov_15_1633,ProdSingRedoBetween,2021.2.3,59.93744933188563,
,,,,125,0,125,0,,,,,,,,,,,,,,,,,,,,,,1533.2945200996473,None,,,,,,,,,,,,,,,,,citizen,147,126,sing,new,null,1529.6649460997432,None,1529.6649460997432,None,6,0.7158107999712229,1529.6649460997432,None,0.7158107999712229,1530.4111264999956,None,1530.9295680001378,None,1530.9295680001378,None,f,2.3471480002626777,1530.9295680001378,None,2.3471480002626777,,,81 Sing,001,2022_Nov_15_1633,ProdSingRedoBetween,2021.2.3,59.93744933188563,
,,,,126,0,126,0,,,,,,,,,,,,,,,,,,,,,,1535.8971237996593,None,,,,,,,,,,,,,,,,,pressure,8,127,sing,old,yellow,1533.7985680000857,None,1533.7985680000857,None,6,1.2381490003317595,1533.7985680000857,None,1.2381490003317595,1535.0649647004902,None,1535.5802001003176,None,1535.5802001003176,None,r,0.2965762997046113,1535.5802001003176,None,0.2965762997046113,,,81 Sing,001,2022_Nov_15_1633,ProdSingRedoBetween,2021.2.3,59.93744933188563,
,,,,127,0,127,0,,,,,,,,,,,,,,,,,,,,,,1539.5507508004084,None,,,,,,,,,,,,,,,,,produce,142,128,sing,new,null,1536.3985898997635,None,1536.3985898997635,None,6,0.9103276999667287,1536.3985898997635,None,0.9103276999667287,1537.3409898998216,None,1537.8548157000914,None,1537.8548157000914,None,f,1.6779443006962538,1537.8548157000914,None,1.6779443006962538,,,81 Sing,001,2022_Nov_15_1633,ProdSingRedoBetween,2021.2.3,59.93744933188563,
,,,,128,0,128,0,,,,,,,,,,,,,,,,,,,,,,1543.037577399984,None,,,,,,,,,,,,,,,,,appearance,139,129,sing,new,null,1540.0549266999587,None,1540.0549266999587,None,6,1.5498366998508573,1540.0549266999587,None,1.5498366998508573,1541.6224939003587,None,1542.141524700448,None,1542.141524700448,None,f,0.8791963001713157,1542.141524700448,None,0.8791963001713157,,,81 Sing,001,2022_Nov_15_1633,ProdSingRedoBetween,2021.2.3,59.93744933188563,
,,,,129,0,129,0,,,,,,,,,,,,,,,,,,,,,,1545.5446135997772,None,,,,,,,,,,,,,,,,,touch,1,130,sing,old,yellow,1543.546922300011,None,1543.546922300011,None,6,0.7858818005770445,1543.546922300011,None,0.7858818005770445,1544.3556134998798,None,1544.8673929003999,None,1544.8673929003999,None,f,0.6495778998360038,1544.8673929003999,None,0.6495778998360038,,,81 Sing,001,2022_Nov_15_1633,ProdSingRedoBetween,2021.2.3,59.93744933188563,
,,,,130,0,130,0,,,,,,,,,,,,,,,,,,,,,,1549.2771362997591,None,,,,,,,,,,,,,,,,,stranger,133,131,sing,new,null,1546.0594648001716,None,1546.0594648001716,None,6,1.0652243001386523,1546.0594648001716,None,1.0652243001386523,1547.1453146003187,None,1547.6589603004977,None,1547.6589603004977,None,n,1.6018807999789715,1547.6589603004977,None,1.6018807999789715,,,81 Sing,001,2022_Nov_15_1633,ProdSingRedoBetween,2021.2.3,59.93744933188563,
,,,,131,0,131,0,,,,,,,,,,,,,,,,,,,,,,1551.8640256002545,None,,,,,,,,,,,,,,,,,society,0,132,sing,old,yellow,1549.786902599968,None,1549.786902599968,None,6,1.0578185999765992,1549.786902599968,None,1.0578185999765992,1550.8687338996679,None,1551.385931899771,None,1551.385931899771,None,r,0.45879040006548166,1551.385931899771,None,0.45879040006548166,,,81 Sing,001,2022_Nov_15_1633,ProdSingRedoBetween,2021.2.3,59.93744933188563,
,,,,132,0,132,0,,,,,,,,,,,,,,,,,,,,,,1554.8660979000852,None,,,,,,,,,,,,,,,,,evidence,85,133,sing,old,red,1552.38151570037,None,1552.38151570037,None,6,1.1511274995282292,1552.38151570037,None,1.1511274995282292,1553.547973100096,None,1554.054783700034,None,1554.054783700034,None,r,0.789941200055182,1554.054783700034,None,0.789941200055182,,,81 Sing,001,2022_Nov_15_1633,ProdSingRedoBetween,2021.2.3,59.93744933188563,
,,,,133,0,133,0,,,,,,,,,,,,,,,,,,,,,,1557.2350741997361,None,,,,,,,,,,,,,,,,,subject,136,134,sing,new,null,1555.3668165002018,None,1555.3668165002018,None,6,1.045958500355482,1555.3668165002018,None,1.045958500355482,1556.437439000234,None,1556.951543400064,None,1556.951543400064,None,f,0.26117580011487007,1556.951543400064,None,0.26117580011487007,,,81 Sing,001,2022_Nov_15_1633,ProdSingRedoBetween,2021.2.3,59.93744933188563,
,,,,134,0,134,0,,,,,,,,,,,,,,,,,,,,,,1559.3209742000327,None,,,,,,,,,,,,,,,,,corner,93,135,sing,new,null,1557.7423106003553,None,1557.7423106003553,None,6,0.6943156002089381,1557.7423106003553,None,0.6943156002089381,1558.4555240003392,None,1558.970412099734,None,1558.970412099734,None,n,0.33020179998129606,1558.970412099734,None,0.33020179998129606,,,81 Sing,001,2022_Nov_15_1633,ProdSingRedoBetween,2021.2.3,59.93744933188563,
,,,,135,0,135,0,,,,,,,,,,,,,,,,,,,,,,1561.5890731997788,None,,,,,,,,,,,,,,,,,permit,66,136,sing,old,red,1559.8315671002492,None,1559.8315671002492,None,6,0.957179400138557,1559.8315671002492,None,0.957179400138557,1560.8064726004377,None,1561.311972300522,None,1561.311972300522,None,f,0.2527910005301237,1561.311972300522,None,0.2527910005301237,,,81 Sing,001,2022_Nov_15_1633,ProdSingRedoBetween,2021.2.3,59.93744933188563,
,,,,136,0,136,0,,,,,,,,,,,,,,,,,,,,,,1565.615649299696,None,,,,,,,,,,,,,,,,,education,130,137,sing,new,null,1562.0901207998395,None,1562.0901207998395,None,6,1.4825387001037598,1562.0901207998395,None,1.4825387001037598,1563.5999277001247,None,1564.1088294005021,None,1564.1088294005021,None,n,1.471909299492836,1564.1088294005021,None,1.471909299492836,,,81 Sing,001,2022_Nov_15_1633,ProdSingRedoBetween,2021.2.3,59.93744933188563,
,,,,137,0,137,0,,,,,,,,,,,,,,,,,,,,,,1568.0958633003756,None,,,,,,,,,,,,,,,,,individual,149,138,sing,new,null,1566.1387358000502,None,1566.1387358000502,None,6,1.0259841997176409,1566.1387358000502,None,1.0259841997176409,1567.1953001003712,None,1567.7056716000661,None,1567.7056716000661,None,n,0.3629928007721901,1567.7056716000661,None,0.3629928007721901,,,81 Sing,001,2022_Nov_15_1633,ProdSingRedoBetween,2021.2.3,59.93744933188563,
,,,,138,0,138,0,,,,,,,,,,,,,,,,,,,,,,1571.3656988004223,None,,,,,,,,,,,,,,,,,spoke,164,139,sing,new,null,1568.6045094998553,None,1568.6045094998553,None,6,1.4803702998906374,1568.6045094998553,None,1.4803702998906374,1570.116869499907,None,1570.6341666998342,None,1570.6341666998342,None,f,0.7065345998853445,1570.6341666998342,None,0.7065345998853445,,,81 Sing,001,2022_Nov_15_1633,ProdSingRedoBetween,2021.2.3,59.93744933188563,
,,,,139,0,139,0,,,,,,,,,,,,,,,,,,,,,,1573.886357200332,None,,,,,,,,,,,,,,,,,clear,64,140,sing,old,red,1571.8688513999805,None,1571.8688513999805,None,6,1.1360593000426888,1571.8688513999805,None,1.1360593000426888,1573.0423889001831,None,1573.5514470003545,None,1573.5514470003545,None,r,0.3172624995931983,1573.5514470003545,None,0.3172624995931983,,,81 Sing,001,2022_Nov_15_1633,ProdSingRedoBetween,2021.2.3,59.93744933188563,
,,,,140,0,140,0,,,,,,,,,,,,,,,,,,,,,,1576.4598228000104,None,,,,,,,,,,,,,,,,,instrument,59,141,sing,old,yellow,1574.3889581002295,None,1574.3889581002295,None,6,1.1997907999902964,1574.3889581002295,None,1.1997907999902964,1575.6230036998168,None,1576.143140300177,None,1576.143140300177,None,f,0.2857106998562813,1576.143140300177,None,0.2857106998562813,,,81 Sing,001,2022_Nov_15_1633,ProdSingRedoBetween,2021.2.3,59.93744933188563,
,,,,141,0,141,0,,,,,,,,,,,,,,,,,,,,,,1578.5396937001497,None,,,,,,,,,,,,,,,,,growth,153,142,sing,new,null,1576.9820114998147,None,1576.9820114998147,None,6,0.7506897998973727,1576.9820114998147,None,0.7506897998973727,1577.7565496005118,None,1578.2560098003596,None,1578.2560098003596,None,f,0.26861209981143475,1578.2560098003596,None,0.26861209981143475,,,81 Sing,001,2022_Nov_15_1633,ProdSingRedoBetween,2021.2.3,59.93744933188563,
,,,,142,0,142,0,,,,,,,,,,,,,,,,,,,,,,1580.6416980996728,None,,,,,,,,,,,,,,,,,charter,92,143,sing,new,null,1579.0401846002787,None,1579.0401846002787,None,6,0.8206275003030896,1579.0401846002787,None,0.8206275003030896,1579.8988838000223,None,1580.4096216997132,None,1580.4096216997132,None,n,0.21104850061237812,1580.4096216997132,None,0.21104850061237812,,,81 Sing,001,2022_Nov_15_1633,ProdSingRedoBetween,2021.2.3,59.93744933188563,
,,,,143,0,143,0,,,,,,,,,,,,,,,,,,,,,,1582.8617171999067,None,,,,,,,,,,,,,,,,,equipment,171,144,sing,new,null,1581.1540486998856,None,1581.1540486998856,None,6,0.8748073996976018,1581.1540486998856,None,0.8748073996976018,1582.070261100307,None,1582.5812381999567,None,1582.5812381999567,None,f,0.2555737001821399,1582.5812381999567,None,0.2555737001821399,,,81 Sing,001,2022_Nov_15_1633,ProdSingRedoBetween,2021.2.3,59.93744933188563,
,,,,144,0,144,0,,,,,,,,,,,,,,,,,,,,,,1585.746611500159,None,,,,,,,,,,,,,,,,,motion,122,145,sing,new,null,1583.3611591998488,None,1583.3611591998488,None,6,0.875543899834156,1583.3611591998488,None,0.875543899834156,1584.2648040996864,None,1584.7824381999671,None,1584.7824381999671,None,n,0.9422334004193544,1584.7824381999671,None,0.9422334004193544,,,81 Sing,001,2022_Nov_15_1633,ProdSingRedoBetween,2021.2.3,59.93744933188563,
,,,,145,0,145,0,,,,,,,,,,,,,,,,,,,,,,1588.6496614003554,None,,,,,,,,,,,,,,,,,breath,177,146,sing,new,null,1586.257691300474,None,1586.257691300474,None,6,1.2589477002620697,1586.257691300474,None,1.2589477002620697,1587.5346119999886,None,1588.0492182001472,None,1588.0492182001472,None,f,0.5715422006323934,1588.0492182001472,None,0.5715422006323934,,,81 Sing,001,2022_Nov_15_1633,ProdSingRedoBetween,2021.2.3,59.93744933188563,
,,,,146,0,146,0,,,,,,,,,,,,,,,,,,,,,,1591.0020714998245,None,,,,,,,,,,,,,,,,,brilliant,175,147,sing,new,null,1589.1599476998672,None,1589.1599476998672,None,6,0.940705900080502,1589.1599476998672,None,0.940705900080502,1590.1210537003353,None,1590.6370739005506,None,1590.6370739005506,None,n,0.34360949974507093,1590.6370739005506,None,0.34360949974507093,,,81 Sing,001,2022_Nov_15_1633,ProdSingRedoBetween,2021.2.3,59.93744933188563,
,,,,147,0,147,0,,,,,,,,,,,,,,,,,,,,,,1593.704483100213,None,,,,,,,,,,,,,,,,,defeat,54,148,sing,old,blue,1591.5157091999426,None,1591.5157091999426,None,6,1.056857199408114,1591.5157091999426,None,1.056857199408114,1592.6088396999985,None,1593.1209500003606,None,1593.1209500003606,None,n,0.555642600171268,1593.1209500003606,None,0.555642600171268,,,81 Sing,001,2022_Nov_15_1633,ProdSingRedoBetween,2021.2.3,59.93744933188563,
,,,,148,0,148,0,,,,,,,,,,,,,,,,,,,,,,1596.1270407000557,None,,,,,,,,,,,,,,,,,harmony,68,149,sing,old,red,1594.2052455004305,None,1594.2052455004305,None,6,0.9914590995758772,1594.2052455004305,None,0.9914590995758772,1595.2248549005017,None,1595.7403389001265,None,1595.7403389001265,None,r,0.36027809977531433,1595.7403389001265,None,0.36027809977531433,,,81 Sing,001,2022_Nov_15_1633,ProdSingRedoBetween,2021.2.3,59.93744933188563,
,,,,149,0,149,0,,,,,,,,,,,,,,,,,,,,,,1599.0772099001333,None,,,,,,,,,,,,,,,,,strength,137,150,sing,new,null,1596.6476276004687,None,1596.6476276004687,None,6,0.9730532998219132,1596.6476276004687,None,0.9730532998219132,1597.6434935005382,None,1598.1507149003446,None,1598.1507149003446,None,f,0.9098615003749728,1598.1507149003446,None,0.9098615003749728,,,81 Sing,001,2022_Nov_15_1633,ProdSingRedoBetween,2021.2.3,59.93744933188563,
,,,,150,0,150,0,,,,,,,,,,,,,,,,,,,,,,1601.2289086999372,None,,,,,,,,,,,,,,,,,strain,116,151,sing,new,null,1599.580898400396,None,1599.580898400396,None,6,0.9037247998639941,1599.580898400396,None,0.9037247998639941,1600.514253700152,None,1601.0299511998892,None,1601.0299511998892,None,n,0.1828311998397112,1601.0299511998892,None,0.1828311998397112,,,81 Sing,001,2022_Nov_15_1633,ProdSingRedoBetween,2021.2.3,59.93744933188563,
,,,,151,0,151,0,,,,,,,,,,,,,,,,,,,,,,1603.484808200039,None,,,,,,,,,,,,,,,,,title,89,152,sing,old,red,1601.7415778003633,None,1601.7415778003633,None,6,0.9110959004610777,1601.7415778003633,None,0.9110959004610777,1602.685502000153,None,1603.197826700285,None,1603.197826700285,None,r,0.2632117001339793,1603.197826700285,None,0.2632117001339793,,,81 Sing,001,2022_Nov_15_1633,ProdSingRedoBetween,2021.2.3,59.93744933188563,
,,,,152,0,152,0,,,,,,,,,,,,,,,,,,,,,,1605.5164083000273,None,,,,,,,,,,,,,,,,,watch,50,153,sing,old,blue,1604.0087008997798,None,1604.0087008997798,None,6,0.7079138997942209,1604.0087008997798,None,0.7079138997942209,1604.7325544003397,None,1605.2329807002097,None,1605.2329807002097,None,f,0.2677827998995781,1605.2329807002097,None,0.2677827998995781,,,81 Sing,001,2022_Nov_15_1633,ProdSingRedoBetween,2021.2.3,59.93744933188563,
,,,,153,0,153,0,,,,,,,,,,,,,,,,,,,,,,1608.3359457002953,None,,,,,,,,,,,,,,,,,match,80,154,sing,old,red,1606.0299294004217,None,1606.0299294004217,None,6,1.054657599888742,1606.0299294004217,None,1.054657599888742,1607.1022075004876,None,1607.6065611001104,None,1607.6065611001104,None,f,0.7020096005871892,1607.6065611001104,None,0.7020096005871892,,,81 Sing,001,2022_Nov_15_1633,ProdSingRedoBetween,2021.2.3,59.93744933188563,
,,,,154,0,154,0,,,,,,,,,,,,,,,,,,,,,,1611.188761100173,None,,,,,,,,,,,,,,,,,shock,173,155,sing,new,null,1608.8452538996935,None,1608.8452538996935,None,6,1.135440899990499,1608.8452538996935,None,1.135440899990499,1610.009940800257,None,1610.5216735005379,None,1610.5216735005379,None,n,0.6429675007238984,1610.5216735005379,None,0.6429675007238984,,,81 Sing,001,2022_Nov_15_1633,ProdSingRedoBetween,2021.2.3,59.93744933188563,
,,,,155,0,155,0,,,,,,,,,,,,,,,,,,,,,,1613.4577505998313,None,,,,,,,,,,,,,,,,,appeal,30,156,sing,old,blue,1611.6965546999127,None,1611.6965546999127,None,6,0.9400867000222206,1611.6965546999127,None,0.9400867000222206,1612.6584873003885,None,1613.1768880998716,None,1613.1768880998716,None,f,0.25183780025690794,1613.1768880998716,None,0.25183780025690794,,,81 Sing,001,2022_Nov_15_1633,ProdSingRedoBetween,2021.2.3,59.93744933188563,
,,,,156,0,156,0,,,,,,,,,,,,,,,,,,,,,,1616.794475699775,None,,,,,,,,,,,,,,,,,afternoon,143,157,sing,new,null,1613.95887869969,None,1613.95887869969,None,6,0.9497569995000958,1613.95887869969,None,0.9497569995000958,1614.9257209002972,None,1615.4265798004344,None,1615.4265798004344,None,f,1.338064699433744,1615.4265798004344,None,1.338064699433744,,,81 Sing,001,2022_Nov_15_1633,ProdSingRedoBetween,2021.2.3,59.93744933188563,
,,,,157,0,157,0,,,,,,,,,,,,,,,,,,,,,,1619.7637449996546,None,,,,,,,,,,,,,,,,,length,13,158,sing,old,yellow,1617.301457900554,None,1617.301457900554,None,6,1.6230426002293825,1617.301457900554,None,1.6230426002293825,1618.9467000002041,None,1619.4469886003062,None,1619.4469886003062,None,r,0.3015098003670573,1619.4469886003062,None,0.3015098003670573,,,81 Sing,001,2022_Nov_15_1633,ProdSingRedoBetween,2021.2.3,59.93744933188563,
,,,,158,0,158,0,,,,,,,,,,,,,,,,,,,,,,1622.1828810004517,None,,,,,,,,,,,,,,,,,voice,110,159,sing,new,null,1620.2675932003185,None,1620.2675932003185,None,6,1.193023600615561,1620.2675932003185,None,1.193023600615561,1621.4893276002258,None,1621.9995093001053,None,1621.9995093001053,None,n,0.1650596996769309,1621.9995093001053,None,0.1650596996769309,,,81 Sing,001,2022_Nov_15_1633,ProdSingRedoBetween,2021.2.3,59.93744933188563,
,,,,159,0,159,0,,,,,,,,,,,,,,,,,,,,,,1625.136122500524,None,,,,,,,,,,,,,,,,,cousin,95,160,sing,new,null,1622.6864336002618,None,1622.6864336002618,None,6,0.9981370996683836,1622.6864336002618,None,0.9981370996683836,1623.703124199994,None,1624.2211993001401,None,1624.2211993001401,None,n,0.8873878996819258,1624.2211993001401,None,0.8873878996819258,,,81 Sing,001,2022_Nov_15_1633,ProdSingRedoBetween,2021.2.3,59.93744933188563,
,,,,160,0,160,0,,,,,,,,,,,,,,,,,,,,,,1627.5069292997941,None,,,,,,,,,,,,,,,,,alert,87,161,sing,old,red,1625.6367047000676,None,1625.6367047000676,None,6,0.968096099793911,1625.6367047000676,None,0.968096099793911,1626.6216227998957,None,1627.1244192002341,None,1627.1244192002341,None,n,0.36022309958934784,1627.1244192002341,None,0.36022309958934784,,,81 Sing,001,2022_Nov_15_1633,ProdSingRedoBetween,2021.2.3,59.93744933188563,
,,,,161,0,161,0,,,,,,,,,,,,,,,,,,,,,,1630.4080376001075,None,,,,,,,,,,,,,,,,,damage,98,162,sing,new,null,1628.0295476000756,None,1628.0295476000756,None,6,1.1110749002546072,1628.0295476000756,None,1.1110749002546072,1629.1577679002658,None,1629.6596587002277,None,1629.6596587002277,None,f,0.7209179997444153,1629.6596587002277,None,0.7209179997444153,,,81 Sing,001,2022_Nov_15_1633,ProdSingRedoBetween,2021.2.3,59.93744933188563,
,,,,162,0,162,0,,,,,,,,,,,,,,,,,,,,,,1633.0273358002305,None,,,,,,,,,,,,,,,,,addition,46,163,sing,old,blue,1630.9182649999857,None,1630.9182649999857,None,6,1.046348700299859,1630.9182649999857,None,1.046348700299859,1631.9947154996917,None,1632.5128143001348,None,1632.5128143001348,None,r,0.4997904999181628,1632.5128143001348,None,0.4997904999181628,,,81 Sing,001,2022_Nov_15_1633,ProdSingRedoBetween,2021.2.3,59.93744933188563,
,,,,163,0,163,0,,,,,,,,,,,,,,,,,,,,,,1636.4307094002143,None,,,,,,,,,,,,,,,,,budget,2,164,sing,old,yellow,1633.5295297000557,None,1633.5295297000557,None,6,0.7710833996534348,1633.5295297000557,None,0.7710833996534348,1634.3308043004945,None,1634.8458801005036,None,1634.8458801005036,None,f,1.5666708005592227,1634.8458801005036,None,1.5666708005592227,,,81 Sing,001,2022_Nov_15_1633,ProdSingRedoBetween,2021.2.3,59.93744933188563,
,,,,164,0,164,0,,,,,,,,,,,,,,,,,,,,,,1639.6839239001274,None,,,,,,,,,,,,,,,,,front,16,165,sing,old,yellow,1636.9386250004172,None,1636.9386250004172,None,6,1.0021334998309612,1636.9386250004172,None,1.0021334998309612,1637.9669347004965,None,1638.4662025002763,None,1638.4662025002763,None,n,1.2023767000064254,1638.4662025002763,None,1.2023767000064254,,,81 Sing,001,2022_Nov_15_1633,ProdSingRedoBetween,2021.2.3,59.93744933188563,
,,,,165,0,165,0,,,,,,,,,,,,,,,,,,,,,,1642.7870219005272,None,,,,,,,,,,,,,,,,,chief,117,166,sing,new,null,1640.1922348998487,None,1640.1922348998487,None,6,1.364262799732387,1640.1922348998487,None,1.364262799732387,1641.590399400331,None,1642.1033672001213,None,1642.1033672001213,None,f,0.6532177999615669,1642.1033672001213,None,0.6532177999615669,,,81 Sing,001,2022_Nov_15_1633,ProdSingRedoBetween,2021.2.3,59.93744933188563,
,,,,166,0,166,0,,,,,,,,,,,,,,,,,,,,,,1644.8888651998714,None,,,,,,,,,,,,,,,,,oxygen,125,167,sing,new,null,1643.2971940003335,None,1643.2971940003335,None,6,0.731359800323844,1643.2971940003335,None,0.731359800323844,1644.056119499728,None,1644.559193899855,None,1644.559193899855,None,f,0.301469299942255,1644.559193899855,None,0.301469299942255,,,81 Sing,001,2022_Nov_15_1633,ProdSingRedoBetween,2021.2.3,59.93744933188563,
,,,,167,0,167,0,,,,,,,,,,,,,,,,,,,,,,1647.3413754999638,None,,,,,,,,,,,,,,,,,dream,128,168,sing,new,null,1645.3947183005512,None,1645.3947183005512,None,6,1.0898919999599457,1645.3947183005512,None,1.0898919999599457,1646.5091837001964,None,1647.0246989000589,None,1647.0246989000589,None,f,0.291881799697876,1647.0246989000589,None,0.291881799697876,,,81 Sing,001,2022_Nov_15_1633,ProdSingRedoBetween,2021.2.3,59.93744933188563,
,,,,168,0,168,0,,,,,,,,,,,,,,,,,,,,,,1650.3289646003395,None,,,,,,,,,,,,,,,,,sweet,148,169,sing,new,null,1647.8444566000253,None,1647.8444566000253,None,6,0.7201135000213981,1647.8444566000253,None,0.7201135000213981,1648.5959197003394,None,1649.1147862002254,None,1649.1147862002254,None,n,1.1938453000038862,1649.1147862002254,None,1.1938453000038862,,,81 Sing,001,2022_Nov_15_1633,ProdSingRedoBetween,2021.2.3,59.93744933188563,
,,,,169,0,169,0,,,,,,,,,,,,,,,,,,,,,,1653.7312690997496,None,,,,,,,,,,,,,,,,,literature,34,170,sing,old,blue,1650.8299174997956,None,1650.8299174997956,None,6,1.2465500002726912,1650.8299174997956,None,1.2465500002726912,1652.1026908997446,None,1652.6132749998942,None,1652.6132749998942,None,f,1.0952821001410484,1652.6132749998942,None,1.0952821001410484,,,81 Sing,001,2022_Nov_15_1633,ProdSingRedoBetween,2021.2.3,59.93744933188563,
,,,,170,0,170,0,,,,,,,,,,,,,,,,,,,,,,1656.150314300321,None,,,,,,,,,,,,,,,,,trash,105,171,sing,new,null,1654.2481553005055,None,1654.2481553005055,None,6,0.9724260000512004,1654.2481553005055,None,0.9724260000512004,1655.2519554998726,None,1655.7667902996764,None,1655.7667902996764,None,n,0.35766900051385164,1655.7667902996764,None,0.35766900051385164,,,81 Sing,001,2022_Nov_15_1633,ProdSingRedoBetween,2021.2.3,59.93744933188563,
,,,,171,0,171,0,,,,,,,,,,,,,,,,,,,,,,1659.3369760001078,None,,,,,,,,,,,,,,,,,death,138,172,sing,new,null,1656.659126199782,None,1656.659126199782,None,6,1.0256513003259897,1656.659126199782,None,1.0256513003259897,1657.715358399786,None,1658.2254383005202,None,1658.2254383005202,None,f,1.091262700036168,1658.2254383005202,None,1.091262700036168,,,81 Sing,001,2022_Nov_15_1633,ProdSingRedoBetween,2021.2.3,59.93744933188563,
,,,,172,0,172,0,,,,,,,,,,,,,,,,,,,,,,1661.4390229005367,None,,,,,,,,,,,,,,,,,present,22,173,sing,old,yellow,1659.8407584996894,None,1659.8407584996894,None,6,0.7479474004358053,1659.8407584996894,None,0.7479474004358053,1660.6079772002995,None,1661.1265663998201,None,1661.1265663998201,None,r,0.2939414996653795,1661.1265663998201,None,0.2939414996653795,,,81 Sing,001,2022_Nov_15_1633,ProdSingRedoBetween,2021.2.3,59.93744933188563,
,,,,173,0,173,0,,,,,,,,,,,,,,,,,,,,,,1663.7079066997394,None,,,,,,,,,,,,,,,,,accident,166,174,sing,new,null,1661.9455335997045,None,1661.9455335997045,None,6,0.7629367001354694,1661.9455335997045,None,0.7629367001354694,1662.7234377004206,None,1663.2315068999305,None,1663.2315068999305,None,r,0.4611109998077154,1663.2315068999305,None,0.4611109998077154,,,81 Sing,001,2022_Nov_15_1633,ProdSingRedoBetween,2021.2.3,59.93744933188563,
,,,,174,0,174,0,,,,,,,,,,,,,,,,,,,,,,1666.660864500329,None,,,,,,,,,,,,,,,,,smell,65,175,sing,old,red,1664.220957200043,None,1664.220957200043,None,6,0.9754764996469021,1664.220957200043,None,0.9754764996469021,1665.228398599662,None,1665.744436999783,None,1665.744436999783,None,f,0.8921210002154112,1665.744436999783,None,0.8921210002154112,,,81 Sing,001,2022_Nov_15_1633,ProdSingRedoBetween,2021.2.3,59.93744933188563,
,,,,175,0,175,0,,,,,,,,,,,,,,,,,,,,,,1669.1633750004694,None,,,,,,,,,,,,,,,,,disease,53,176,sing,old,blue,1667.1758308997378,None,1667.1758308997378,None,6,0.9888343000784516,1667.1758308997378,None,0.9888343000784516,1668.1986464997754,None,1668.7130195004866,None,1668.7130195004866,None,r,0.41950799990445375,1668.7130195004866,None,0.41950799990445375,,,81 Sing,001,2022_Nov_15_1633,ProdSingRedoBetween,2021.2.3,59.93744933188563,
,,,,176,0,176,0,,,,,,,,,,,,,,,,,,,,,,1672.283075099811,None,,,,,,,,,,,,,,,,,agency,144,177,sing,new,null,1669.6718830997124,None,1669.6718830997124,None,6,0.8847251003608108,1669.6718830997124,None,0.8847251003608108,1670.5892666997388,None,1671.0989421000704,None,1671.0989421000704,None,f,1.1534673003479838,1671.0989421000704,None,1.1534673003479838,,,81 Sing,001,2022_Nov_15_1633,ProdSingRedoBetween,2021.2.3,59.93744933188563,
