StudyLoop.thisRepN,StudyLoop.thisTrialN,StudyLoop.thisN,StudyLoop.thisIndex,TestLoop.thisRepN,TestLoop.thisTrialN,TestLoop.thisN,TestLoop.thisIndex,textCondition.started,textCondition.stopped,keyCondition.keys,keyCondition.rt,keyCondition.started,keyCondition.stopped,Condition,textWelcome.started,textWelcome.stopped,keyWelcome.keys,keyWelcome.rt,keyWelcome.started,keyWelcome.stopped,textAloud.started,textAloud.stopped,textSilent.started,textSilent.stopped,textSing.started,textSing.stopped,conditional_text.started,conditional_text.stopped,textBlank500.started,textBlank500.stopped,study_word,study_num,study_order,study_type,word_color,textStudy.started,textStudy.stopped,keyStudy.keys,keyStudy.started,keyStudy.stopped,textTestInstructions.started,textTestInstructions.stopped,key_resp_3.keys,key_resp_3.rt,key_resp_3.started,key_resp_3.stopped,test_word,test_num,test_order,test_condition,old_new_test,test_word_original_color,textConf.started,textConf.stopped,textConfScale.started,textConfScale.stopped,keyConf.keys,keyConf.rt,keyConf.started,keyConf.stopped,confidence response time,textTestBlank.started,textTestBlank.stopped,textRKN.started,textRKN.stopped,textRKNScale.started,textRKNScale.stopped,keyRKN.keys,keyRKN.rt,keyRKN.started,keyRKN.stopped,rkn response time,textEnd.started,textEnd.stopped,participant,session,date,expName,psychopyVersion,frameRate,
,,,,,,,,34.10031360015273,None,a,2.1078164000064135,34.10031360015273,None,,,,,,,,,,,,,,,,,,,,,,,,,,,,,,,,,,,,,,,,,,,,,,,,,,,,,,,,,,,,,,82  Silent,001,2022_Nov_15_1708,ProdSingRedoBetween,2021.2.3,59.875506846191094,
,,,,,,,,,,,,,,SilentTest,36.256215300410986,None,space,68.00782479997724,36.256215300410986,None,,,,,,,,,,,,,,,,,,,,,,,,,,,,,,,,,,,,,,,,,,,,,,,,,,,,,,,82  Silent,001,2022_Nov_15_1708,ProdSingRedoBetween,2021.2.3,59.875506846191094,
0,0,0,0,,,,,,,,,,,,,,,,,,36.256215300410986,None,36.256215300410986,None,36.256215300410986,None,36.256215300410986,None,106.78317870013416,None,budget,43,1,silent,blue,104.78078700043261,None,None,104.78078700043261,None,,,,,,,,,,,,,,,,,,,,,,,,,,,,,,,,,,,82  Silent,001,2022_Nov_15_1708,ProdSingRedoBetween,2021.2.3,59.875506846191094,
1,0,1,0,,,,,,,,,,,,,,,,,,,,,,,,,,109.30238760076463,None,private,77,2,silent,red,107.29548400081694,None,None,107.29548400081694,None,,,,,,,,,,,,,,,,,,,,,,,,,,,,,,,,,,,82  Silent,001,2022_Nov_15_1708,ProdSingRedoBetween,2021.2.3,59.875506846191094,
2,0,2,0,,,,,,,,,,,,,,,,,,,,,,,,,,111.8048743000254,None,error,87,3,silent,red,109.8026445005089,None,None,109.8026445005089,None,,,,,,,,,,,,,,,,,,,,,,,,,,,,,,,,,,,82  Silent,001,2022_Nov_15_1708,ProdSingRedoBetween,2021.2.3,59.875506846191094,
3,0,3,0,,,,,,,,,,,,,,,,,,,,,,,,,,114.3237444004044,None,property,84,4,silent,red,112.31205970048904,None,None,112.31205970048904,None,,,,,,,,,,,,,,,,,,,,,,,,,,,,,,,,,,,82  Silent,001,2022_Nov_15_1708,ProdSingRedoBetween,2021.2.3,59.875506846191094,
4,0,4,0,,,,,,,,,,,,,,,,,,,,,,,,,,116.82652030047029,None,rapid,5,5,silent,yellow,114.82423020061105,None,None,114.82423020061105,None,,,,,,,,,,,,,,,,,,,,,,,,,,,,,,,,,,,82  Silent,001,2022_Nov_15_1708,ProdSingRedoBetween,2021.2.3,59.875506846191094,
5,0,5,0,,,,,,,,,,,,,,,,,,,,,,,,,,119.32881020009518,None,novel,59,6,silent,yellow,117.32703750021756,None,None,117.32703750021756,None,,,,,,,,,,,,,,,,,,,,,,,,,,,,,,,,,,,82  Silent,001,2022_Nov_15_1708,ProdSingRedoBetween,2021.2.3,59.875506846191094,
6,0,6,0,,,,,,,,,,,,,,,,,,,,,,,,,,121.84829690027982,None,ground,26,7,silent,yellow,119.83293030038476,None,None,119.83293030038476,None,,,,,,,,,,,,,,,,,,,,,,,,,,,,,,,,,,,82  Silent,001,2022_Nov_15_1708,ProdSingRedoBetween,2021.2.3,59.875506846191094,
7,0,7,0,,,,,,,,,,,,,,,,,,,,,,,,,,124.3506297999993,None,chief,64,8,silent,red,122.35118600074202,None,None,122.35118600074202,None,,,,,,,,,,,,,,,,,,,,,,,,,,,,,,,,,,,82  Silent,001,2022_Nov_15_1708,ProdSingRedoBetween,2021.2.3,59.875506846191094,
8,0,8,0,,,,,,,,,,,,,,,,,,,,,,,,,,126.853037500754,None,distance,0,9,silent,yellow,124.85309420060366,None,None,124.85309420060366,None,,,,,,,,,,,,,,,,,,,,,,,,,,,,,,,,,,,82  Silent,001,2022_Nov_15_1708,ProdSingRedoBetween,2021.2.3,59.875506846191094,
9,0,9,0,,,,,,,,,,,,,,,,,,,,,,,,,,129.35552190057933,None,range,50,10,silent,blue,127.35337060038,None,None,127.35337060038,None,,,,,,,,,,,,,,,,,,,,,,,,,,,,,,,,,,,82  Silent,001,2022_Nov_15_1708,ProdSingRedoBetween,2021.2.3,59.875506846191094,
10,0,10,0,,,,,,,,,,,,,,,,,,,,,,,,,,131.85805460065603,None,fashion,54,11,silent,blue,129.85594610031694,None,None,129.85594610031694,None,,,,,,,,,,,,,,,,,,,,,,,,,,,,,,,,,,,82  Silent,001,2022_Nov_15_1708,ProdSingRedoBetween,2021.2.3,59.875506846191094,
11,0,11,0,,,,,,,,,,,,,,,,,,,,,,,,,,134.3606345001608,None,clear,49,12,silent,blue,132.35861660074443,None,None,132.35861660074443,None,,,,,,,,,,,,,,,,,,,,,,,,,,,,,,,,,,,82  Silent,001,2022_Nov_15_1708,ProdSingRedoBetween,2021.2.3,59.875506846191094,
12,0,12,0,,,,,,,,,,,,,,,,,,,,,,,,,,136.86295340023935,None,guest,17,13,silent,yellow,134.86251360084862,None,None,134.86251360084862,None,,,,,,,,,,,,,,,,,,,,,,,,,,,,,,,,,,,82  Silent,001,2022_Nov_15_1708,ProdSingRedoBetween,2021.2.3,59.875506846191094,
13,0,13,0,,,,,,,,,,,,,,,,,,,,,,,,,,139.36583030037582,None,interior,41,14,silent,blue,137.36366460006684,None,None,137.36366460006684,None,,,,,,,,,,,,,,,,,,,,,,,,,,,,,,,,,,,82  Silent,001,2022_Nov_15_1708,ProdSingRedoBetween,2021.2.3,59.875506846191094,
14,0,14,0,,,,,,,,,,,,,,,,,,,,,,,,,,141.8849063999951,None,career,63,15,silent,red,139.8699563005939,None,None,139.8699563005939,None,,,,,,,,,,,,,,,,,,,,,,,,,,,,,,,,,,,82  Silent,001,2022_Nov_15_1708,ProdSingRedoBetween,2021.2.3,59.875506846191094,
15,0,15,0,,,,,,,,,,,,,,,,,,,,,,,,,,144.38735020067543,None,goose,66,16,silent,red,142.3862352008,None,None,142.3862352008,None,,,,,,,,,,,,,,,,,,,,,,,,,,,,,,,,,,,82  Silent,001,2022_Nov_15_1708,ProdSingRedoBetween,2021.2.3,59.875506846191094,
16,0,16,0,,,,,,,,,,,,,,,,,,,,,,,,,,146.88972480036318,None,education,76,17,silent,red,144.88790520001203,None,None,144.88790520001203,None,,,,,,,,,,,,,,,,,,,,,,,,,,,,,,,,,,,82  Silent,001,2022_Nov_15_1708,ProdSingRedoBetween,2021.2.3,59.875506846191094,
17,0,17,0,,,,,,,,,,,,,,,,,,,,,,,,,,149.39212170057,None,household,8,18,silent,yellow,147.39032380003482,None,None,147.39032380003482,None,,,,,,,,,,,,,,,,,,,,,,,,,,,,,,,,,,,82  Silent,001,2022_Nov_15_1708,ProdSingRedoBetween,2021.2.3,59.875506846191094,
18,0,18,0,,,,,,,,,,,,,,,,,,,,,,,,,,151.8948049005121,None,engineer,44,19,silent,blue,149.8926286008209,None,None,149.8926286008209,None,,,,,,,,,,,,,,,,,,,,,,,,,,,,,,,,,,,82  Silent,001,2022_Nov_15_1708,ProdSingRedoBetween,2021.2.3,59.875506846191094,
19,0,19,0,,,,,,,,,,,,,,,,,,,,,,,,,,154.41394720040262,None,cover,13,20,silent,yellow,152.39964290056378,None,None,152.39964290056378,None,,,,,,,,,,,,,,,,,,,,,,,,,,,,,,,,,,,82  Silent,001,2022_Nov_15_1708,ProdSingRedoBetween,2021.2.3,59.875506846191094,
20,0,20,0,,,,,,,,,,,,,,,,,,,,,,,,,,156.93312200065702,None,portion,35,21,silent,blue,154.91829950083047,None,None,154.91829950083047,None,,,,,,,,,,,,,,,,,,,,,,,,,,,,,,,,,,,82  Silent,001,2022_Nov_15_1708,ProdSingRedoBetween,2021.2.3,59.875506846191094,
21,0,21,0,,,,,,,,,,,,,,,,,,,,,,,,,,159.43571700062603,None,thing,56,22,silent,blue,157.43335910048336,None,None,157.43335910048336,None,,,,,,,,,,,,,,,,,,,,,,,,,,,,,,,,,,,82  Silent,001,2022_Nov_15_1708,ProdSingRedoBetween,2021.2.3,59.875506846191094,
22,0,22,0,,,,,,,,,,,,,,,,,,,,,,,,,,161.93837150000036,None,revolution,79,23,silent,red,159.9366175001487,None,None,159.9366175001487,None,,,,,,,,,,,,,,,,,,,,,,,,,,,,,,,,,,,82  Silent,001,2022_Nov_15_1708,ProdSingRedoBetween,2021.2.3,59.875506846191094,
23,0,23,0,,,,,,,,,,,,,,,,,,,,,,,,,,164.44062150083482,None,youth,3,24,silent,yellow,162.44129110034555,None,None,162.44129110034555,None,,,,,,,,,,,,,,,,,,,,,,,,,,,,,,,,,,,82  Silent,001,2022_Nov_15_1708,ProdSingRedoBetween,2021.2.3,59.875506846191094,
24,0,24,0,,,,,,,,,,,,,,,,,,,,,,,,,,166.94319230038673,None,short,89,25,silent,red,164.9420899003744,None,None,164.9420899003744,None,,,,,,,,,,,,,,,,,,,,,,,,,,,,,,,,,,,82  Silent,001,2022_Nov_15_1708,ProdSingRedoBetween,2021.2.3,59.875506846191094,
25,0,25,0,,,,,,,,,,,,,,,,,,,,,,,,,,169.4454675000161,None,machinery,52,26,silent,blue,167.44372150022537,None,None,167.44372150022537,None,,,,,,,,,,,,,,,,,,,,,,,,,,,,,,,,,,,82  Silent,001,2022_Nov_15_1708,ProdSingRedoBetween,2021.2.3,59.875506846191094,
26,0,26,0,,,,,,,,,,,,,,,,,,,,,,,,,,171.96456320025027,None,finish,7,27,silent,yellow,169.94955120049417,None,None,169.94955120049417,None,,,,,,,,,,,,,,,,,,,,,,,,,,,,,,,,,,,82  Silent,001,2022_Nov_15_1708,ProdSingRedoBetween,2021.2.3,59.875506846191094,
27,0,27,0,,,,,,,,,,,,,,,,,,,,,,,,,,174.46720600035042,None,principal,88,28,silent,red,172.4682886004448,None,None,172.4682886004448,None,,,,,,,,,,,,,,,,,,,,,,,,,,,,,,,,,,,82  Silent,001,2022_Nov_15_1708,ProdSingRedoBetween,2021.2.3,59.875506846191094,
28,0,28,0,,,,,,,,,,,,,,,,,,,,,,,,,,176.96984230075032,None,month,14,29,silent,yellow,174.9677747003734,None,None,174.9677747003734,None,,,,,,,,,,,,,,,,,,,,,,,,,,,,,,,,,,,82  Silent,001,2022_Nov_15_1708,ProdSingRedoBetween,2021.2.3,59.875506846191094,
29,0,29,0,,,,,,,,,,,,,,,,,,,,,,,,,,179.48895270004869,None,interview,20,30,silent,yellow,177.48450060002506,None,None,177.48450060002506,None,,,,,,,,,,,,,,,,,,,,,,,,,,,,,,,,,,,82  Silent,001,2022_Nov_15_1708,ProdSingRedoBetween,2021.2.3,59.875506846191094,
30,0,30,0,,,,,,,,,,,,,,,,,,,,,,,,,,181.9914612006396,None,express,27,31,silent,yellow,179.98964970000088,None,None,179.98964970000088,None,,,,,,,,,,,,,,,,,,,,,,,,,,,,,,,,,,,82  Silent,001,2022_Nov_15_1708,ProdSingRedoBetween,2021.2.3,59.875506846191094,
31,0,31,0,,,,,,,,,,,,,,,,,,,,,,,,,,184.49412290006876,None,exchange,81,32,silent,red,182.49218589998782,None,None,182.49218589998782,None,,,,,,,,,,,,,,,,,,,,,,,,,,,,,,,,,,,82  Silent,001,2022_Nov_15_1708,ProdSingRedoBetween,2021.2.3,59.875506846191094,
32,0,32,0,,,,,,,,,,,,,,,,,,,,,,,,,,186.99649140052497,None,military,65,33,silent,red,184.9967724001035,None,None,184.9967724001035,None,,,,,,,,,,,,,,,,,,,,,,,,,,,,,,,,,,,82  Silent,001,2022_Nov_15_1708,ProdSingRedoBetween,2021.2.3,59.875506846191094,
33,0,33,0,,,,,,,,,,,,,,,,,,,,,,,,,,189.4990042001009,None,owner,53,34,silent,blue,187.4966127006337,None,None,187.4966127006337,None,,,,,,,,,,,,,,,,,,,,,,,,,,,,,,,,,,,82  Silent,001,2022_Nov_15_1708,ProdSingRedoBetween,2021.2.3,59.875506846191094,
34,0,34,0,,,,,,,,,,,,,,,,,,,,,,,,,,192.01827540062368,None,division,68,35,silent,red,190.0066988002509,None,None,190.0066988002509,None,,,,,,,,,,,,,,,,,,,,,,,,,,,,,,,,,,,82  Silent,001,2022_Nov_15_1708,ProdSingRedoBetween,2021.2.3,59.875506846191094,
35,0,35,0,,,,,,,,,,,,,,,,,,,,,,,,,,194.5205843001604,None,empty,24,36,silent,yellow,192.51871410012245,None,None,192.51871410012245,None,,,,,,,,,,,,,,,,,,,,,,,,,,,,,,,,,,,82  Silent,001,2022_Nov_15_1708,ProdSingRedoBetween,2021.2.3,59.875506846191094,
36,0,36,0,,,,,,,,,,,,,,,,,,,,,,,,,,197.03968030028045,None,dream,40,37,silent,blue,195.026455800049,None,None,195.026455800049,None,,,,,,,,,,,,,,,,,,,,,,,,,,,,,,,,,,,82  Silent,001,2022_Nov_15_1708,ProdSingRedoBetween,2021.2.3,59.875506846191094,
37,0,37,0,,,,,,,,,,,,,,,,,,,,,,,,,,199.54229700006545,None,center,46,38,silent,blue,197.54007710050792,None,None,197.54007710050792,None,,,,,,,,,,,,,,,,,,,,,,,,,,,,,,,,,,,82  Silent,001,2022_Nov_15_1708,ProdSingRedoBetween,2021.2.3,59.875506846191094,
38,0,38,0,,,,,,,,,,,,,,,,,,,,,,,,,,202.04480830021203,None,appeal,74,39,silent,red,200.04285110067576,None,None,200.04285110067576,None,,,,,,,,,,,,,,,,,,,,,,,,,,,,,,,,,,,82  Silent,001,2022_Nov_15_1708,ProdSingRedoBetween,2021.2.3,59.875506846191094,
39,0,39,0,,,,,,,,,,,,,,,,,,,,,,,,,,204.56396479997784,None,majority,30,40,silent,blue,202.54994950070977,None,None,202.54994950070977,None,,,,,,,,,,,,,,,,,,,,,,,,,,,,,,,,,,,82  Silent,001,2022_Nov_15_1708,ProdSingRedoBetween,2021.2.3,59.875506846191094,
40,0,40,0,,,,,,,,,,,,,,,,,,,,,,,,,,207.06626210082322,None,afternoon,31,41,silent,blue,205.06434080004692,None,None,205.06434080004692,None,,,,,,,,,,,,,,,,,,,,,,,,,,,,,,,,,,,82  Silent,001,2022_Nov_15_1708,ProdSingRedoBetween,2021.2.3,59.875506846191094,
41,0,41,0,,,,,,,,,,,,,,,,,,,,,,,,,,209.56896780058742,None,impact,45,42,silent,blue,207.56683140061796,None,None,207.56683140061796,None,,,,,,,,,,,,,,,,,,,,,,,,,,,,,,,,,,,82  Silent,001,2022_Nov_15_1708,ProdSingRedoBetween,2021.2.3,59.875506846191094,
42,0,42,0,,,,,,,,,,,,,,,,,,,,,,,,,,212.0881614005193,None,broad,16,43,silent,yellow,210.07391650043428,None,None,210.07391650043428,None,,,,,,,,,,,,,,,,,,,,,,,,,,,,,,,,,,,82  Silent,001,2022_Nov_15_1708,ProdSingRedoBetween,2021.2.3,59.875506846191094,
43,0,43,0,,,,,,,,,,,,,,,,,,,,,,,,,,214.59066080022603,None,contract,36,44,silent,blue,212.58847490046173,None,None,212.58847490046173,None,,,,,,,,,,,,,,,,,,,,,,,,,,,,,,,,,,,82  Silent,001,2022_Nov_15_1708,ProdSingRedoBetween,2021.2.3,59.875506846191094,
44,0,44,0,,,,,,,,,,,,,,,,,,,,,,,,,,217.10962620005012,None,stand,60,45,silent,red,215.09469000063837,None,None,215.09469000063837,None,,,,,,,,,,,,,,,,,,,,,,,,,,,,,,,,,,,82  Silent,001,2022_Nov_15_1708,ProdSingRedoBetween,2021.2.3,59.875506846191094,
45,0,45,0,,,,,,,,,,,,,,,,,,,,,,,,,,219.61237420048565,None,century,32,46,silent,blue,217.61018120031804,None,None,217.61018120031804,None,,,,,,,,,,,,,,,,,,,,,,,,,,,,,,,,,,,82  Silent,001,2022_Nov_15_1708,ProdSingRedoBetween,2021.2.3,59.875506846191094,
46,0,46,0,,,,,,,,,,,,,,,,,,,,,,,,,,222.13136890064925,None,mechanical,57,47,silent,blue,220.12094390019774,None,None,220.12094390019774,None,,,,,,,,,,,,,,,,,,,,,,,,,,,,,,,,,,,82  Silent,001,2022_Nov_15_1708,ProdSingRedoBetween,2021.2.3,59.875506846191094,
47,0,47,0,,,,,,,,,,,,,,,,,,,,,,,,,,224.65069030039012,None,primary,72,48,silent,red,222.63543730042875,None,None,222.63543730042875,None,,,,,,,,,,,,,,,,,,,,,,,,,,,,,,,,,,,82  Silent,001,2022_Nov_15_1708,ProdSingRedoBetween,2021.2.3,59.875506846191094,
48,0,48,0,,,,,,,,,,,,,,,,,,,,,,,,,,227.15313990041614,None,relation,67,49,silent,red,225.1522246003151,None,None,225.1522246003151,None,,,,,,,,,,,,,,,,,,,,,,,,,,,,,,,,,,,82  Silent,001,2022_Nov_15_1708,ProdSingRedoBetween,2021.2.3,59.875506846191094,
49,0,49,0,,,,,,,,,,,,,,,,,,,,,,,,,,229.65570200048387,None,bicycle,83,50,silent,red,227.65441310033202,None,None,227.65441310033202,None,,,,,,,,,,,,,,,,,,,,,,,,,,,,,,,,,,,82  Silent,001,2022_Nov_15_1708,ProdSingRedoBetween,2021.2.3,59.875506846191094,
50,0,50,0,,,,,,,,,,,,,,,,,,,,,,,,,,232.15809589996934,None,benefit,55,51,silent,blue,230.15780080016702,None,None,230.15780080016702,None,,,,,,,,,,,,,,,,,,,,,,,,,,,,,,,,,,,82  Silent,001,2022_Nov_15_1708,ProdSingRedoBetween,2021.2.3,59.875506846191094,
51,0,51,0,,,,,,,,,,,,,,,,,,,,,,,,,,234.67742630001158,None,captain,10,52,silent,yellow,232.66778600029647,None,None,232.66778600029647,None,,,,,,,,,,,,,,,,,,,,,,,,,,,,,,,,,,,82  Silent,001,2022_Nov_15_1708,ProdSingRedoBetween,2021.2.3,59.875506846191094,
52,0,52,0,,,,,,,,,,,,,,,,,,,,,,,,,,237.1964728999883,None,attack,9,53,silent,yellow,235.18260290008038,None,None,235.18260290008038,None,,,,,,,,,,,,,,,,,,,,,,,,,,,,,,,,,,,82  Silent,001,2022_Nov_15_1708,ProdSingRedoBetween,2021.2.3,59.875506846191094,
53,0,53,0,,,,,,,,,,,,,,,,,,,,,,,,,,239.69896250031888,None,working,6,54,silent,yellow,237.6970433006063,None,None,237.6970433006063,None,,,,,,,,,,,,,,,,,,,,,,,,,,,,,,,,,,,82  Silent,001,2022_Nov_15_1708,ProdSingRedoBetween,2021.2.3,59.875506846191094,
54,0,54,0,,,,,,,,,,,,,,,,,,,,,,,,,,242.21798000019044,None,force,28,55,silent,yellow,240.20614770054817,None,None,240.20614770054817,None,,,,,,,,,,,,,,,,,,,,,,,,,,,,,,,,,,,82  Silent,001,2022_Nov_15_1708,ProdSingRedoBetween,2021.2.3,59.875506846191094,
55,0,55,0,,,,,,,,,,,,,,,,,,,,,,,,,,244.72067060042173,None,discovery,62,56,silent,red,242.71884870063514,None,None,242.71884870063514,None,,,,,,,,,,,,,,,,,,,,,,,,,,,,,,,,,,,82  Silent,001,2022_Nov_15_1708,ProdSingRedoBetween,2021.2.3,59.875506846191094,
56,0,56,0,,,,,,,,,,,,,,,,,,,,,,,,,,247.22267530020326,None,heavy,61,57,silent,red,245.22278690058738,None,None,245.22278690058738,None,,,,,,,,,,,,,,,,,,,,,,,,,,,,,,,,,,,82  Silent,001,2022_Nov_15_1708,ProdSingRedoBetween,2021.2.3,59.875506846191094,
57,0,57,0,,,,,,,,,,,,,,,,,,,,,,,,,,249.72571510076523,None,income,23,58,silent,yellow,247.7235262999311,None,None,247.7235262999311,None,,,,,,,,,,,,,,,,,,,,,,,,,,,,,,,,,,,82  Silent,001,2022_Nov_15_1708,ProdSingRedoBetween,2021.2.3,59.875506846191094,
58,0,58,0,,,,,,,,,,,,,,,,,,,,,,,,,,252.24490640033036,None,commercial,70,59,silent,red,250.22963680047542,None,None,250.22963680047542,None,,,,,,,,,,,,,,,,,,,,,,,,,,,,,,,,,,,82  Silent,001,2022_Nov_15_1708,ProdSingRedoBetween,2021.2.3,59.875506846191094,
59,0,59,0,,,,,,,,,,,,,,,,,,,,,,,,,,254.7635999005288,None,produce,51,60,silent,blue,252.74955470021814,None,None,252.74955470021814,None,,,,,,,,,,,,,,,,,,,,,,,,,,,,,,,,,,,82  Silent,001,2022_Nov_15_1708,ProdSingRedoBetween,2021.2.3,59.875506846191094,
60,0,60,0,,,,,,,,,,,,,,,,,,,,,,,,,,257.28338799998164,None,danger,25,61,silent,yellow,255.26762429997325,None,None,255.26762429997325,None,,,,,,,,,,,,,,,,,,,,,,,,,,,,,,,,,,,82  Silent,001,2022_Nov_15_1708,ProdSingRedoBetween,2021.2.3,59.875506846191094,
61,0,61,0,,,,,,,,,,,,,,,,,,,,,,,,,,259.79327440075576,None,crowd,80,62,silent,red,257.783348900266,None,None,257.783348900266,None,,,,,,,,,,,,,,,,,,,,,,,,,,,,,,,,,,,82  Silent,001,2022_Nov_15_1708,ProdSingRedoBetween,2021.2.3,59.875506846191094,
62,0,62,0,,,,,,,,,,,,,,,,,,,,,,,,,,262.3215452004224,None,vision,2,63,silent,yellow,260.30701890029013,None,None,260.30701890029013,None,,,,,,,,,,,,,,,,,,,,,,,,,,,,,,,,,,,82  Silent,001,2022_Nov_15_1708,ProdSingRedoBetween,2021.2.3,59.875506846191094,
63,0,63,0,,,,,,,,,,,,,,,,,,,,,,,,,,264.82406420074403,None,smooth,58,64,silent,blue,262.8221223000437,None,None,262.8221223000437,None,,,,,,,,,,,,,,,,,,,,,,,,,,,,,,,,,,,82  Silent,001,2022_Nov_15_1708,ProdSingRedoBetween,2021.2.3,59.875506846191094,
64,0,64,0,,,,,,,,,,,,,,,,,,,,,,,,,,267.32665210030973,None,mayor,18,65,silent,yellow,265.32705290056765,None,None,265.32705290056765,None,,,,,,,,,,,,,,,,,,,,,,,,,,,,,,,,,,,82  Silent,001,2022_Nov_15_1708,ProdSingRedoBetween,2021.2.3,59.875506846191094,
65,0,65,0,,,,,,,,,,,,,,,,,,,,,,,,,,269.8290359005332,None,power,37,66,silent,blue,267.82957680057734,None,None,267.82957680057734,None,,,,,,,,,,,,,,,,,,,,,,,,,,,,,,,,,,,82  Silent,001,2022_Nov_15_1708,ProdSingRedoBetween,2021.2.3,59.875506846191094,
66,0,66,0,,,,,,,,,,,,,,,,,,,,,,,,,,272.3310944000259,None,congress,19,67,silent,yellow,270.32958480063826,None,None,270.32958480063826,None,,,,,,,,,,,,,,,,,,,,,,,,,,,,,,,,,,,82  Silent,001,2022_Nov_15_1708,ProdSingRedoBetween,2021.2.3,59.875506846191094,
67,0,67,0,,,,,,,,,,,,,,,,,,,,,,,,,,274.8340507000685,None,guard,11,68,silent,yellow,272.83202770072967,None,None,272.83202770072967,None,,,,,,,,,,,,,,,,,,,,,,,,,,,,,,,,,,,82  Silent,001,2022_Nov_15_1708,ProdSingRedoBetween,2021.2.3,59.875506846191094,
68,0,68,0,,,,,,,,,,,,,,,,,,,,,,,,,,277.33617460075766,None,drink,12,69,silent,yellow,275.3348865006119,None,None,275.3348865006119,None,,,,,,,,,,,,,,,,,,,,,,,,,,,,,,,,,,,82  Silent,001,2022_Nov_15_1708,ProdSingRedoBetween,2021.2.3,59.875506846191094,
69,0,69,0,,,,,,,,,,,,,,,,,,,,,,,,,,279.83906330075115,None,scale,34,70,silent,blue,277.8371004005894,None,None,277.8371004005894,None,,,,,,,,,,,,,,,,,,,,,,,,,,,,,,,,,,,82  Silent,001,2022_Nov_15_1708,ProdSingRedoBetween,2021.2.3,59.875506846191094,
70,0,70,0,,,,,,,,,,,,,,,,,,,,,,,,,,282.3582635000348,None,defeat,75,71,silent,red,280.3428244004026,None,None,280.3428244004026,None,,,,,,,,,,,,,,,,,,,,,,,,,,,,,,,,,,,82  Silent,001,2022_Nov_15_1708,ProdSingRedoBetween,2021.2.3,59.875506846191094,
71,0,71,0,,,,,,,,,,,,,,,,,,,,,,,,,,284.8607603004202,None,executive,39,72,silent,blue,282.86051720008254,None,None,282.86051720008254,None,,,,,,,,,,,,,,,,,,,,,,,,,,,,,,,,,,,82  Silent,001,2022_Nov_15_1708,ProdSingRedoBetween,2021.2.3,59.875506846191094,
72,0,72,0,,,,,,,,,,,,,,,,,,,,,,,,,,287.3632637001574,None,brief,21,73,silent,yellow,285.36124090012163,None,None,285.36124090012163,None,,,,,,,,,,,,,,,,,,,,,,,,,,,,,,,,,,,82  Silent,001,2022_Nov_15_1708,ProdSingRedoBetween,2021.2.3,59.875506846191094,
73,0,73,0,,,,,,,,,,,,,,,,,,,,,,,,,,289.88233510032296,None,weight,4,74,silent,yellow,287.8686397001147,None,None,287.8686397001147,None,,,,,,,,,,,,,,,,,,,,,,,,,,,,,,,,,,,82  Silent,001,2022_Nov_15_1708,ProdSingRedoBetween,2021.2.3,59.875506846191094,
74,0,74,0,,,,,,,,,,,,,,,,,,,,,,,,,,292.40155780036,None,state,69,75,silent,red,290.3864704007283,None,None,290.3864704007283,None,,,,,,,,,,,,,,,,,,,,,,,,,,,,,,,,,,,82  Silent,001,2022_Nov_15_1708,ProdSingRedoBetween,2021.2.3,59.875506846191094,
75,0,75,0,,,,,,,,,,,,,,,,,,,,,,,,,,294.9041172005236,None,scene,85,76,silent,red,292.9021653002128,None,None,292.9021653002128,None,,,,,,,,,,,,,,,,,,,,,,,,,,,,,,,,,,,82  Silent,001,2022_Nov_15_1708,ProdSingRedoBetween,2021.2.3,59.875506846191094,
76,0,76,0,,,,,,,,,,,,,,,,,,,,,,,,,,297.4235392007977,None,hunger,38,77,silent,blue,295.408196400851,None,None,295.408196400851,None,,,,,,,,,,,,,,,,,,,,,,,,,,,,,,,,,,,82  Silent,001,2022_Nov_15_1708,ProdSingRedoBetween,2021.2.3,59.875506846191094,
77,0,77,0,,,,,,,,,,,,,,,,,,,,,,,,,,299.92572540044785,None,instrument,15,78,silent,yellow,297.92370660044253,None,None,297.92370660044253,None,,,,,,,,,,,,,,,,,,,,,,,,,,,,,,,,,,,82  Silent,001,2022_Nov_15_1708,ProdSingRedoBetween,2021.2.3,59.875506846191094,
78,0,78,0,,,,,,,,,,,,,,,,,,,,,,,,,,302.4449868006632,None,design,1,79,silent,yellow,300.432429600507,None,None,300.432429600507,None,,,,,,,,,,,,,,,,,,,,,,,,,,,,,,,,,,,82  Silent,001,2022_Nov_15_1708,ProdSingRedoBetween,2021.2.3,59.875506846191094,
79,0,79,0,,,,,,,,,,,,,,,,,,,,,,,,,,304.94745260011405,None,citizen,47,80,silent,blue,302.94536110013723,None,None,302.94536110013723,None,,,,,,,,,,,,,,,,,,,,,,,,,,,,,,,,,,,82  Silent,001,2022_Nov_15_1708,ProdSingRedoBetween,2021.2.3,59.875506846191094,
80,0,80,0,,,,,,,,,,,,,,,,,,,,,,,,,,307.449740100652,None,volume,86,81,silent,red,305.4503632001579,None,None,305.4503632001579,None,,,,,,,,,,,,,,,,,,,,,,,,,,,,,,,,,,,82  Silent,001,2022_Nov_15_1708,ProdSingRedoBetween,2021.2.3,59.875506846191094,
81,0,81,0,,,,,,,,,,,,,,,,,,,,,,,,,,309.9522013999522,None,spoke,82,82,silent,red,307.9520773999393,None,None,307.9520773999393,None,,,,,,,,,,,,,,,,,,,,,,,,,,,,,,,,,,,82  Silent,001,2022_Nov_15_1708,ProdSingRedoBetween,2021.2.3,59.875506846191094,
82,0,82,0,,,,,,,,,,,,,,,,,,,,,,,,,,312.47166480030864,None,science,29,83,silent,blue,310.4579722005874,None,None,310.4579722005874,None,,,,,,,,,,,,,,,,,,,,,,,,,,,,,,,,,,,82  Silent,001,2022_Nov_15_1708,ProdSingRedoBetween,2021.2.3,59.875506846191094,
83,0,83,0,,,,,,,,,,,,,,,,,,,,,,,,,,314.973903500475,None,straight,22,84,silent,yellow,312.97402950003743,None,None,312.97402950003743,None,,,,,,,,,,,,,,,,,,,,,,,,,,,,,,,,,,,82  Silent,001,2022_Nov_15_1708,ProdSingRedoBetween,2021.2.3,59.875506846191094,
84,0,84,0,,,,,,,,,,,,,,,,,,,,,,,,,,317.49334970023483,None,background,78,85,silent,red,315.4796309005469,None,None,315.4796309005469,None,,,,,,,,,,,,,,,,,,,,,,,,,,,,,,,,,,,82  Silent,001,2022_Nov_15_1708,ProdSingRedoBetween,2021.2.3,59.875506846191094,
85,0,85,0,,,,,,,,,,,,,,,,,,,,,,,,,,319.9957995004952,None,raise,33,86,silent,blue,317.9937704000622,None,None,317.9937704000622,None,,,,,,,,,,,,,,,,,,,,,,,,,,,,,,,,,,,82  Silent,001,2022_Nov_15_1708,ProdSingRedoBetween,2021.2.3,59.875506846191094,
86,0,86,0,,,,,,,,,,,,,,,,,,,,,,,,,,322.4981372002512,None,graduate,48,87,silent,blue,320.4959838008508,None,None,320.4959838008508,None,,,,,,,,,,,,,,,,,,,,,,,,,,,,,,,,,,,82  Silent,001,2022_Nov_15_1708,ProdSingRedoBetween,2021.2.3,59.875506846191094,
87,0,87,0,,,,,,,,,,,,,,,,,,,,,,,,,,325.0174560006708,None,rough,71,88,silent,red,323.0030764006078,None,None,323.0030764006078,None,,,,,,,,,,,,,,,,,,,,,,,,,,,,,,,,,,,82  Silent,001,2022_Nov_15_1708,ProdSingRedoBetween,2021.2.3,59.875506846191094,
88,0,88,0,,,,,,,,,,,,,,,,,,,,,,,,,,327.5199327003211,None,junior,73,89,silent,red,325.5194472000003,None,None,325.5194472000003,None,,,,,,,,,,,,,,,,,,,,,,,,,,,,,,,,,,,82  Silent,001,2022_Nov_15_1708,ProdSingRedoBetween,2021.2.3,59.875506846191094,
89,0,89,0,,,,,,,,,,,,,,,,,,,,,,,,,,330.02246690075845,None,region,42,90,silent,blue,328.0204508006573,None,None,328.0204508006573,None,,,,,,,,,,,,,,,,,,,,,,,,,,,,,,,,,,,82  Silent,001,2022_Nov_15_1708,ProdSingRedoBetween,2021.2.3,59.875506846191094,
,,,,,,,,,,,,,,,,,,,,,,,,,,,,,,,,,,,,,,,,,330.52322030067444,None,k,181.18792840000242,330.52322030067444,None,,,,,,,,,,,,,,,,,,,,,,,,,,,,,82  Silent,001,2022_Nov_15_1708,ProdSingRedoBetween,2021.2.3,59.875506846191094,
,,,,0,0,0,0,,,,,,,,,,,,,,,,,,,,,,528.2868353007361,None,,,,,,,,,,,,,,,,,military,65,1,silent,old,red,512.249978300184,None,512.249978300184,None,6,12.981120600365102,512.249978300184,None,12.981120600365102,525.253643700853,None,525.7677505007014,None,525.7677505007014,None,r,2.4953910000622272,525.7677505007014,None,2.4953910000622272,,,82  Silent,001,2022_Nov_15_1708,ProdSingRedoBetween,2021.2.3,59.875506846191094,
,,,,1,0,1,0,,,,,,,,,,,,,,,,,,,,,,537.8463746001944,None,,,,,,,,,,,,,,,,,session,138,2,silent,new,null,528.7917305007577,None,528.7917305007577,None,6,4.543370699509978,528.7917305007577,None,4.543370699509978,533.3591718003154,None,533.8639021003619,None,533.8639021003619,None,r,3.959242400713265,533.8639021003619,None,3.959242400713265,,,82  Silent,001,2022_Nov_15_1708,ProdSingRedoBetween,2021.2.3,59.875506846191094,
,,,,2,0,2,0,,,,,,,,,,,,,,,,,,,,,,543.1183672007173,None,,,,,,,,,,,,,,,,,dream,40,3,silent,old,blue,538.3654368007556,None,538.3654368007556,None,6,2.649557400494814,538.3654368007556,None,2.649557400494814,541.0326208006591,None,541.5335023002699,None,541.5335023002699,None,r,1.569470800459385,541.5335023002699,None,1.569470800459385,,,82  Silent,001,2022_Nov_15_1708,ProdSingRedoBetween,2021.2.3,59.875506846191094,
,,,,3,0,3,0,,,,,,,,,,,,,,,,,,,,,,550.060858800076,None,,,,,,,,,,,,,,,,,rough,71,4,silent,old,red,543.620118400082,None,543.620118400082,None,5,4.258867800235748,543.620118400082,None,4.258867800235748,547.9063240000978,None,548.4070438006893,None,548.4070438006893,None,f,1.6240590000525117,548.4070438006893,None,1.6240590000525117,,,82  Silent,001,2022_Nov_15_1708,ProdSingRedoBetween,2021.2.3,59.875506846191094,
,,,,4,0,4,0,,,,,,,,,,,,,,,,,,,,,,555.4304892001674,None,,,,,,,,,,,,,,,,,force,28,5,silent,old,yellow,550.5912173008546,None,550.5912173008546,None,5,2.6558632999658585,550.5912173008546,None,2.6558632999658585,553.2806622004136,None,553.7957064006478,None,553.7957064006478,None,f,1.6193429995328188,553.7957064006478,None,1.6193429995328188,,,82  Silent,001,2022_Nov_15_1708,ProdSingRedoBetween,2021.2.3,59.875506846191094,
,,,,5,0,5,0,,,,,,,,,,,,,,,,,,,,,,561.9229027004912,None,,,,,,,,,,,,,,,,,produce,51,6,silent,old,blue,555.940302000381,None,555.940302000381,None,6,3.1708520995453,555.940302000381,None,3.1708520995453,559.1458314005286,None,559.6569036999717,None,559.6569036999717,None,f,2.2381237000226974,559.6569036999717,None,2.2381237000226974,,,82  Silent,001,2022_Nov_15_1708,ProdSingRedoBetween,2021.2.3,59.875506846191094,
,,,,6,0,6,0,,,,,,,,,,,,,,,,,,,,,,569.6110803000629,None,,,,,,,,,,,,,,,,,background,78,7,silent,old,red,562.4465382006019,None,562.4465382006019,None,5,3.888479500077665,562.4465382006019,None,3.888479500077665,566.3595566004515,None,566.865710100159,None,566.865710100159,None,n,2.7253262996673584,566.865710100159,None,2.7253262996673584,,,82  Silent,001,2022_Nov_15_1708,ProdSingRedoBetween,2021.2.3,59.875506846191094,
,,,,7,0,7,0,,,,,,,,,,,,,,,,,,,,,,575.6840456007048,None,,,,,,,,,,,,,,,,,suspect,118,8,silent,new,null,570.1203597001731,None,570.1203597001731,None,6,3.5186224998906255,570.1203597001731,None,3.5186224998906255,573.6669187005609,None,574.1826595002785,None,574.1826595002785,None,f,1.480367500334978,574.1826595002785,None,1.480367500334978,,,82  Silent,001,2022_Nov_15_1708,ProdSingRedoBetween,2021.2.3,59.875506846191094,
,,,,8,0,8,0,,,,,,,,,,,,,,,,,,,,,,580.840450800024,None,,,,,,,,,,,,,,,,,speech,97,9,silent,new,null,576.1910701999441,None,576.1910701999441,None,6,3.103902000002563,576.1910701999441,None,3.103902000002563,579.3224706007168,None,579.825653500855,None,579.825653500855,None,r,0.9894040999934077,579.825653500855,None,0.9894040999934077,,,82  Silent,001,2022_Nov_15_1708,ProdSingRedoBetween,2021.2.3,59.875506846191094,
,,,,9,0,9,0,,,,,,,,,,,,,,,,,,,,,,586.8619047002867,None,,,,,,,,,,,,,,,,,congress,19,10,silent,old,yellow,581.3433169005439,None,581.3433169005439,None,6,3.6956954998895526,581.3433169005439,None,3.6956954998895526,585.0703738005832,None,585.5778079004958,None,585.5778079004958,None,n,1.2533229002729058,585.5778079004958,None,1.2533229002729058,,,82  Silent,001,2022_Nov_15_1708,ProdSingRedoBetween,2021.2.3,59.875506846191094,
,,,,10,0,10,0,,,,,,,,,,,,,,,,,,,,,,590.6322322003543,None,,,,,,,,,,,,,,,,,music,158,11,silent,new,null,587.362396100536,None,587.362396100536,None,6,1.692540599964559,587.362396100536,None,1.692540599964559,589.0822782004252,None,589.5981507003307,None,589.5981507003307,None,r,1.0168180000036955,589.5981507003307,None,1.0168180000036955,,,82  Silent,001,2022_Nov_15_1708,ProdSingRedoBetween,2021.2.3,59.875506846191094,
,,,,11,0,11,0,,,,,,,,,,,,,,,,,,,,,,596.1878644004464,None,,,,,,,,,,,,,,,,,phrase,130,12,silent,new,null,591.1423178007826,None,591.1423178007826,None,6,2.936656800098717,591.1423178007826,None,2.936656800098717,594.1036542002112,None,594.6076996000484,None,594.6076996000484,None,f,1.5512831006199121,594.6076996000484,None,1.5512831006199121,,,82  Silent,001,2022_Nov_15_1708,ProdSingRedoBetween,2021.2.3,59.875506846191094,
,,,,12,0,12,0,,,,,,,,,,,,,,,,,,,,,,599.8414866002277,None,,,,,,,,,,,,,,,,,empty,24,13,silent,old,yellow,596.7067987006158,None,596.7067987006158,None,6,2.060050799511373,596.7067987006158,None,2.060050799511373,598.7904043002054,None,599.2990791006014,None,599.2990791006014,None,f,0.5158396996557713,599.2990791006014,None,0.5158396996557713,,,82  Silent,001,2022_Nov_15_1708,ProdSingRedoBetween,2021.2.3,59.875506846191094,
,,,,13,0,13,0,,,,,,,,,,,,,,,,,,,,,,606.6982251005247,None,,,,,,,,,,,,,,,,,match,147,14,silent,new,null,600.3492273008451,None,600.3492273008451,None,6,3.105748999863863,600.3492273008451,None,3.105748999863863,603.4784589000046,None,603.9790749000385,None,603.9790749000385,None,n,2.699846100062132,603.9790749000385,None,2.699846100062132,,,82  Silent,001,2022_Nov_15_1708,ProdSingRedoBetween,2021.2.3,59.875506846191094,
,,,,14,0,14,0,,,,,,,,,,,,,,,,,,,,,,611.0526688005775,None,,,,,,,,,,,,,,,,,trail,95,15,silent,new,null,607.2034671008587,None,607.2034671008587,None,6,2.067479499615729,607.2034671008587,None,2.067479499615729,609.3023661002517,None,609.8015624005347,None,609.8015624005347,None,f,1.2294003004208207,609.8015624005347,None,1.2294003004208207,,,82  Silent,001,2022_Nov_15_1708,ProdSingRedoBetween,2021.2.3,59.875506846191094,
,,,,15,0,15,0,,,,,,,,,,,,,,,,,,,,,,617.141932300292,None,,,,,,,,,,,,,,,,,partner,143,16,silent,new,null,611.5606551002711,None,611.5606551002711,None,6,2.342324400320649,611.5606551002711,None,2.342324400320649,613.9251030003652,None,614.4423869000748,None,614.4423869000748,None,f,2.6847034003585577,614.4423869000748,None,2.6847034003585577,,,82  Silent,001,2022_Nov_15_1708,ProdSingRedoBetween,2021.2.3,59.875506846191094,
,,,,16,0,16,0,,,,,,,,,,,,,,,,,,,,,,620.4620320005342,None,,,,,,,,,,,,,,,,,measure,99,17,silent,new,null,617.6501926006749,None,617.6501926006749,None,6,1.7247493006289005,617.6501926006749,None,1.7247493006289005,619.3971188999712,None,619.9160418007523,None,619.9160418007523,None,r,0.5228829002007842,619.9160418007523,None,0.5228829002007842,,,82  Silent,001,2022_Nov_15_1708,ProdSingRedoBetween,2021.2.3,59.875506846191094,
,,,,17,0,17,0,,,,,,,,,,,,,,,,,,,,,,626.9872657004744,None,,,,,,,,,,,,,,,,,corner,100,18,silent,new,null,620.9719713004306,None,620.9719713004306,None,6,4.683029999956489,620.9719713004306,None,4.683029999956489,625.6839169999585,None,626.1845404999331,None,626.1845404999331,None,n,0.7823807997629046,626.1845404999331,None,0.7823807997629046,,,82  Silent,001,2022_Nov_15_1708,ProdSingRedoBetween,2021.2.3,59.875506846191094,
,,,,18,0,18,0,,,,,,,,,,,,,,,,,,,,,,631.543054100126,None,,,,,,,,,,,,,,,,,republic,150,19,silent,new,null,627.5180322006345,None,627.5180322006345,None,6,2.9449037993326783,627.5180322006345,None,2.9449037993326783,630.4893865007907,None,630.9928618008271,None,630.9928618008271,None,f,0.5260848999023438,630.9928618008271,None,0.5260848999023438,,,82  Silent,001,2022_Nov_15_1708,ProdSingRedoBetween,2021.2.3,59.875506846191094,
,,,,19,0,19,0,,,,,,,,,,,,,,,,,,,,,,634.3759721005335,None,,,,,,,,,,,,,,,,,education,76,20,silent,old,red,632.0613824008033,None,632.0613824008033,None,6,1.4096050998196006,632.0613824008033,None,1.4096050998196006,633.4953950000927,None,634.0123534006998,None,634.0123534006998,None,r,0.34651510044932365,634.0123534006998,None,0.34651510044932365,,,82  Silent,001,2022_Nov_15_1708,ProdSingRedoBetween,2021.2.3,59.875506846191094,
,,,,20,0,20,0,,,,,,,,,,,,,,,,,,,,,,639.2307404000312,None,,,,,,,,,,,,,,,,,member,179,21,silent,new,null,634.8829433005303,None,634.8829433005303,None,6,2.6518552005290985,634.8829433005303,None,2.6518552005290985,637.5706299003214,None,638.0796408001333,None,638.0796408001333,None,r,1.1272574998438358,638.0796408001333,None,1.1272574998438358,,,82  Silent,001,2022_Nov_15_1708,ProdSingRedoBetween,2021.2.3,59.875506846191094,
,,,,21,0,21,0,,,,,,,,,,,,,,,,,,,,,,643.952208600007,None,,,,,,,,,,,,,,,,,majority,30,22,silent,old,blue,639.7413036003709,None,639.7413036003709,None,6,2.761703399941325,639.7413036003709,None,2.761703399941325,642.538108500652,None,643.0646967003122,None,643.0646967003122,None,f,0.8622075999155641,643.0646967003122,None,0.8622075999155641,,,82  Silent,001,2022_Nov_15_1708,ProdSingRedoBetween,2021.2.3,59.875506846191094,
,,,,22,0,22,0,,,,,,,,,,,,,,,,,,,,,,648.9736496005207,None,,,,,,,,,,,,,,,,,service,121,23,silent,new,null,644.4670029999688,None,644.4670029999688,None,6,2.3077259995043278,644.4670029999688,None,2.3077259995043278,646.8068342003971,None,647.3223179001361,None,647.3223179001361,None,r,1.6285863993689418,647.3223179001361,None,1.6285863993689418,,,82  Silent,001,2022_Nov_15_1708,ProdSingRedoBetween,2021.2.3,59.875506846191094,
,,,,23,0,23,0,,,,,,,,,,,,,,,,,,,,,,652.2604445004836,None,,,,,,,,,,,,,,,,,solution,164,24,silent,new,null,649.4834317006171,None,649.4834317006171,None,6,2.0913482001051307,649.4834317006171,None,2.0913482001051307,651.5948538007215,None,652.115084500052,None,652.115084500052,None,r,0.12379460036754608,652.115084500052,None,0.12379460036754608,,,82  Silent,001,2022_Nov_15_1708,ProdSingRedoBetween,2021.2.3,59.875506846191094,
,,,,24,0,24,0,,,,,,,,,,,,,,,,,,,,,,655.6305186999962,None,,,,,,,,,,,,,,,,,comfort,145,25,silent,new,null,652.7682666005567,None,652.7682666005567,None,6,1.182578400708735,652.7682666005567,None,1.182578400708735,653.9808718999848,None,654.4958248008043,None,654.4958248008043,None,f,1.1191330002620816,654.4958248008043,None,1.1191330002620816,,,82  Silent,001,2022_Nov_15_1708,ProdSingRedoBetween,2021.2.3,59.875506846191094,
,,,,25,0,25,0,,,,,,,,,,,,,,,,,,,,,,659.9514295002446,None,,,,,,,,,,,,,,,,,express,27,26,silent,old,yellow,656.141139600426,None,656.141139600426,None,6,1.785822100006044,656.141139600426,None,1.785822100006044,657.9506616005674,None,658.4499115999788,None,658.4499115999788,None,f,1.476956400088966,658.4499115999788,None,1.476956400088966,,,82  Silent,001,2022_Nov_15_1708,ProdSingRedoBetween,2021.2.3,59.875506846191094,
,,,,26,0,26,0,,,,,,,,,,,,,,,,,,,,,,662.73742270004,None,,,,,,,,,,,,,,,,,throw,139,27,silent,new,null,660.4519258001819,None,660.4519258001819,None,6,1.450908400118351,660.4519258001819,None,1.450908400118351,661.9211691003293,None,662.4206520002335,None,662.4206520002335,None,r,0.2901927996426821,662.4206520002335,None,0.2901927996426821,,,82  Silent,001,2022_Nov_15_1708,ProdSingRedoBetween,2021.2.3,59.875506846191094,
,,,,27,0,27,0,,,,,,,,,,,,,,,,,,,,,,668.5433086007833,None,,,,,,,,,,,,,,,,,region,42,28,silent,old,blue,663.2482753004879,None,663.2482753004879,None,6,2.918473499827087,663.2482753004879,None,2.918473499827087,666.194073700346,None,666.7086761007085,None,666.7086761007085,None,n,1.8182370997965336,666.7086761007085,None,1.8182370997965336,,,82  Silent,001,2022_Nov_15_1708,ProdSingRedoBetween,2021.2.3,59.875506846191094,
,,,,28,0,28,0,,,,,,,,,,,,,,,,,,,,,,671.6795664001256,None,,,,,,,,,,,,,,,,,ground,26,29,silent,old,yellow,669.0545188002288,None,669.0545188002288,None,6,1.3923247000202537,669.0545188002288,None,1.3923247000202537,670.4646442001686,None,670.9791417000815,None,670.9791417000815,None,f,0.683627899736166,670.9791417000815,None,0.683627899736166,,,82  Silent,001,2022_Nov_15_1708,ProdSingRedoBetween,2021.2.3,59.875506846191094,
,,,,29,0,29,0,,,,,,,,,,,,,,,,,,,,,,676.6347925001755,None,,,,,,,,,,,,,,,,,danger,25,30,silent,old,yellow,672.1801649006084,None,672.1801649006084,None,6,3.3945804005488753,672.1801649006084,None,3.3945804005488753,675.6084042005241,None,676.1177170006558,None,676.1177170006558,None,f,0.48911079950630665,676.1177170006558,None,0.48911079950630665,,,82  Silent,001,2022_Nov_15_1708,ProdSingRedoBetween,2021.2.3,59.875506846191094,
,,,,30,0,30,0,,,,,,,,,,,,,,,,,,,,,,680.9557166006416,None,,,,,,,,,,,,,,,,,second,168,31,silent,new,null,677.1429731007665,None,677.1429731007665,None,6,2.7278212001547217,677.1429731007665,None,2.7278212001547217,679.8910170001909,None,680.4139542002231,None,680.4139542002231,None,n,0.5208018003031611,680.4139542002231,None,0.5208018003031611,,,82  Silent,001,2022_Nov_15_1708,ProdSingRedoBetween,2021.2.3,59.875506846191094,
,,,,31,0,31,0,,,,,,,,,,,,,,,,,,,,,,684.842888600193,None,,,,,,,,,,,,,,,,,employment,107,32,silent,new,null,681.4668131005019,None,681.4668131005019,None,6,2.060140499845147,681.4668131005019,None,2.060140499845147,683.5595565000549,None,684.0647057006136,None,684.0647057006136,None,f,0.7501181997358799,684.0647057006136,None,0.7501181997358799,,,82  Silent,001,2022_Nov_15_1708,ProdSingRedoBetween,2021.2.3,59.875506846191094,
,,,,32,0,32,0,,,,,,,,,,,,,,,,,,,,,,689.8478864999488,None,,,,,,,,,,,,,,,,,cross,132,33,silent,new,null,685.3441238002852,None,685.3441238002852,None,6,3.510830800049007,685.3441238002852,None,3.510830800049007,688.8858859008178,None,689.3975395001471,None,689.3975395001471,None,f,0.42541519924998283,689.3975395001471,None,0.42541519924998283,,,82  Silent,001,2022_Nov_15_1708,ProdSingRedoBetween,2021.2.3,59.875506846191094,
,,,,33,0,33,0,,,,,,,,,,,,,,,,,,,,,,693.4355226000771,None,,,,,,,,,,,,,,,,,marriage,175,34,silent,new,null,690.3513064002618,None,690.3513064002618,None,6,1.9276112001389265,690.3513064002618,None,1.9276112001389265,692.3013661000878,None,692.8047478003427,None,692.8047478003427,None,n,0.6020315000787377,692.8047478003427,None,0.6020315000787377,,,82  Silent,001,2022_Nov_15_1708,ProdSingRedoBetween,2021.2.3,59.875506846191094,
,,,,34,0,34,0,,,,,,,,,,,,,,,,,,,,,,697.2347731003538,None,,,,,,,,,,,,,,,,,public,129,35,silent,new,null,693.9380667004734,None,693.9380667004734,None,6,1.7886915002018213,693.9380667004734,None,1.7886915002018213,695.7582919001579,None,696.2711297003552,None,696.2711297003552,None,r,0.9195663006976247,696.2711297003552,None,0.9195663006976247,,,82  Silent,001,2022_Nov_15_1708,ProdSingRedoBetween,2021.2.3,59.875506846191094,
,,,,35,0,35,0,,,,,,,,,,,,,,,,,,,,,,703.7117664003745,None,,,,,,,,,,,,,,,,,revolution,79,36,silent,old,red,697.742600700818,None,697.742600700818,None,6,1.9524379996582866,697.742600700818,None,1.9524379996582866,699.7301094001159,None,700.2443360006437,None,700.2443360006437,None,f,3.4504054002463818,700.2443360006437,None,3.4504054002463818,,,82  Silent,001,2022_Nov_15_1708,ProdSingRedoBetween,2021.2.3,59.875506846191094,
,,,,36,0,36,0,,,,,,,,,,,,,,,,,,,,,,707.3864390002564,None,,,,,,,,,,,,,,,,,blind,176,37,silent,new,null,704.2207312006503,None,704.2207312006503,None,6,2.2581692999228835,704.2207312006503,None,2.2581692999228835,706.4996286006644,None,707.0191566003487,None,707.0191566003487,None,n,0.33992249984294176,707.0191566003487,None,0.33992249984294176,,,82  Silent,001,2022_Nov_15_1708,ProdSingRedoBetween,2021.2.3,59.875506846191094,
,,,,37,0,37,0,,,,,,,,,,,,,,,,,,,,,,710.668583500199,None,,,,,,,,,,,,,,,,,thing,56,38,silent,old,blue,707.9050977006555,None,707.9050977006555,None,6,1.7816121997311711,707.9050977006555,None,1.7816121997311711,709.7195003004745,None,710.2355434000492,None,710.2355434000492,None,f,0.4032663004472852,710.2355434000492,None,0.4032663004472852,,,82  Silent,001,2022_Nov_15_1708,ProdSingRedoBetween,2021.2.3,59.875506846191094,
,,,,38,0,38,0,,,,,,,,,,,,,,,,,,,,,,714.221900800243,None,,,,,,,,,,,,,,,,,crisis,140,39,silent,new,null,711.1843950999901,None,711.1843950999901,None,6,2.2623723996803164,711.1843950999901,None,2.2623723996803164,713.4727830002084,None,713.9721087999642,None,713.9721087999642,None,r,0.23466529976576567,713.9721087999642,None,0.23466529976576567,,,82  Silent,001,2022_Nov_15_1708,ProdSingRedoBetween,2021.2.3,59.875506846191094,
,,,,39,0,39,0,,,,,,,,,,,,,,,,,,,,,,717.6756506999955,None,,,,,,,,,,,,,,,,,literature,171,40,silent,new,null,714.7312819007784,None,714.7312819007784,None,6,1.7795441001653671,714.7312819007784,None,1.7795441001653671,716.5419970005751,None,717.0417912006378,None,717.0417912006378,None,r,0.6129964999854565,717.0417912006378,None,0.6129964999854565,,,82  Silent,001,2022_Nov_15_1708,ProdSingRedoBetween,2021.2.3,59.875506846191094,
,,,,40,0,40,0,,,,,,,,,,,,,,,,,,,,,,721.7295772004873,None,,,,,,,,,,,,,,,,,power,37,41,silent,old,blue,718.1832162002102,None,718.1832162002102,None,6,2.247672500088811,718.1832162002102,None,2.247672500088811,720.4621796002612,None,720.9624190004542,None,720.9624190004542,None,f,0.7483766004443169,720.9624190004542,None,0.7483766004443169,,,82  Silent,001,2022_Nov_15_1708,ProdSingRedoBetween,2021.2.3,59.875506846191094,
,,,,41,0,41,0,,,,,,,,,,,,,,,,,,,,,,725.9170790007338,None,,,,,,,,,,,,,,,,,general,112,42,silent,new,null,722.2366634001955,None,722.2366634001955,None,6,2.6581346997991204,722.2366634001955,None,2.6581346997991204,724.918438100256,None,725.433591500856,None,725.433591500856,None,n,0.45325590018182993,725.433591500856,None,0.45325590018182993,,,82  Silent,001,2022_Nov_15_1708,ProdSingRedoBetween,2021.2.3,59.875506846191094,
,,,,42,0,42,0,,,,,,,,,,,,,,,,,,,,,,729.1705239005387,None,,,,,,,,,,,,,,,,,machinery,52,43,silent,old,blue,726.4206880005077,None,726.4206880005077,None,6,1.8179703000932932,726.4206880005077,None,1.8179703000932932,728.2712603006512,None,728.7870050007477,None,728.7870050007477,None,r,0.36377429962158203,728.7870050007477,None,0.36377429962158203,,,82  Silent,001,2022_Nov_15_1708,ProdSingRedoBetween,2021.2.3,59.875506846191094,
,,,,43,0,43,0,,,,,,,,,,,,,,,,,,,,,,732.1567902006209,None,,,,,,,,,,,,,,,,,graduate,48,44,silent,old,blue,729.6754226004705,None,729.6754226004705,None,6,1.4753282004967332,729.6754226004705,None,1.4753282004967332,731.1736139003187,None,731.6774892006069,None,731.6774892006069,None,r,0.4491779999807477,731.6774892006069,None,0.4491779999807477,,,82  Silent,001,2022_Nov_15_1708,ProdSingRedoBetween,2021.2.3,59.875506846191094,
,,,,44,0,44,0,,,,,,,,,,,,,,,,,,,,,,736.3109196005389,None,,,,,,,,,,,,,,,,,right,136,45,silent,new,null,732.6731374999508,None,732.6731374999508,None,6,2.9096442004665732,732.6731374999508,None,2.9096442004665732,735.6137647004798,None,736.1273817000911,None,736.1273817000911,None,f,0.16740379948168993,736.1273817000911,None,0.16740379948168993,,,82  Silent,001,2022_Nov_15_1708,ProdSingRedoBetween,2021.2.3,59.875506846191094,
,,,,45,0,45,0,,,,,,,,,,,,,,,,,,,,,,742.7674278002232,None,,,,,,,,,,,,,,,,,recall,154,46,silent,new,null,736.8196086008102,None,736.8196086008102,None,6,2.8351425994187593,736.8196086008102,None,2.8351425994187593,739.6807233002037,None,740.1849132999778,None,740.1849132999778,None,r,2.5658069998025894,740.1849132999778,None,2.5658069998025894,,,82  Silent,001,2022_Nov_15_1708,ProdSingRedoBetween,2021.2.3,59.875506846191094,
,,,,46,0,46,0,,,,,,,,,,,,,,,,,,,,,,749.0569656006992,None,,,,,,,,,,,,,,,,,division,68,47,silent,old,red,743.2753257006407,None,743.2753257006407,None,6,2.9233856992796063,743.2753257006407,None,2.9233856992796063,746.2250705007464,None,746.744506300427,None,746.744506300427,None,f,2.2861930998042226,746.744506300427,None,2.2861930998042226,,,82  Silent,001,2022_Nov_15_1708,ProdSingRedoBetween,2021.2.3,59.875506846191094,
,,,,47,0,47,0,,,,,,,,,,,,,,,,,,,,,,753.8784454008564,None,,,,,,,,,,,,,,,,,rural,131,48,silent,new,null,749.5575442006811,None,749.5575442006811,None,6,1.6814251998439431,749.5575442006811,None,1.6814251998439431,751.2683483008295,None,751.7780027007684,None,751.7780027007684,None,n,2.0847501000389457,751.7780027007684,None,2.0847501000389457,,,82  Silent,001,2022_Nov_15_1708,ProdSingRedoBetween,2021.2.3,59.875506846191094,
,,,,48,0,48,0,,,,,,,,,,,,,,,,,,,,,,762.286866100505,None,,,,,,,,,,,,,,,,,title,90,49,silent,new,null,754.3806976005435,None,754.3806976005435,None,6,3.6819226993247867,754.3806976005435,None,3.6819226993247867,758.0864900005981,None,758.604088800028,None,758.604088800028,None,n,3.6665362995117903,758.604088800028,None,3.6665362995117903,,,82  Silent,001,2022_Nov_15_1708,ProdSingRedoBetween,2021.2.3,59.875506846191094,
,,,,49,0,49,0,,,,,,,,,,,,,,,,,,,,,,766.5743980007246,None,,,,,,,,,,,,,,,,,skill,142,50,silent,new,null,762.7963246004656,None,762.7963246004656,None,6,1.9863670002669096,762.7963246004656,None,1.9863670002669096,764.8079287,None,765.323227500543,None,765.323227500543,None,f,1.2275085002183914,765.323227500543,None,1.2275085002183914,,,82  Silent,001,2022_Nov_15_1708,ProdSingRedoBetween,2021.2.3,59.875506846191094,
,,,,50,0,50,0,,,,,,,,,,,,,,,,,,,,,,769.594085900113,None,,,,,,,,,,,,,,,,,evidence,106,51,silent,new,null,767.0800312999636,None,767.0800312999636,None,6,1.5988811999559402,767.0800312999636,None,1.5988811999559402,768.7250551003963,None,769.2328635007143,None,769.2328635007143,None,n,0.3337773000821471,769.2328635007143,None,0.3337773000821471,,,82  Silent,001,2022_Nov_15_1708,ProdSingRedoBetween,2021.2.3,59.875506846191094,
,,,,51,0,51,0,,,,,,,,,,,,,,,,,,,,,,773.5980678005144,None,,,,,,,,,,,,,,,,,south,111,52,silent,new,null,770.1045192005113,None,770.1045192005113,None,6,1.7341638999059796,770.1045192005113,None,1.7341638999059796,771.8650151006877,None,772.3800558000803,None,772.3800558000803,None,r,1.2026073997840285,772.3800558000803,None,1.2026073997840285,,,82  Silent,001,2022_Nov_15_1708,ProdSingRedoBetween,2021.2.3,59.875506846191094,
,,,,52,0,52,0,,,,,,,,,,,,,,,,,,,,,,777.1346540004015,None,,,,,,,,,,,,,,,,,death,134,53,silent,new,null,774.0986621007323,None,774.0986621007323,None,6,1.5560294995084405,774.0986621007323,None,1.5560294995084405,775.6850595008582,None,776.2008704999462,None,776.2008704999462,None,f,0.9097346002236009,776.2008704999462,None,0.9097346002236009,,,82  Silent,001,2022_Nov_15_1708,ProdSingRedoBetween,2021.2.3,59.875506846191094,
,,,,53,0,53,0,,,,,,,,,,,,,,,,,,,,,,781.6395609006286,None,,,,,,,,,,,,,,,,,business,92,54,silent,new,null,777.6431176001206,None,777.6431176001206,None,6,1.4675249001011252,777.6431176001206,None,1.4675249001011252,779.1383278006688,None,779.6417502006516,None,779.6417502006516,None,f,1.9808063004165888,779.6417502006516,None,1.9808063004165888,,,82  Silent,001,2022_Nov_15_1708,ProdSingRedoBetween,2021.2.3,59.875506846191094,
,,,,54,0,54,0,,,,,,,,,,,,,,,,,,,,,,786.3608004003763,None,,,,,,,,,,,,,,,,,guest,17,55,silent,old,yellow,782.146093800664,None,782.146093800664,None,6,3.4045211002230644,782.146093800664,None,3.4045211002230644,785.5797419007868,None,786.0960656004027,None,786.0960656004027,None,r,0.24649239983409643,786.0960656004027,None,0.24649239983409643,,,82  Silent,001,2022_Nov_15_1708,ProdSingRedoBetween,2021.2.3,59.875506846191094,
,,,,55,0,55,0,,,,,,,,,,,,,,,,,,,,,,789.2471443004906,None,,,,,,,,,,,,,,,,,distance,0,56,silent,old,yellow,786.8690945999697,None,786.8690945999697,None,6,1.2655033003538847,786.8690945999697,None,1.2655033003538847,788.1674190005288,None,788.6814571004361,None,788.6814571004361,None,r,0.5410946002230048,788.6814571004361,None,0.5410946002230048,,,82  Silent,001,2022_Nov_15_1708,ProdSingRedoBetween,2021.2.3,59.875506846191094,
,,,,56,0,56,0,,,,,,,,,,,,,,,,,,,,,,792.5002769008279,None,,,,,,,,,,,,,,,,,science,29,57,silent,old,blue,789.7638333002105,None,789.7638333002105,None,6,1.2507969997823238,789.7638333002105,None,1.2507969997823238,791.0336519004777,None,791.5494738006964,None,791.5494738006964,None,r,0.9291694005951285,791.5494738006964,None,0.9291694005951285,,,82  Silent,001,2022_Nov_15_1708,ProdSingRedoBetween,2021.2.3,59.875506846191094,
,,,,57,0,57,0,,,,,,,,,,,,,,,,,,,,,,795.7701989002526,None,,,,,,,,,,,,,,,,,volume,86,58,silent,old,red,793.0117774000391,None,793.0117774000391,None,6,1.234875500202179,793.0117774000391,None,1.234875500202179,794.2726082000881,None,794.7905560005456,None,794.7905560005456,None,f,0.9601691998541355,794.7905560005456,None,0.9601691998541355,,,82  Silent,001,2022_Nov_15_1708,ProdSingRedoBetween,2021.2.3,59.875506846191094,
,,,,58,0,58,0,,,,,,,,,,,,,,,,,,,,,,798.990083700046,None,,,,,,,,,,,,,,,,,youth,3,59,silent,old,yellow,796.2740937005728,None,796.2740937005728,None,6,1.4125279001891613,796.2740937005728,None,1.4125279001891613,797.7069310005754,None,798.2113656001166,None,798.2113656001166,None,r,0.7553963996469975,798.2113656001166,None,0.7553963996469975,,,82  Silent,001,2022_Nov_15_1708,ProdSingRedoBetween,2021.2.3,59.875506846191094,
,,,,59,0,59,0,,,,,,,,,,,,,,,,,,,,,,804.2951407004148,None,,,,,,,,,,,,,,,,,society,122,60,silent,new,null,799.5015366002917,None,799.5015366002917,None,6,3.4810918997973204,799.5015366002917,None,3.4810918997973204,803.0118953008205,None,803.5163173004985,None,803.5163173004985,None,f,0.7623568000271916,803.5163173004985,None,0.7623568000271916,,,82  Silent,001,2022_Nov_15_1708,ProdSingRedoBetween,2021.2.3,59.875506846191094,
,,,,60,0,60,0,,,,,,,,,,,,,,,,,,,,,,807.4317928999662,None,,,,,,,,,,,,,,,,,store,166,61,silent,new,null,804.8030134001747,None,804.8030134001747,None,6,1.1955952001735568,804.8030134001747,None,1.1955952001735568,806.014821600169,None,806.5144484005868,None,806.5144484005868,None,r,0.9001443004235625,806.5144484005868,None,0.9001443004235625,,,82  Silent,001,2022_Nov_15_1708,ProdSingRedoBetween,2021.2.3,59.875506846191094,
,,,,61,0,61,0,,,,,,,,,,,,,,,,,,,,,,811.9697170006111,None,,,,,,,,,,,,,,,,,interview,20,62,silent,old,yellow,807.9417176004499,None,807.9417176004499,None,6,2.400973199866712,807.9417176004499,None,2.400973199866712,810.3687618002295,None,810.8687201002613,None,810.8687201002613,None,f,1.0818754006177187,810.8687201002613,None,1.0818754006177187,,,82  Silent,001,2022_Nov_15_1708,ProdSingRedoBetween,2021.2.3,59.875506846191094,
,,,,62,0,62,0,,,,,,,,,,,,,,,,,,,,,,818.2926774006337,None,,,,,,,,,,,,,,,,,prime,127,63,silent,new,null,812.4728029007092,None,812.4728029007092,None,5,4.485679700039327,812.4728029007092,None,4.485679700039327,816.97621480003,None,817.4917325004935,None,817.4917325004935,None,n,0.7787613002583385,817.4917325004935,None,0.7787613002583385,,,82  Silent,001,2022_Nov_15_1708,ProdSingRedoBetween,2021.2.3,59.875506846191094,
,,,,63,0,63,0,,,,,,,,,,,,,,,,,,,,,,821.5625229999423,None,,,,,,,,,,,,,,,,,narrow,124,64,silent,new,null,818.7930707000196,None,818.7930707000196,None,6,1.9335985006764531,818.7930707000196,None,1.9335985006764531,820.7615168001503,None,821.2665673000738,None,821.2665673000738,None,n,0.2680000998079777,821.2665673000738,None,0.2680000998079777,,,82  Silent,001,2022_Nov_15_1708,ProdSingRedoBetween,2021.2.3,59.875506846191094,
,,,,64,0,64,0,,,,,,,,,,,,,,,,,,,,,,826.4341307003051,None,,,,,,,,,,,,,,,,,straight,22,65,silent,old,yellow,822.0742071000859,None,822.0742071000859,None,6,1.9405719991773367,822.0742071000859,None,1.9405719991773367,824.0421841004863,None,824.553857200779,None,824.553857200779,None,f,1.852641299366951,824.553857200779,None,1.852641299366951,,,82  Silent,001,2022_Nov_15_1708,ProdSingRedoBetween,2021.2.3,59.875506846191094,
,,,,65,0,65,0,,,,,,,,,,,,,,,,,,,,,,829.6204858999699,None,,,,,,,,,,,,,,,,,listen,116,66,silent,new,null,826.943402200006,None,826.943402200006,None,6,1.4072008999064565,826.943402200006,None,1.4072008999064565,828.3711300007999,None,828.886819800362,None,828.886819800362,None,r,0.7117660995572805,828.886819800362,None,0.7117660995572805,,,82  Silent,001,2022_Nov_15_1708,ProdSingRedoBetween,2021.2.3,59.875506846191094,
,,,,66,0,66,0,,,,,,,,,,,,,,,,,,,,,,833.7247358001769,None,,,,,,,,,,,,,,,,,clear,49,67,silent,old,blue,830.1324366005138,None,830.1324366005138,None,6,1.6741910995915532,830.1324366005138,None,1.6741910995915532,831.8229349004105,None,832.3243990000337,None,832.3243990000337,None,f,1.3702116999775171,832.3243990000337,None,1.3702116999775171,,,82  Silent,001,2022_Nov_15_1708,ProdSingRedoBetween,2021.2.3,59.875506846191094,
,,,,67,0,67,0,,,,,,,,,,,,,,,,,,,,,,837.7286939006299,None,,,,,,,,,,,,,,,,,angle,167,68,silent,new,null,834.2253714008257,None,834.2253714008257,None,6,2.061197600327432,834.2253714008257,None,2.061197600327432,836.3104327004403,None,836.8113850001246,None,836.8113850001246,None,f,0.8911261996254325,836.8113850001246,None,0.8911261996254325,,,82  Silent,001,2022_Nov_15_1708,ProdSingRedoBetween,2021.2.3,59.875506846191094,
,,,,68,0,68,0,,,,,,,,,,,,,,,,,,,,,,844.4854727005586,None,,,,,,,,,,,,,,,,,impact,45,69,silent,old,blue,838.2408043006435,None,838.2408043006435,None,6,4.325826800428331,838.2408043006435,None,4.325826800428331,842.587182899937,None,843.1039390005171,None,843.1039390005171,None,f,1.350561499595642,843.1039390005171,None,1.350561499595642,,,82  Silent,001,2022_Nov_15_1708,ProdSingRedoBetween,2021.2.3,59.875506846191094,
,,,,69,0,69,0,,,,,,,,,,,,,,,,,,,,,,848.5394769003615,None,,,,,,,,,,,,,,,,,chief,64,70,silent,old,red,844.9920588005334,None,844.9920588005334,None,6,2.0544964000582695,844.9920588005334,None,2.0544964000582695,847.0726358005777,None,847.5718833999708,None,847.5718833999708,None,f,0.9386883992701769,847.5718833999708,None,0.9386883992701769,,,82  Silent,001,2022_Nov_15_1708,ProdSingRedoBetween,2021.2.3,59.875506846191094,
,,,,70,0,70,0,,,,,,,,,,,,,,,,,,,,,,852.2431560000405,None,,,,,,,,,,,,,,,,,answer,114,71,silent,new,null,849.0477555003017,None,849.0477555003017,None,6,1.9348137006163597,849.0477555003017,None,1.9348137006163597,851.0120403999463,None,851.5260581001639,None,851.5260581001639,None,f,0.6964830001816154,851.5260581001639,None,0.6964830001816154,,,82  Silent,001,2022_Nov_15_1708,ProdSingRedoBetween,2021.2.3,59.875506846191094,
,,,,71,0,71,0,,,,,,,,,,,,,,,,,,,,,,854.945920499973,None,,,,,,,,,,,,,,,,,strain,96,72,silent,new,null,852.7480843001977,None,852.7480843001977,None,6,1.3945321002975106,852.7480843001977,None,1.3945321002975106,854.1632233001292,None,854.6791454004124,None,854.6791454004124,None,r,0.23936119955033064,854.6791454004124,None,0.23936119955033064,,,82  Silent,001,2022_Nov_15_1708,ProdSingRedoBetween,2021.2.3,59.875506846191094,
,,,,72,0,72,0,,,,,,,,,,,,,,,,,,,,,,857.4651057003066,None,,,,,,,,,,,,,,,,,notice,137,73,silent,new,null,855.4551257006824,None,855.4551257006824,None,6,1.3913374999538064,855.4551257006824,None,1.3913374999538064,856.8663168000057,None,857.3817909006029,None,857.3817909006029,None,r,0.0646932004019618,857.3817909006029,None,0.0646932004019618,,,82  Silent,001,2022_Nov_15_1708,ProdSingRedoBetween,2021.2.3,59.875506846191094,
,,,,73,0,73,0,,,,,,,,,,,,,,,,,,,,,,860.8550743004307,None,,,,,,,,,,,,,,,,,color,160,74,silent,new,null,857.9685801006854,None,857.9685801006854,None,6,1.317934500053525,857.9685801006854,None,1.317934500053525,859.317532800138,None,859.8172924006358,None,859.8172924006358,None,f,1.0132451001554728,859.8172924006358,None,1.0132451001554728,,,82  Silent,001,2022_Nov_15_1708,ProdSingRedoBetween,2021.2.3,59.875506846191094,
,,,,74,0,74,0,,,,,,,,,,,,,,,,,,,,,,863.6418643007055,None,,,,,,,,,,,,,,,,,principal,88,75,silent,old,red,861.3749539004639,None,861.3749539004639,None,6,1.3355200001969934,861.3749539004639,None,1.3355200001969934,862.739998000674,None,863.2580133005977,None,863.2580133005977,None,r,0.3565889000892639,863.2580133005977,None,0.3565889000892639,,,82  Silent,001,2022_Nov_15_1708,ProdSingRedoBetween,2021.2.3,59.875506846191094,
,,,,75,0,75,0,,,,,,,,,,,,,,,,,,,,,,866.1070847008377,None,,,,,,,,,,,,,,,,,brief,21,76,silent,old,yellow,864.1622279006988,None,864.1622279006988,None,6,1.1722809998318553,864.1622279006988,None,1.1722809998318553,865.3578028008342,None,865.8780040005222,None,865.8780040005222,None,f,0.20058989990502596,865.8780040005222,None,0.20058989990502596,,,82  Silent,001,2022_Nov_15_1708,ProdSingRedoBetween,2021.2.3,59.875506846191094,
,,,,76,0,76,0,,,,,,,,,,,,,,,,,,,,,,868.7595911007375,None,,,,,,,,,,,,,,,,,close,109,77,silent,new,null,866.6133297001943,None,866.6133297001943,None,6,1.009289899840951,866.6133297001943,None,1.009289899840951,867.6460263002664,None,868.164599600248,None,868.164599600248,None,r,0.5699365995824337,868.164599600248,None,0.5699365995824337,,,82  Silent,001,2022_Nov_15_1708,ProdSingRedoBetween,2021.2.3,59.875506846191094,
,,,,77,0,77,0,,,,,,,,,,,,,,,,,,,,,,871.0786421000957,None,,,,,,,,,,,,,,,,,patient,155,78,silent,new,null,869.2714126007631,None,869.2714126007631,None,6,1.1830832995474339,869.2714126007631,None,1.1830832995474339,870.4810123005882,None,870.9953044001013,None,870.9953044001013,None,r,0.059237600304186344,870.9953044001013,None,0.059237600304186344,,,82  Silent,001,2022_Nov_15_1708,ProdSingRedoBetween,2021.2.3,59.875506846191094,
,,,,78,0,78,0,,,,,,,,,,,,,,,,,,,,,,874.2819278007373,None,,,,,,,,,,,,,,,,,contract,36,79,silent,old,blue,871.5885408008471,None,871.5885408008471,None,6,1.8420238001272082,871.5885408008471,None,1.8420238001272082,873.450717500411,None,873.9646962005645,None,873.9646962005645,None,f,0.29783579986542463,873.9646962005645,None,0.29783579986542463,,,82  Silent,001,2022_Nov_15_1708,ProdSingRedoBetween,2021.2.3,59.875506846191094,
,,,,79,0,79,0,,,,,,,,,,,,,,,,,,,,,,876.6038351003081,None,,,,,,,,,,,,,,,,,primary,72,80,silent,old,red,874.7936470005661,None,874.7936470005661,None,6,1.0928560998290777,874.7936470005661,None,1.0928560998290777,875.9186828006059,None,876.4384947000071,None,876.4384947000071,None,f,0.14404950011521578,876.4384947000071,None,0.14404950011521578,,,82  Silent,001,2022_Nov_15_1708,ProdSingRedoBetween,2021.2.3,59.875506846191094,
,,,,80,0,80,0,,,,,,,,,,,,,,,,,,,,,,879.1200520005077,None,,,,,,,,,,,,,,,,,crowd,80,81,silent,old,red,877.1200944008306,None,877.1200944008306,None,6,1.38232840038836,877.1200944008306,None,1.38232840038836,878.5219913003966,None,879.0437742006034,None,879.0437742006034,None,r,0.05870130006223917,879.0437742006034,None,0.05870130006223917,,,82  Silent,001,2022_Nov_15_1708,ProdSingRedoBetween,2021.2.3,59.875506846191094,
,,,,81,0,81,0,,,,,,,,,,,,,,,,,,,,,,881.221941200085,None,,,,,,,,,,,,,,,,,story,133,82,silent,new,null,879.6348660001531,None,879.6348660001531,None,6,0.9639339996501803,879.6348660001531,None,0.9639339996501803,880.6229426003993,None,881.1266722008586,None,881.1266722008586,None,r,0.07984769996255636,881.1266722008586,None,0.07984769996255636,,,82  Silent,001,2022_Nov_15_1708,ProdSingRedoBetween,2021.2.3,59.875506846191094,
,,,,82,0,82,0,,,,,,,,,,,,,,,,,,,,,,883.257162200287,None,,,,,,,,,,,,,,,,,minute,93,83,silent,new,null,881.7254509003833,None,881.7254509003833,None,6,0.8732187002897263,881.7254509003833,None,0.8732187002897263,882.6289396006614,None,883.1407555006444,None,883.1407555006444,None,r,0.08968530036509037,883.1407555006444,None,0.08968530036509037,,,82  Silent,001,2022_Nov_15_1708,ProdSingRedoBetween,2021.2.3,59.875506846191094,
,,,,83,0,83,0,,,,,,,,,,,,,,,,,,,,,,885.3762380005792,None,,,,,,,,,,,,,,,,,short,89,84,silent,old,red,883.7685875007883,None,883.7685875007883,None,6,0.7819192996248603,883.7685875007883,None,0.7819192996248603,884.5808419007808,None,885.0949698006734,None,885.0949698006734,None,f,0.2634547995403409,885.0949698006734,None,0.2634547995403409,,,82  Silent,001,2022_Nov_15_1708,ProdSingRedoBetween,2021.2.3,59.875506846191094,
,,,,84,0,84,0,,,,,,,,,,,,,,,,,,,,,,888.6128577003255,None,,,,,,,,,,,,,,,,,piece,135,85,silent,new,null,885.8793908003718,None,885.8793908003718,None,6,1.5990683995187283,885.8793908003718,None,1.5990683995187283,887.4957247003913,None,887.998861300759,None,887.998861300759,None,n,0.5916010001674294,887.998861300759,None,0.5916010001674294,,,82  Silent,001,2022_Nov_15_1708,ProdSingRedoBetween,2021.2.3,59.875506846191094,
,,,,85,0,85,0,,,,,,,,,,,,,,,,,,,,,,892.2831782000139,None,,,,,,,,,,,,,,,,,nature,174,86,silent,new,null,889.1217824006453,None,889.1217824006453,None,6,1.3888317001983523,889.1217824006453,None,1.3888317001983523,890.5374797005206,None,891.0487501006573,None,891.0487501006573,None,r,1.205715300515294,891.0487501006573,None,1.205715300515294,,,82  Silent,001,2022_Nov_15_1708,ProdSingRedoBetween,2021.2.3,59.875506846191094,
,,,,86,0,86,0,,,,,,,,,,,,,,,,,,,,,,894.6325836004689,None,,,,,,,,,,,,,,,,,relation,67,87,silent,old,red,892.7904234007001,None,892.7904234007001,None,6,0.9439438004046679,892.7904234007001,None,0.9439438004046679,893.7523630000651,None,894.2521329000592,None,894.2521329000592,None,r,0.33844560012221336,894.2521329000592,None,0.33844560012221336,,,82  Silent,001,2022_Nov_15_1708,ProdSingRedoBetween,2021.2.3,59.875506846191094,
,,,,87,0,87,0,,,,,,,,,,,,,,,,,,,,,,896.6542410999537,None,,,,,,,,,,,,,,,,,center,46,88,silent,old,blue,895.1363474000245,None,895.1363474000245,None,6,0.7580086998641491,895.1363474000245,None,0.7580086998641491,895.9200877007097,None,896.4204224999994,None,896.4204224999994,None,f,0.21002529934048653,896.4204224999994,None,0.21002529934048653,,,82  Silent,001,2022_Nov_15_1708,ProdSingRedoBetween,2021.2.3,59.875506846191094,
,,,,88,0,88,0,,,,,,,,,,,,,,,,,,,,,,899.1900350004435,None,,,,,,,,,,,,,,,,,citizen,47,89,silent,old,blue,897.1632861001417,None,897.1632861001417,None,6,1.29106970038265,897.1632861001417,None,1.29106970038265,898.4726150007918,None,898.9737977003679,None,898.9737977003679,None,r,0.19275709986686707,898.9737977003679,None,0.19275709986686707,,,82  Silent,001,2022_Nov_15_1708,ProdSingRedoBetween,2021.2.3,59.875506846191094,
,,,,89,0,89,0,,,,,,,,,,,,,,,,,,,,,,903.7779562007636,None,,,,,,,,,,,,,,,,,grade,123,90,silent,new,null,899.6985170999542,None,899.6985170999542,None,6,2.0118658002465963,899.6985170999542,None,2.0118658002465963,901.7278714003041,None,902.2454935004935,None,902.2454935004935,None,r,1.504904800094664,902.2454935004935,None,1.504904800094664,,,82  Silent,001,2022_Nov_15_1708,ProdSingRedoBetween,2021.2.3,59.875506846191094,
,,,,90,0,90,0,,,,,,,,,,,,,,,,,,,,,,906.4139045001939,None,,,,,,,,,,,,,,,,,owner,53,91,silent,old,blue,904.2890151999891,None,904.2890151999891,None,6,1.1814356995746493,904.2890151999891,None,1.1814356995746493,905.502826699987,None,906.0136204008013,None,906.0136204008013,None,f,0.3768251007422805,906.0136204008013,None,0.3768251007422805,,,82  Silent,001,2022_Nov_15_1708,ProdSingRedoBetween,2021.2.3,59.875506846191094,
,,,,91,0,91,0,,,,,,,,,,,,,,,,,,,,,,912.4699877006933,None,,,,,,,,,,,,,,,,,rapid,5,92,silent,old,yellow,906.9219233002514,None,906.9219233002514,None,6,2.4126713005825877,906.9219233002514,None,2.4126713005825877,909.3506820006296,None,909.8565338002518,None,909.8565338002518,None,r,2.581905599683523,909.8565338002518,None,2.581905599683523,,,82  Silent,001,2022_Nov_15_1708,ProdSingRedoBetween,2021.2.3,59.875506846191094,
,,,,92,0,92,0,,,,,,,,,,,,,,,,,,,,,,915.1225567003712,None,,,,,,,,,,,,,,,,,scene,85,93,silent,old,red,912.9756712000817,None,912.9756712000817,None,6,0.9347367007285357,912.9756712000817,None,0.9347367007285357,913.9408921999857,None,914.467281400226,None,914.467281400226,None,f,0.6351506002247334,914.467281400226,None,0.6351506002247334,,,82  Silent,001,2022_Nov_15_1708,ProdSingRedoBetween,2021.2.3,59.875506846191094,
,,,,93,0,93,0,,,,,,,,,,,,,,,,,,,,,,918.3257306003943,None,,,,,,,,,,,,,,,,,stand,60,94,silent,old,red,915.6253525000066,None,915.6253525000066,None,6,1.3730539996176958,915.6253525000066,None,1.3730539996176958,917.0287791006267,None,917.5462124999613,None,917.5462124999613,None,r,0.7562191002070904,917.5462124999613,None,0.7562191002070904,,,82  Silent,001,2022_Nov_15_1708,ProdSingRedoBetween,2021.2.3,59.875506846191094,
,,,,94,0,94,0,,,,,,,,,,,,,,,,,,,,,,921.7624596003443,None,,,,,,,,,,,,,,,,,novel,59,95,silent,old,yellow,918.8359883008525,None,918.8359883008525,None,6,1.6024294001981616,918.8359883008525,None,1.6024294001981616,920.4627302000299,None,920.9783348003402,None,920.9783348003402,None,n,0.7560892999172211,920.9783348003402,None,0.7560892999172211,,,82  Silent,001,2022_Nov_15_1708,ProdSingRedoBetween,2021.2.3,59.875506846191094,
,,,,95,0,95,0,,,,,,,,,,,,,,,,,,,,,,926.2834807001054,None,,,,,,,,,,,,,,,,,state,69,96,silent,old,red,922.2631141999736,None,922.2631141999736,None,6,3.143401399254799,922.2631141999736,None,3.143401399254799,925.4363814005628,None,925.9539482006803,None,925.9539482006803,None,r,0.3084909999743104,925.9539482006803,None,0.3084909999743104,,,82  Silent,001,2022_Nov_15_1708,ProdSingRedoBetween,2021.2.3,59.875506846191094,
,,,,96,0,96,0,,,,,,,,,,,,,,,,,,,,,,929.0529921008274,None,,,,,,,,,,,,,,,,,spoke,82,97,silent,old,red,926.7995871007442,None,926.7995871007442,None,6,1.07885089982301,926.7995871007442,None,1.07885089982301,927.9063055999577,None,928.4232055004686,None,928.4232055004686,None,r,0.6072064004838467,928.4232055004686,None,0.6072064004838467,,,82  Silent,001,2022_Nov_15_1708,ProdSingRedoBetween,2021.2.3,59.875506846191094,
,,,,97,0,97,0,,,,,,,,,,,,,,,,,,,,,,931.8225490003824,None,,,,,,,,,,,,,,,,,working,6,98,silent,old,yellow,929.5654186001047,None,929.5654186001047,None,6,0.9609508998692036,929.5654186001047,None,0.9609508998692036,930.5563723007217,None,931.071891900152,None,931.071891900152,None,r,0.7265165997669101,931.071891900152,None,0.7265165997669101,,,82  Silent,001,2022_Nov_15_1708,ProdSingRedoBetween,2021.2.3,59.875506846191094,
,,,,98,0,98,0,,,,,,,,,,,,,,,,,,,,,,934.3249943004921,None,,,,,,,,,,,,,,,,,personnel,153,99,silent,new,null,932.3264790000394,None,932.3264790000394,None,6,1.2479395996779203,932.3264790000394,None,1.2479395996779203,933.5929847005755,None,934.1129396008328,None,934.1129396008328,None,r,0.189593399874866,934.1129396008328,None,0.189593399874866,,,82  Silent,001,2022_Nov_15_1708,ProdSingRedoBetween,2021.2.3,59.875506846191094,
,,,,99,0,99,0,,,,,,,,,,,,,,,,,,,,,,936.7774670002982,None,,,,,,,,,,,,,,,,,welcome,104,100,silent,new,null,934.8256586007774,None,934.8256586007774,None,6,1.3248394997790456,934.8256586007774,None,1.3248394997790456,936.177875100635,None,936.6801310004666,None,936.6801310004666,None,f,0.07845539972186089,936.6801310004666,None,0.07845539972186089,,,82  Silent,001,2022_Nov_15_1708,ProdSingRedoBetween,2021.2.3,59.875506846191094,
,,,,100,0,100,0,,,,,,,,,,,,,,,,,,,,,,939.8972455002367,None,,,,,,,,,,,,,,,,,damage,105,101,silent,new,null,937.2857049005106,None,937.2857049005106,None,6,1.9367848997935653,937.2857049005106,None,1.9367848997935653,939.2463966002688,None,939.7472747005522,None,939.7472747005522,None,r,0.13117429986596107,939.7472747005522,None,0.13117429986596107,,,82  Silent,001,2022_Nov_15_1708,ProdSingRedoBetween,2021.2.3,59.875506846191094,
,,,,101,0,101,0,,,,,,,,,,,,,,,,,,,,,,942.4331244006753,None,,,,,,,,,,,,,,,,,opening,113,102,silent,new,null,940.4040501005948,None,940.4040501005948,None,6,1.466359700076282,940.4040501005948,None,1.466359700076282,941.9003699999303,None,942.401928900741,None,942.401928900741,None,r,0.004394299350678921,942.401928900741,None,0.004394299350678921,,,82  Silent,001,2022_Nov_15_1708,ProdSingRedoBetween,2021.2.3,59.875506846191094,
,,,,102,0,102,0,,,,,,,,,,,,,,,,,,,,,,944.9356260001659,None,,,,,,,,,,,,,,,,,government,98,103,silent,new,null,942.9416229007766,None,942.9416229007766,None,6,1.240730700083077,942.9416229007766,None,1.240730700083077,944.2065590005368,None,944.7189831007272,None,944.7189831007272,None,f,0.19935789983719587,944.7189831007272,None,0.19935789983719587,,,82  Silent,001,2022_Nov_15_1708,ProdSingRedoBetween,2021.2.3,59.875506846191094,
,,,,103,0,103,0,,,,,,,,,,,,,,,,,,,,,,950.7913041999564,None,,,,,,,,,,,,,,,,,weather,91,104,silent,new,null,945.4457683004439,None,945.4457683004439,None,6,1.0326009998098016,945.4457683004439,None,1.0326009998098016,946.507176800631,None,947.0255460999906,None,947.0255460999906,None,r,3.7408350007608533,947.0255460999906,None,3.7408350007608533,,,82  Silent,001,2022_Nov_15_1708,ProdSingRedoBetween,2021.2.3,59.875506846191094,
,,,,104,0,104,0,,,,,,,,,,,,,,,,,,,,,,952.8435371005908,None,,,,,,,,,,,,,,,,,style,178,105,silent,new,null,951.3003913005814,None,951.3003913005814,None,6,0.9379603005945683,951.3003913005814,None,0.9379603005945683,952.2626456003636,None,952.7817652001977,None,952.7817652001977,None,f,0.040662399493157864,952.7817652001977,None,0.040662399493157864,,,82  Silent,001,2022_Nov_15_1708,ProdSingRedoBetween,2021.2.3,59.875506846191094,
,,,,105,0,105,0,,,,,,,,,,,,,,,,,,,,,,955.863219300285,None,,,,,,,,,,,,,,,,,cover,13,106,silent,old,yellow,953.3582121999934,None,953.3582121999934,None,6,1.4001580001786351,953.3582121999934,None,1.4001580001786351,954.7826076000929,None,955.2960655000061,None,955.2960655000061,None,n,0.55027149990201,955.2960655000061,None,0.55027149990201,,,82  Silent,001,2022_Nov_15_1708,ProdSingRedoBetween,2021.2.3,59.875506846191094,
,,,,106,0,106,0,,,,,,,,,,,,,,,,,,,,,,958.6156725008041,None,,,,,,,,,,,,,,,,,private,77,107,silent,old,red,956.3662510002032,None,956.3662510002032,None,6,1.3120277998968959,956.3662510002032,None,1.3120277998968959,957.7033224999905,None,958.21571470052,None,958.21571470052,None,f,0.3745851004496217,958.21571470052,None,0.3745851004496217,,,82  Silent,001,2022_Nov_15_1708,ProdSingRedoBetween,2021.2.3,59.875506846191094,
,,,,107,0,107,0,,,,,,,,,,,,,,,,,,,,,,961.2853244999424,None,,,,,,,,,,,,,,,,,number,157,108,silent,new,null,959.1165348002687,None,959.1165348002687,None,6,1.3938123006373644,959.1165348002687,None,1.3938123006373644,960.5344004007056,None,961.0400811005384,None,961.0400811005384,None,r,0.21425550058484077,961.0400811005384,None,0.21425550058484077,,,82  Silent,001,2022_Nov_15_1708,ProdSingRedoBetween,2021.2.3,59.875506846191094,
,,,,108,0,108,0,,,,,,,,,,,,,,,,,,,,,,964.5238888002932,None,,,,,,,,,,,,,,,,,level,170,109,silent,new,null,961.7965850001201,None,961.7965850001201,None,6,1.2499382998794317,961.7965850001201,None,1.2499382998794317,963.0757958004251,None,963.5877148006111,None,963.5877148006111,None,f,0.9146801000460982,963.5877148006111,None,0.9146801000460982,,,82  Silent,001,2022_Nov_15_1708,ProdSingRedoBetween,2021.2.3,59.875506846191094,
,,,,109,0,109,0,,,,,,,,,,,,,,,,,,,,,,967.3078852007166,None,,,,,,,,,,,,,,,,,benefit,55,110,silent,old,blue,965.0407160008326,None,965.0407160008326,None,6,1.2215949995443225,965.0407160008326,None,1.2215949995443225,966.2934080008417,None,966.8098623007536,None,966.8098623007536,None,f,0.468410300090909,966.8098623007536,None,0.468410300090909,,,82  Silent,001,2022_Nov_15_1708,ProdSingRedoBetween,2021.2.3,59.875506846191094,
,,,,110,0,110,0,,,,,,,,,,,,,,,,,,,,,,975.666300999932,None,,,,,,,,,,,,,,,,,fashion,54,111,silent,old,blue,967.8117472007871,None,967.8117472007871,None,6,5.19457590021193,967.8117472007871,None,5.19457590021193,973.0318207005039,None,973.535699300468,None,973.535699300468,None,r,2.1106532998383045,973.535699300468,None,2.1106532998383045,,,82  Silent,001,2022_Nov_15_1708,ProdSingRedoBetween,2021.2.3,59.875506846191094,
,,,,111,0,111,0,,,,,,,,,,,,,,,,,,,,,,978.235541600734,None,,,,,,,,,,,,,,,,,household,8,112,silent,old,yellow,976.1689189001918,None,976.1689189001918,None,6,1.3813696997240186,976.1689189001918,None,1.3813696997240186,977.5695125004277,None,978.068856799975,None,978.068856799975,None,r,0.13755630049854517,978.068856799975,None,0.13755630049854517,,,82  Silent,001,2022_Nov_15_1708,ProdSingRedoBetween,2021.2.3,59.875506846191094,
,,,,112,0,112,0,,,,,,,,,,,,,,,,,,,,,,980.2875471999869,None,,,,,,,,,,,,,,,,,bicycle,83,113,silent,old,red,978.7441867999732,None,978.7441867999732,None,6,0.9021266000345349,978.7441867999732,None,0.9021266000345349,979.6717333002016,None,980.1708460999653,None,980.1708460999653,None,r,0.09943679999560118,980.1708460999653,None,0.09943679999560118,,,82  Silent,001,2022_Nov_15_1708,ProdSingRedoBetween,2021.2.3,59.875506846191094,
,,,,113,0,113,0,,,,,,,,,,,,,,,,,,,,,,982.3563293004408,None,,,,,,,,,,,,,,,,,birth,169,114,silent,new,null,980.7962993001565,None,980.7962993001565,None,6,0.8259631004184484,980.7962993001565,None,0.8259631004184484,981.6398865003139,None,982.1394611001015,None,982.1394611001015,None,f,0.19484970066696405,982.1394611001015,None,0.19484970066696405,,,82  Silent,001,2022_Nov_15_1708,ProdSingRedoBetween,2021.2.3,59.875506846191094,
,,,,114,0,114,0,,,,,,,,,,,,,,,,,,,,,,984.3249521004036,None,,,,,,,,,,,,,,,,,hunger,38,115,silent,old,blue,982.863528800197,None,982.863528800197,None,6,0.8708418002352118,982.863528800197,None,0.8708418002352118,983.763275500387,None,984.2750383000821,None,984.2750383000821,None,r,0.019354899413883686,984.2750383000821,None,0.019354899413883686,,,82  Silent,001,2022_Nov_15_1708,ProdSingRedoBetween,2021.2.3,59.875506846191094,
,,,,115,0,115,0,,,,,,,,,,,,,,,,,,,,,,987.0776610001922,None,,,,,,,,,,,,,,,,,husband,103,116,silent,new,null,984.8256000000983,None,984.8256000000983,None,6,0.9166521998122334,984.8256000000983,None,0.9166521998122334,985.7623815005645,None,986.2771209999919,None,986.2771209999919,None,n,0.7852501999586821,986.2771209999919,None,0.7852501999586821,,,82  Silent,001,2022_Nov_15_1708,ProdSingRedoBetween,2021.2.3,59.875506846191094,
,,,,116,0,116,0,,,,,,,,,,,,,,,,,,,,,,989.7470211004838,None,,,,,,,,,,,,,,,,,mechanical,57,117,silent,old,blue,987.5869919005781,None,987.5869919005781,None,6,1.331177399493754,987.5869919005781,None,1.331177399493754,988.9462492000312,None,989.4538335008547,None,989.4538335008547,None,r,0.2724899994209409,989.4538335008547,None,0.2724899994209409,,,82  Silent,001,2022_Nov_15_1708,ProdSingRedoBetween,2021.2.3,59.875506846191094,
,,,,117,0,117,0,,,,,,,,,,,,,,,,,,,,,,991.8343394007534,None,,,,,,,,,,,,,,,,,range,50,118,silent,old,blue,990.2544574001804,None,990.2544574001804,None,6,0.919909399934113,990.2544574001804,None,0.919909399934113,991.2040955005214,None,991.7183846002445,None,991.7183846002445,None,f,0.09597350005060434,991.7183846002445,None,0.09597350005060434,,,82  Silent,001,2022_Nov_15_1708,ProdSingRedoBetween,2021.2.3,59.875506846191094,
,,,,118,0,118,0,,,,,,,,,,,,,,,,,,,,,,994.4850537003949,None,,,,,,,,,,,,,,,,,portion,35,119,silent,old,blue,992.3544586002827,None,992.3544586002827,None,6,1.4599319007247686,992.3544586002827,None,1.4599319007247686,993.8381620999426,None,994.3517088005319,None,994.3517088005319,None,f,0.11063739936798811,994.3517088005319,None,0.11063739936798811,,,82  Silent,001,2022_Nov_15_1708,ProdSingRedoBetween,2021.2.3,59.875506846191094,
,,,,119,0,119,0,,,,,,,,,,,,,,,,,,,,,,996.8707376001403,None,,,,,,,,,,,,,,,,,instrument,15,120,silent,old,yellow,994.9929920006543,None,994.9929920006543,None,6,1.2775829005986452,994.9929920006543,None,1.2775829005986452,996.2983055002987,None,996.8065402004868,None,996.8065402004868,None,r,0.03977170027792454,996.8065402004868,None,0.03977170027792454,,,82  Silent,001,2022_Nov_15_1708,ProdSingRedoBetween,2021.2.3,59.875506846191094,
,,,,120,0,120,0,,,,,,,,,,,,,,,,,,,,,,999.1731925001368,None,,,,,,,,,,,,,,,,,substance,172,121,silent,new,null,997.3784879008308,None,997.3784879008308,None,6,1.2197743002325296,997.3784879008308,None,1.2197743002325296,998.6237588999793,None,999.1308248005807,None,999.1308248005807,None,r,0.01956089958548546,999.1308248005807,None,0.01956089958548546,,,82  Silent,001,2022_Nov_15_1708,ProdSingRedoBetween,2021.2.3,59.875506846191094,
,,,,121,0,121,0,,,,,,,,,,,,,,,,,,,,,,1001.5084750000387,None,,,,,,,,,,,,,,,,,mayor,18,122,silent,old,yellow,999.6813675006852,None,999.6813675006852,None,6,1.0209317998960614,999.6813675006852,None,1.0209317998960614,1000.724600800313,None,1001.2282239003107,None,1001.2282239003107,None,n,0.2580706998705864,1001.2282239003107,None,0.2580706998705864,,,82  Silent,001,2022_Nov_15_1708,ProdSingRedoBetween,2021.2.3,59.875506846191094,
,,,,122,0,122,0,,,,,,,,,,,,,,,,,,,,,,1004.378226400353,None,,,,,,,,,,,,,,,,,agreement,94,123,silent,new,null,1002.0182369006798,None,1002.0182369006798,None,6,1.0040359003469348,1002.0182369006798,None,1.0040359003469348,1003.0448091002181,None,1003.5509780002758,None,1003.5509780002758,None,f,0.7992815999314189,1003.5509780002758,None,0.7992815999314189,,,82  Silent,001,2022_Nov_15_1708,ProdSingRedoBetween,2021.2.3,59.875506846191094,
,,,,123,0,123,0,,,,,,,,,,,,,,,,,,,,,,1007.3145307004452,None,,,,,,,,,,,,,,,,,tough,108,124,silent,new,null,1004.8868291005492,None,1004.8868291005492,None,6,1.5675352001562715,1004.8868291005492,None,1.5675352001562715,1006.4804501002654,None,1006.985291399993,None,1006.985291399993,None,f,0.3012463003396988,1006.985291399993,None,0.3012463003396988,,,82  Silent,001,2022_Nov_15_1708,ProdSingRedoBetween,2021.2.3,59.875506846191094,
,,,,124,0,124,0,,,,,,,,,,,,,,,,,,,,,,1010.1337935002521,None,,,,,,,,,,,,,,,,,election,144,125,silent,new,null,1007.825645999983,None,1007.825645999983,None,6,1.300598599947989,1007.825645999983,None,1.300598599947989,1009.1508912006393,None,1009.6501143006608,None,1009.6501143006608,None,f,0.46815160010010004,1009.6501143006608,None,0.46815160010010004,,,82  Silent,001,2022_Nov_15_1708,ProdSingRedoBetween,2021.2.3,59.875506846191094,
,,,,125,0,125,0,,,,,,,,,,,,,,,,,,,,,,1012.5196345001459,None,,,,,,,,,,,,,,,,,discovery,62,126,silent,old,red,1010.6390599003062,None,1010.6390599003062,None,6,1.095201499760151,1010.6390599003062,None,1.095201499760151,1011.7539900001138,None,1012.2696211002767,None,1012.2696211002767,None,r,0.23271980043500662,1012.2696211002767,None,0.23271980043500662,,,82  Silent,001,2022_Nov_15_1708,ProdSingRedoBetween,2021.2.3,59.875506846191094,
,,,,126,0,126,0,,,,,,,,,,,,,,,,,,,,,,1015.9729014001787,None,,,,,,,,,,,,,,,,,junior,73,127,silent,old,red,1013.0263383006677,None,1013.0263383006677,None,6,1.3479057000949979,1013.0263383006677,None,1.3479057000949979,1014.4060025000945,None,1014.91017460078,None,1014.91017460078,None,r,1.040132200345397,1014.91017460078,None,1.040132200345397,,,82  Silent,001,2022_Nov_15_1708,ProdSingRedoBetween,2021.2.3,59.875506846191094,
,,,,127,0,127,0,,,,,,,,,,,,,,,,,,,,,,1018.1110499007627,None,,,,,,,,,,,,,,,,,subject,102,128,silent,new,null,1016.4793575005606,None,1016.4793575005606,None,6,0.7669015005230904,1016.4793575005606,None,0.7669015005230904,1017.276128700003,None,1017.7965021003038,None,1017.7965021003038,None,r,0.289848200045526,1017.7965021003038,None,0.289848200045526,,,82  Silent,001,2022_Nov_15_1708,ProdSingRedoBetween,2021.2.3,59.875506846191094,
,,,,128,0,128,0,,,,,,,,,,,,,,,,,,,,,,1019.9603938004002,None,,,,,,,,,,,,,,,,,build,117,129,silent,new,null,1018.6290918001905,None,1018.6290918001905,None,6,0.6730667008087039,1018.6290918001905,None,0.6730667008087039,1019.3262229999527,None,1019.8271715007722,None,1019.8271715007722,None,f,0.1151143005117774,1019.8271715007722,None,0.1151143005117774,,,82  Silent,001,2022_Nov_15_1708,ProdSingRedoBetween,2021.2.3,59.875506846191094,
,,,,129,0,129,0,,,,,,,,,,,,,,,,,,,,,,1022.112517000176,None,,,,,,,,,,,,,,,,,vision,2,130,silent,old,yellow,1020.4608241999522,None,1020.4608241999522,None,6,0.9535260992124677,1020.4608241999522,None,0.9535260992124677,1021.4468040000647,None,1021.9547013007104,None,1021.9547013007104,None,r,0.13949840050190687,1021.9547013007104,None,0.13949840050190687,,,82  Silent,001,2022_Nov_15_1708,ProdSingRedoBetween,2021.2.3,59.875506846191094,
,,,,130,0,130,0,,,,,,,,,,,,,,,,,,,,,,1025.8177453000098,None,,,,,,,,,,,,,,,,,taste,128,131,silent,new,null,1022.6156473001465,None,1022.6156473001465,None,6,0.6145685994997621,1022.6156473001465,None,0.6145685994997621,1023.2504502004012,None,1023.7663984000683,None,1023.7663984000683,None,r,2.031860800459981,1023.7663984000683,None,2.031860800459981,,,82  Silent,001,2022_Nov_15_1708,ProdSingRedoBetween,2021.2.3,59.875506846191094,
,,,,131,0,131,0,,,,,,,,,,,,,,,,,,,,,,1027.684736000374,None,,,,,,,,,,,,,,,,,defeat,75,132,silent,old,red,1026.3219298003241,None,1026.3219298003241,None,6,0.7962735006585717,1026.3219298003241,None,0.7962735006585717,1027.1376494001597,None,1027.6512756999582,None,1027.6512756999582,None,r,0.010864200070500374,1027.6512756999582,None,0.010864200070500374,,,82  Silent,001,2022_Nov_15_1708,ProdSingRedoBetween,2021.2.3,59.875506846191094,
,,,,132,0,132,0,,,,,,,,,,,,,,,,,,,,,,1030.0538343004882,None,,,,,,,,,,,,,,,,,engineer,44,133,silent,old,blue,1028.1855438007042,None,1028.1855438007042,None,6,0.74081189930439,1028.1855438007042,None,0.74081189930439,1028.9537647003308,None,1029.4533625999466,None,1029.4533625999466,None,n,0.5848348001018167,1029.4533625999466,None,0.5848348001018167,,,82  Silent,001,2022_Nov_15_1708,ProdSingRedoBetween,2021.2.3,59.875506846191094,
,,,,133,0,133,0,,,,,,,,,,,,,,,,,,,,,,1032.7898578001186,None,,,,,,,,,,,,,,,,,budget,43,134,silent,old,blue,1030.5576383005828,None,1030.5576383005828,None,6,1.6565952999517322,1030.5576383005828,None,1.6565952999517322,1032.2406042004004,None,1032.7445809002966,None,1032.7445809002966,None,r,0.021673399955034256,1032.7445809002966,None,0.021673399955034256,,,82  Silent,001,2022_Nov_15_1708,ProdSingRedoBetween,2021.2.3,59.875506846191094,
,,,,134,0,134,0,,,,,,,,,,,,,,,,,,,,,,1035.7428402006626,None,,,,,,,,,,,,,,,,,split,149,135,silent,new,null,1033.3017625007778,None,1033.3017625007778,None,6,1.5045929998159409,1033.3017625007778,None,1.5045929998159409,1034.8265100000426,None,1035.3297150004655,None,1035.3297150004655,None,f,0.3965779999271035,1035.3297150004655,None,0.3965779999271035,,,82  Silent,001,2022_Nov_15_1708,ProdSingRedoBetween,2021.2.3,59.875506846191094,
,,,,135,0,135,0,,,,,,,,,,,,,,,,,,,,,,1038.6289881002158,None,,,,,,,,,,,,,,,,,guard,11,136,silent,old,yellow,1036.2451550001279,None,1036.2451550001279,None,6,1.7210730006918311,1036.2451550001279,None,1.7210730006918311,1037.9957897001877,None,1038.498590500094,None,1038.498590500094,None,n,0.1156385000795126,1038.498590500094,None,0.1156385000795126,,,82  Silent,001,2022_Nov_15_1708,ProdSingRedoBetween,2021.2.3,59.875506846191094,
,,,,136,0,136,0,,,,,,,,,,,,,,,,,,,,,,1040.9479879001155,None,,,,,,,,,,,,,,,,,management,125,137,silent,new,null,1039.13836070057,None,1039.13836070057,None,6,1.163914899341762,1039.13836070057,None,1.163914899341762,1040.3360180007294,None,1040.8527164999396,None,1040.8527164999396,None,f,0.07352820038795471,1040.8527164999396,None,0.07352820038795471,,,82  Silent,001,2022_Nov_15_1708,ProdSingRedoBetween,2021.2.3,59.875506846191094,
,,,,137,0,137,0,,,,,,,,,,,,,,,,,,,,,,1043.4505162006244,None,,,,,,,,,,,,,,,,,atmosphere,126,138,silent,new,null,1041.4608814008534,None,1041.4608814008534,None,6,1.2572537995874882,1041.4608814008534,None,1.2572537995874882,1042.7331009004265,None,1043.2374605005607,None,1043.2374605005607,None,f,0.19272320065647364,1043.2374605005607,None,0.19272320065647364,,,82  Silent,001,2022_Nov_15_1708,ProdSingRedoBetween,2021.2.3,59.875506846191094,
,,,,138,0,138,0,,,,,,,,,,,,,,,,,,,,,,1045.9530332004651,None,,,,,,,,,,,,,,,,,century,32,139,silent,old,blue,1043.9589573005214,None,1043.9589573005214,None,6,0.9991641994565725,1043.9589573005214,None,0.9991641994565725,1044.9869916001335,None,1045.5088360002264,None,1045.5088360002264,None,n,0.42541300039738417,1045.5088360002264,None,0.42541300039738417,,,82  Silent,001,2022_Nov_15_1708,ProdSingRedoBetween,2021.2.3,59.875506846191094,
,,,,139,0,139,0,,,,,,,,,,,,,,,,,,,,,,1048.738998300396,None,,,,,,,,,,,,,,,,,expansion,120,140,silent,new,null,1046.4679527999833,None,1046.4679527999833,None,6,1.4662793995812535,1046.4679527999833,None,1.4662793995812535,1047.96154530067,None,1048.4784733001143,None,1048.4784733001143,None,n,0.23171709943562746,1048.4784733001143,None,0.23171709943562746,,,82  Silent,001,2022_Nov_15_1708,ProdSingRedoBetween,2021.2.3,59.875506846191094,
,,,,140,0,140,0,,,,,,,,,,,,,,,,,,,,,,1051.4251444004476,None,,,,,,,,,,,,,,,,,course,110,141,silent,new,null,1049.2432340001687,None,1049.2432340001687,None,6,1.0828428994864225,1049.2432340001687,None,1.0828428994864225,1050.358859400265,None,1050.8658596007153,None,1050.8658596007153,None,f,0.5403132000938058,1050.8658596007153,None,0.5403132000938058,,,82  Silent,001,2022_Nov_15_1708,ProdSingRedoBetween,2021.2.3,59.875506846191094,
,,,,141,0,141,0,,,,,,,,,,,,,,,,,,,,,,1054.8452315004542,None,,,,,,,,,,,,,,,,,weight,4,142,silent,old,yellow,1051.9342367006466,None,1051.9342367006466,None,6,0.8640344003215432,1051.9342367006466,None,0.8640344003215432,1052.8315139999613,None,1053.3463393002748,None,1053.3463393002748,None,r,1.4838765999302268,1053.3463393002748,None,1.4838765999302268,,,82  Silent,001,2022_Nov_15_1708,ProdSingRedoBetween,2021.2.3,59.875506846191094,
,,,,142,0,142,0,,,,,,,,,,,,,,,,,,,,,,1056.9473175005987,None,,,,,,,,,,,,,,,,,month,14,143,silent,old,yellow,1055.3520708000287,None,1055.3520708000287,None,6,0.6621193001046777,1055.3520708000287,None,0.6621193001046777,1056.0295903002843,None,1056.530442500487,None,1056.530442500487,None,r,0.3878480000421405,1056.530442500487,None,0.3878480000421405,,,82  Silent,001,2022_Nov_15_1708,ProdSingRedoBetween,2021.2.3,59.875506846191094,
,,,,143,0,143,0,,,,,,,,,,,,,,,,,,,,,,1058.6988430004567,None,,,,,,,,,,,,,,,,,industry,162,144,silent,new,null,1057.450344500132,None,1057.450344500132,None,6,0.683725000359118,1057.450344500132,None,0.683725000359118,1058.169295700267,None,1058.6825848007575,None,1058.6825848007575,None,f,0.0036000004038214684,1058.6825848007575,None,0.0036000004038214684,,,82  Silent,001,2022_Nov_15_1708,ProdSingRedoBetween,2021.2.3,59.875506846191094,
,,,,144,0,144,0,,,,,,,,,,,,,,,,,,,,,,1061.2861785003915,None,,,,,,,,,,,,,,,,,candidate,115,145,silent,new,null,1059.2072379002348,None,1059.2072379002348,None,6,0.9029323002323508,1059.2072379002348,None,0.9029323002323508,1060.1348569002002,None,1060.634528300725,None,1060.634528300725,None,n,0.6357800997793674,1060.634528300725,None,0.6357800997793674,,,82  Silent,001,2022_Nov_15_1708,ProdSingRedoBetween,2021.2.3,59.875506846191094,
,,,,145,0,145,0,,,,,,,,,,,,,,,,,,,,,,1064.805143300444,None,,,,,,,,,,,,,,,,,drink,12,146,silent,old,yellow,1061.7888074005023,None,1061.7888074005023,None,6,2.2175673004239798,1061.7888074005023,None,2.2175673004239798,1064.0272532003,None,1064.538419100456,None,1064.538419100456,None,r,0.24376290012151003,1064.538419100456,None,0.24376290012151003,,,82  Silent,001,2022_Nov_15_1708,ProdSingRedoBetween,2021.2.3,59.875506846191094,
,,,,146,0,146,0,,,,,,,,,,,,,,,,,,,,,,1067.1423868006095,None,,,,,,,,,,,,,,,,,property,84,147,silent,old,red,1065.3091710004956,None,1065.3091710004956,None,6,1.1208938006311655,1065.3091710004956,None,1.1208938006311655,1066.4577878005803,None,1066.9615039005876,None,1066.9615039005876,None,f,0.1569640003144741,1066.9615039005876,None,0.1569640003144741,,,82  Silent,001,2022_Nov_15_1708,ProdSingRedoBetween,2021.2.3,59.875506846191094,
,,,,147,0,147,0,,,,,,,,,,,,,,,,,,,,,,1073.2970946002752,None,,,,,,,,,,,,,,,,,finish,7,148,silent,old,yellow,1067.6740313004702,None,1067.6740313004702,None,6,2.132119999267161,1067.6740313004702,None,2.132119999267161,1069.8298623003066,None,1070.345531700179,None,1070.345531700179,None,f,2.924633499234915,1070.345531700179,None,2.924633499234915,,,82  Silent,001,2022_Nov_15_1708,ProdSingRedoBetween,2021.2.3,59.875506846191094,
,,,,148,0,148,0,,,,,,,,,,,,,,,,,,,,,,1076.3000541999936,None,,,,,,,,,,,,,,,,,afternoon,31,149,silent,old,blue,1073.7974380999804,None,1073.7974380999804,None,6,1.0326875997707248,1073.7974380999804,None,1.0326875997707248,1074.8515363000333,None,1075.3659390006214,None,1075.3659390006214,None,r,0.9042194997891784,1075.3659390006214,None,0.9042194997891784,,,82  Silent,001,2022_Nov_15_1708,ProdSingRedoBetween,2021.2.3,59.875506846191094,
,,,,149,0,149,0,,,,,,,,,,,,,,,,,,,,,,1078.0349828004837,None,,,,,,,,,,,,,,,,,raise,33,150,silent,old,blue,1076.8102540001273,None,1076.8102540001273,None,6,0.46791329979896545,1076.8102540001273,None,0.46791329979896545,1077.3022398008034,None,1077.8080913005397,None,1077.8080913005397,None,r,0.19808390084654093,1077.8080913005397,None,0.19808390084654093,,,82  Silent,001,2022_Nov_15_1708,ProdSingRedoBetween,2021.2.3,59.875506846191094,
,,,,150,0,150,0,,,,,,,,,,,,,,,,,,,,,,1079.9702166002244,None,,,,,,,,,,,,,,,,,attack,9,151,silent,old,yellow,1078.5397387007251,None,1078.5397387007251,None,6,0.6023727003484964,1078.5397387007251,None,0.6023727003484964,1079.1722369007766,None,1079.6894882004708,None,1079.6894882004708,None,f,0.25261850003153086,1079.6894882004708,None,0.25261850003153086,,,82  Silent,001,2022_Nov_15_1708,ProdSingRedoBetween,2021.2.3,59.875506846191094,
,,,,151,0,151,0,,,,,,,,,,,,,,,,,,,,,,1081.756944200024,None,,,,,,,,,,,,,,,,,smooth,58,152,silent,old,blue,1080.4834503000602,None,1080.4834503000602,None,6,0.6105991005897522,1080.4834503000602,None,0.6105991005897522,1081.1330282008275,None,1081.6386843007058,None,1081.6386843007058,None,f,0.095389099791646,1081.6386843007058,None,0.095389099791646,,,82  Silent,001,2022_Nov_15_1708,ProdSingRedoBetween,2021.2.3,59.875506846191094,
,,,,152,0,152,0,,,,,,,,,,,,,,,,,,,,,,1083.7740674000233,None,,,,,,,,,,,,,,,,,interior,41,153,silent,old,blue,1082.27576540038,None,1082.27576540038,None,6,0.7303630001842976,1082.27576540038,None,0.7303630001842976,1083.0245341006666,None,1083.5281579000875,None,1083.5281579000875,None,n,0.22200820036232471,1083.5281579000875,None,0.22200820036232471,,,82  Silent,001,2022_Nov_15_1708,ProdSingRedoBetween,2021.2.3,59.875506846191094,
,,,,153,0,153,0,,,,,,,,,,,,,,,,,,,,,,1087.0607497999445,None,,,,,,,,,,,,,,,,,exchange,81,154,silent,old,red,1084.2881580004469,None,1084.2881580004469,None,6,0.949975099414587,1084.2881580004469,None,0.949975099414587,1085.2606031000614,None,1085.7771626003087,None,1085.7771626003087,None,f,1.2611183999106288,1085.7771626003087,None,1.2611183999106288,,,82  Silent,001,2022_Nov_15_1708,ProdSingRedoBetween,2021.2.3,59.875506846191094,
,,,,154,0,154,0,,,,,,,,,,,,,,,,,,,,,,1089.3463897006586,None,,,,,,,,,,,,,,,,,platform,156,155,silent,new,null,1087.5616823006421,None,1087.5616823006421,None,6,0.7564041996374726,1087.5616823006421,None,0.7564041996374726,1088.3465197002515,None,1088.845988000743,None,1088.845988000743,None,f,0.47215749975293875,1088.845988000743,None,0.47215749975293875,,,82  Silent,001,2022_Nov_15_1708,ProdSingRedoBetween,2021.2.3,59.875506846191094,
,,,,155,0,155,0,,,,,,,,,,,,,,,,,,,,,,1092.5996293006465,None,,,,,,,,,,,,,,,,,broad,16,156,silent,old,yellow,1089.8472644006833,None,1089.8472644006833,None,6,1.7188742998987436,1089.8472644006833,None,1.7188742998987436,1091.5827517006546,None,1092.094443000853,None,1092.094443000853,None,f,0.48771920055150986,1092.094443000853,None,0.48771920055150986,,,82  Silent,001,2022_Nov_15_1708,ProdSingRedoBetween,2021.2.3,59.875506846191094,
,,,,156,0,156,0,,,,,,,,,,,,,,,,,,,,,,1094.5860800007358,None,,,,,,,,,,,,,,,,,order,119,157,silent,new,null,1093.1065694000572,None,1093.1065694000572,None,6,0.843499599955976,1093.1065694000572,None,0.843499599955976,1093.9686705004424,None,1094.4681548001245,None,1094.4681548001245,None,r,0.09801859967410564,1094.4681548001245,None,0.09801859967410564,,,82  Silent,001,2022_Nov_15_1708,ProdSingRedoBetween,2021.2.3,59.875506846191094,
,,,,157,0,157,0,,,,,,,,,,,,,,,,,,,,,,1098.0049779005349,None,,,,,,,,,,,,,,,,,heavy,61,158,silent,old,red,1095.1015773005784,None,1095.1015773005784,None,6,0.6084654992446303,1095.1015773005784,None,0.6084654992446303,1095.7390063004568,None,1096.2533034002408,None,1096.2533034002408,None,r,1.7368234004825354,1096.2533034002408,None,1.7368234004825354,,,82  Silent,001,2022_Nov_15_1708,ProdSingRedoBetween,2021.2.3,59.875506846191094,
,,,,158,0,158,0,,,,,,,,,,,,,,,,,,,,,,1099.9432266000658,None,,,,,,,,,,,,,,,,,commercial,70,159,silent,old,red,1098.512558100745,None,1098.512558100745,None,6,0.7736366000026464,1098.512558100745,None,0.7736366000026464,1099.3074064999819,None,1099.8140565007925,None,1099.8140565007925,None,r,0.10411879979074001,1099.8140565007925,None,0.10411879979074001,,,82  Silent,001,2022_Nov_15_1708,ProdSingRedoBetween,2021.2.3,59.875506846191094,
,,,,159,0,159,0,,,,,,,,,,,,,,,,,,,,,,1101.858610900119,None,,,,,,,,,,,,,,,,,audience,151,160,silent,new,null,1100.4580474002287,None,1100.4580474002287,None,6,0.827959499321878,1100.4580474002287,None,0.827959499321878,1101.3105073999614,None,1101.8274077000096,None,1101.8274077000096,None,r,0.010788200423121452,1101.8274077000096,None,0.010788200423121452,,,82  Silent,001,2022_Nov_15_1708,ProdSingRedoBetween,2021.2.3,59.875506846191094,
,,,,160,0,160,0,,,,,,,,,,,,,,,,,,,,,,1105.3957264004275,None,,,,,,,,,,,,,,,,,suggestion,148,161,silent,new,null,1102.3635362004861,None,1102.3635362004861,None,6,1.2185913994908333,1102.3635362004861,None,1.2185913994908333,1103.6115530999377,None,1104.1161827007309,None,1104.1161827007309,None,f,1.2579218996688724,1104.1161827007309,None,1.2579218996688724,,,82  Silent,001,2022_Nov_15_1708,ProdSingRedoBetween,2021.2.3,59.875506846191094,
,,,,161,0,161,0,,,,,,,,,,,,,,,,,,,,,,1107.3142378004268,None,,,,,,,,,,,,,,,,,little,141,162,silent,new,null,1105.9030627999455,None,1105.9030627999455,None,6,0.5991123002022505,1105.9030627999455,None,0.5991123002022505,1106.5355907008052,None,1107.047414300032,None,1107.047414300032,None,n,0.238697599619627,1107.047414300032,None,0.238697599619627,,,82  Silent,001,2022_Nov_15_1708,ProdSingRedoBetween,2021.2.3,59.875506846191094,
,,,,162,0,162,0,,,,,,,,,,,,,,,,,,,,,,1111.368323600851,None,,,,,,,,,,,,,,,,,leader,173,163,silent,new,null,1107.8225294006988,None,1107.8225294006988,None,6,1.7035510996356606,1107.8225294006988,None,1.7035510996356606,1109.5507279001176,None,1110.0523346001282,None,1110.0523346001282,None,r,1.2977000996470451,1110.0523346001282,None,1.2977000996470451,,,82  Silent,001,2022_Nov_15_1708,ProdSingRedoBetween,2021.2.3,59.875506846191094,
,,,,163,0,163,0,,,,,,,,,,,,,,,,,,,,,,1113.3536570006981,None,,,,,,,,,,,,,,,,,account,163,164,silent,new,null,1111.8705396000296,None,1111.8705396000296,None,6,0.6955499006435275,1111.8705396000296,None,0.6955499006435275,1112.5861802008003,None,1113.0867699002847,None,1113.0867699002847,None,r,0.23925120010972023,1113.0867699002847,None,0.23925120010972023,,,82  Silent,001,2022_Nov_15_1708,ProdSingRedoBetween,2021.2.3,59.875506846191094,
,,,,164,0,164,0,,,,,,,,,,,,,,,,,,,,,,1115.1220336006954,None,,,,,,,,,,,,,,,,,design,1,165,silent,old,yellow,1113.8671524003148,None,1113.8671524003148,None,6,0.6509522004052997,1113.8671524003148,None,0.6509522004052997,1114.5394962001592,None,1115.04516680073,None,1115.04516680073,None,f,0.04886220023036003,1115.04516680073,None,0.04886220023036003,,,82  Silent,001,2022_Nov_15_1708,ProdSingRedoBetween,2021.2.3,59.875506846191094,
,,,,165,0,165,0,,,,,,,,,,,,,,,,,,,,,,1118.1756249004975,None,,,,,,,,,,,,,,,,,career,63,166,silent,old,red,1115.6289889002219,None,1115.6289889002219,None,6,1.0250583002343774,1115.6289889002219,None,1.0250583002343774,1116.676800900139,None,1117.1906067002565,None,1117.1906067002565,None,r,0.9593631001189351,1117.1906067002565,None,0.9593631001189351,,,82  Silent,001,2022_Nov_15_1708,ProdSingRedoBetween,2021.2.3,59.875506846191094,
,,,,166,0,166,0,,,,,,,,,,,,,,,,,,,,,,1120.3271903004497,None,,,,,,,,,,,,,,,,,captain,10,167,silent,old,yellow,1118.6754489000887,None,1118.6754489000887,None,6,0.8027191003784537,1118.6754489000887,None,0.8027191003784537,1119.4943632008508,None,1119.9937248006463,None,1119.9937248006463,None,f,0.31624860037118196,1119.9937248006463,None,0.31624860037118196,,,82  Silent,001,2022_Nov_15_1708,ProdSingRedoBetween,2021.2.3,59.875506846191094,
,,,,167,0,167,0,,,,,,,,,,,,,,,,,,,,,,1122.0299673005939,None,,,,,,,,,,,,,,,,,reading,146,168,silent,new,null,1120.837274200283,None,1120.837274200283,None,6,0.6087640998885036,1120.837274200283,None,0.6087640998885036,1121.4654163001105,None,1121.9791054008529,None,1121.9791054008529,None,r,0.02697009965777397,1121.9791054008529,None,0.02697009965777397,,,82  Silent,001,2022_Nov_15_1708,ProdSingRedoBetween,2021.2.3,59.875506846191094,
,,,,168,0,168,0,,,,,,,,,,,,,,,,,,,,,,1124.0976245999336,None,,,,,,,,,,,,,,,,,scale,34,169,silent,old,blue,1122.5295192999765,None,1122.5295192999765,None,6,0.6446439996361732,1122.5295192999765,None,0.6446439996361732,1123.1982817007229,None,1123.7140454007313,None,1123.7140454007313,None,f,0.3559549003839493,1123.7140454007313,None,0.3559549003839493,,,82  Silent,001,2022_Nov_15_1708,ProdSingRedoBetween,2021.2.3,59.875506846191094,
,,,,169,0,169,0,,,,,,,,,,,,,,,,,,,,,,1126.51671680063,None,,,,,,,,,,,,,,,,,device,152,170,silent,new,null,1124.6030628001317,None,1124.6030628001317,None,6,1.0670576002448797,1124.6030628001317,None,1.0670576002448797,1125.7004313003272,None,1126.2055865004659,None,1126.2055865004659,None,n,0.28845660015940666,1126.2055865004659,None,0.28845660015940666,,,82  Silent,001,2022_Nov_15_1708,ProdSingRedoBetween,2021.2.3,59.875506846191094,
,,,,170,0,170,0,,,,,,,,,,,,,,,,,,,,,,1128.6522408006713,None,,,,,,,,,,,,,,,,,goose,66,171,silent,old,red,1127.0230751000345,None,1127.0230751000345,None,6,0.7110962998121977,1127.0230751000345,None,0.7110962998121977,1127.7625035000965,None,1128.2688337005675,None,1128.2688337005675,None,r,0.3611561004072428,1128.2688337005675,None,0.3611561004072428,,,82  Silent,001,2022_Nov_15_1708,ProdSingRedoBetween,2021.2.3,59.875506846191094,
,,,,171,0,171,0,,,,,,,,,,,,,,,,,,,,,,1132.20767839998,None,,,,,,,,,,,,,,,,,error,87,172,silent,old,red,1129.1642554001883,None,1129.1642554001883,None,6,0.6257783994078636,1129.1642554001883,None,0.6257783994078636,1129.8200251003727,None,1130.3207109002396,None,1130.3207109002396,None,f,1.861387500539422,1130.3207109002396,None,1.861387500539422,,,82  Silent,001,2022_Nov_15_1708,ProdSingRedoBetween,2021.2.3,59.875506846191094,
,,,,172,0,172,0,,,,,,,,,,,,,,,,,,,,,,1134.1577386008576,None,,,,,,,,,,,,,,,,,sleep,159,173,silent,new,null,1132.7231480004266,None,1132.7231480004266,None,6,0.5547973001375794,1132.7231480004266,None,0.5547973001375794,1133.3116172002628,None,1133.8243590006605,None,1133.8243590006605,None,r,0.31767999939620495,1133.8243590006605,None,0.31767999939620495,,,82  Silent,001,2022_Nov_15_1708,ProdSingRedoBetween,2021.2.3,59.875506846191094,
,,,,173,0,173,0,,,,,,,,,,,,,,,,,,,,,,1137.3312367005274,None,,,,,,,,,,,,,,,,,income,23,174,silent,old,yellow,1134.6711840005592,None,1134.6711840005592,None,6,1.0789389992132783,1134.6711840005592,None,1.0789389992132783,1135.7760538002476,None,1136.2785798003897,None,1136.2785798003897,None,f,1.0234541995450854,1136.2785798003897,None,1.0234541995450854,,,82  Silent,001,2022_Nov_15_1708,ProdSingRedoBetween,2021.2.3,59.875506846191094,
