StudyLoop.thisRepN,StudyLoop.thisTrialN,StudyLoop.thisN,StudyLoop.thisIndex,TestLoop.thisRepN,TestLoop.thisTrialN,TestLoop.thisN,TestLoop.thisIndex,textCondition.started,textCondition.stopped,keyCondition.keys,keyCondition.rt,keyCondition.started,keyCondition.stopped,Condition,textWelcome.started,textWelcome.stopped,keyWelcome.keys,keyWelcome.rt,keyWelcome.started,keyWelcome.stopped,textAloud.started,textAloud.stopped,textSilent.started,textSilent.stopped,textSing.started,textSing.stopped,conditional_text.started,conditional_text.stopped,textBlank500.started,textBlank500.stopped,study_word,study_num,study_order,study_type,word_color,textStudy.started,textStudy.stopped,keyStudy.keys,keyStudy.started,keyStudy.stopped,textTestInstructions.started,textTestInstructions.stopped,key_resp_3.keys,key_resp_3.rt,key_resp_3.started,key_resp_3.stopped,test_word,test_num,test_order,test_condition,old_new_test,test_word_original_color,textConf.started,textConf.stopped,textConfScale.started,textConfScale.stopped,keyConf.keys,keyConf.rt,keyConf.started,keyConf.stopped,confidence response time,textTestBlank.started,textTestBlank.stopped,textRKN.started,textRKN.stopped,textRKNScale.started,textRKNScale.stopped,keyRKN.keys,keyRKN.rt,keyRKN.started,keyRKN.stopped,rkn response time,textEnd.started,textEnd.stopped,participant,session,date,expName,psychopyVersion,frameRate,
,,,,,,,,80.00991009920835,None,b,96.26185399945825,80.00991009920835,None,,,,,,,,,,,,,,,,,,,,,,,,,,,,,,,,,,,,,,,,,,,,,,,,,,,,,,,,,,,,,,83 Aloud,001,2022_Nov_17_0957,ProdSingRedoBetween,2021.2.3,59.986887087868794,
,,,,,,,,,,,,,,AloudTest,176.31167489942163,None,space,305.5592718999833,176.31167489942163,None,,,,,,,,,,,,,,,,,,,,,,,,,,,,,,,,,,,,,,,,,,,,,,,,,,,,,,,83 Aloud,001,2022_Nov_17_0957,ProdSingRedoBetween,2021.2.3,59.986887087868794,
0,0,0,0,,,,,,,,,,,,,,,,,,176.31167489942163,None,176.31167489942163,None,176.31167489942163,None,176.31167489942163,None,484.41313169989735,None,close,14,1,aloud,yellow,482.4016078999266,None,None,482.4016078999266,None,,,,,,,,,,,,,,,,,,,,,,,,,,,,,,,,,,,83 Aloud,001,2022_Nov_17_0957,ProdSingRedoBetween,2021.2.3,59.986887087868794,
1,0,1,0,,,,,,,,,,,,,,,,,,,,,,,,,,486.9156988998875,None,education,38,2,aloud,blue,484.9135367991403,None,None,484.9135367991403,None,,,,,,,,,,,,,,,,,,,,,,,,,,,,,,,,,,,83 Aloud,001,2022_Nov_17_0957,ProdSingRedoBetween,2021.2.3,59.986887087868794,
2,0,2,0,,,,,,,,,,,,,,,,,,,,,,,,,,489.43480029981583,None,cover,62,3,aloud,red,487.42560259997845,None,None,487.42560259997845,None,,,,,,,,,,,,,,,,,,,,,,,,,,,,,,,,,,,83 Aloud,001,2022_Nov_17_0957,ProdSingRedoBetween,2021.2.3,59.986887087868794,
3,0,3,0,,,,,,,,,,,,,,,,,,,,,,,,,,491.9375061998144,None,narrow,12,4,aloud,yellow,489.93745919968933,None,None,489.93745919968933,None,,,,,,,,,,,,,,,,,,,,,,,,,,,,,,,,,,,83 Aloud,001,2022_Nov_17_0957,ProdSingRedoBetween,2021.2.3,59.986887087868794,
4,0,4,0,,,,,,,,,,,,,,,,,,,,,,,,,,494.44006019923836,None,hunger,4,5,aloud,yellow,492.4379280991852,None,None,492.4379280991852,None,,,,,,,,,,,,,,,,,,,,,,,,,,,,,,,,,,,83 Aloud,001,2022_Nov_17_0957,ProdSingRedoBetween,2021.2.3,59.986887087868794,
5,0,5,0,,,,,,,,,,,,,,,,,,,,,,,,,,496.9422214999795,None,drama,45,6,aloud,blue,494.9402566999197,None,None,494.9402566999197,None,,,,,,,,,,,,,,,,,,,,,,,,,,,,,,,,,,,83 Aloud,001,2022_Nov_17_0957,ProdSingRedoBetween,2021.2.3,59.986887087868794,
6,0,6,0,,,,,,,,,,,,,,,,,,,,,,,,,,499.44479129929096,None,poetry,69,7,aloud,red,497.44446439947933,None,None,497.44446439947933,None,,,,,,,,,,,,,,,,,,,,,,,,,,,,,,,,,,,83 Aloud,001,2022_Nov_17_0957,ProdSingRedoBetween,2021.2.3,59.986887087868794,
7,0,7,0,,,,,,,,,,,,,,,,,,,,,,,,,,501.96420969907194,None,accident,42,8,aloud,blue,499.9557530991733,None,None,499.9557530991733,None,,,,,,,,,,,,,,,,,,,,,,,,,,,,,,,,,,,83 Aloud,001,2022_Nov_17_0957,ProdSingRedoBetween,2021.2.3,59.986887087868794,
8,0,8,0,,,,,,,,,,,,,,,,,,,,,,,,,,504.46673109941185,None,strength,72,9,aloud,red,502.46450259909034,None,None,502.46450259909034,None,,,,,,,,,,,,,,,,,,,,,,,,,,,,,,,,,,,83 Aloud,001,2022_Nov_17_0957,ProdSingRedoBetween,2021.2.3,59.986887087868794,
9,0,9,0,,,,,,,,,,,,,,,,,,,,,,,,,,506.9691390991211,None,mayor,49,10,aloud,blue,504.967014699243,None,None,504.967014699243,None,,,,,,,,,,,,,,,,,,,,,,,,,,,,,,,,,,,83 Aloud,001,2022_Nov_17_0957,ProdSingRedoBetween,2021.2.3,59.986887087868794,
10,0,10,0,,,,,,,,,,,,,,,,,,,,,,,,,,509.471660499461,None,turkey,46,11,aloud,blue,507.4694319991395,None,None,507.4694319991395,None,,,,,,,,,,,,,,,,,,,,,,,,,,,,,,,,,,,83 Aloud,001,2022_Nov_17_0957,ProdSingRedoBetween,2021.2.3,59.986887087868794,
11,0,11,0,,,,,,,,,,,,,,,,,,,,,,,,,,511.9907287992537,None,bright,11,12,aloud,yellow,509.97772609908134,None,None,509.97772609908134,None,,,,,,,,,,,,,,,,,,,,,,,,,,,,,,,,,,,83 Aloud,001,2022_Nov_17_0957,ProdSingRedoBetween,2021.2.3,59.986887087868794,
12,0,12,0,,,,,,,,,,,,,,,,,,,,,,,,,,514.5098261991516,None,expansion,10,13,aloud,yellow,512.4984641997144,None,None,512.4984641997144,None,,,,,,,,,,,,,,,,,,,,,,,,,,,,,,,,,,,83 Aloud,001,2022_Nov_17_0957,ProdSingRedoBetween,2021.2.3,59.986887087868794,
13,0,13,0,,,,,,,,,,,,,,,,,,,,,,,,,,517.012473299168,None,society,52,14,aloud,blue,515.0101679991931,None,None,515.0101679991931,None,,,,,,,,,,,,,,,,,,,,,,,,,,,,,,,,,,,83 Aloud,001,2022_Nov_17_0957,ProdSingRedoBetween,2021.2.3,59.986887087868794,
14,0,14,0,,,,,,,,,,,,,,,,,,,,,,,,,,519.5317235998809,None,judge,16,15,aloud,yellow,517.5188686996698,None,None,517.5188686996698,None,,,,,,,,,,,,,,,,,,,,,,,,,,,,,,,,,,,83 Aloud,001,2022_Nov_17_0957,ProdSingRedoBetween,2021.2.3,59.986887087868794,
15,0,15,0,,,,,,,,,,,,,,,,,,,,,,,,,,522.0676129991189,None,quarter,47,16,aloud,blue,520.0533919995651,None,None,520.0533919995651,None,,,,,,,,,,,,,,,,,,,,,,,,,,,,,,,,,,,83 Aloud,001,2022_Nov_17_0957,ProdSingRedoBetween,2021.2.3,59.986887087868794,
16,0,16,0,,,,,,,,,,,,,,,,,,,,,,,,,,524.5791536998004,None,death,48,17,aloud,blue,522.5681501999497,None,None,522.5681501999497,None,,,,,,,,,,,,,,,,,,,,,,,,,,,,,,,,,,,83 Aloud,001,2022_Nov_17_0957,ProdSingRedoBetween,2021.2.3,59.986887087868794,
17,0,17,0,,,,,,,,,,,,,,,,,,,,,,,,,,527.0888182995841,None,order,53,18,aloud,blue,525.0867863995954,None,None,525.0867863995954,None,,,,,,,,,,,,,,,,,,,,,,,,,,,,,,,,,,,83 Aloud,001,2022_Nov_17_0957,ProdSingRedoBetween,2021.2.3,59.986887087868794,
18,0,18,0,,,,,,,,,,,,,,,,,,,,,,,,,,529.5917213996872,None,pancakes,84,19,aloud,red,527.5895220991224,None,None,527.5895220991224,None,,,,,,,,,,,,,,,,,,,,,,,,,,,,,,,,,,,83 Aloud,001,2022_Nov_17_0957,ProdSingRedoBetween,2021.2.3,59.986887087868794,
19,0,19,0,,,,,,,,,,,,,,,,,,,,,,,,,,532.094005599618,None,detective,26,20,aloud,yellow,530.0920662991703,None,None,530.0920662991703,None,,,,,,,,,,,,,,,,,,,,,,,,,,,,,,,,,,,83 Aloud,001,2022_Nov_17_0957,ProdSingRedoBetween,2021.2.3,59.986887087868794,
20,0,20,0,,,,,,,,,,,,,,,,,,,,,,,,,,534.5966971991584,None,theme,8,21,aloud,yellow,532.594839499332,None,None,532.594839499332,None,,,,,,,,,,,,,,,,,,,,,,,,,,,,,,,,,,,83 Aloud,001,2022_Nov_17_0957,ProdSingRedoBetween,2021.2.3,59.986887087868794,
21,0,21,0,,,,,,,,,,,,,,,,,,,,,,,,,,537.0988747999072,None,addition,20,22,aloud,yellow,535.0973636992276,None,None,535.0973636992276,None,,,,,,,,,,,,,,,,,,,,,,,,,,,,,,,,,,,83 Aloud,001,2022_Nov_17_0957,ProdSingRedoBetween,2021.2.3,59.986887087868794,
22,0,22,0,,,,,,,,,,,,,,,,,,,,,,,,,,539.6015554992482,None,power,86,23,aloud,red,537.5994417993352,None,None,537.5994417993352,None,,,,,,,,,,,,,,,,,,,,,,,,,,,,,,,,,,,83 Aloud,001,2022_Nov_17_0957,ProdSingRedoBetween,2021.2.3,59.986887087868794,
23,0,23,0,,,,,,,,,,,,,,,,,,,,,,,,,,542.1040439996868,None,owner,50,24,aloud,blue,540.1022193999961,None,None,540.1022193999961,None,,,,,,,,,,,,,,,,,,,,,,,,,,,,,,,,,,,83 Aloud,001,2022_Nov_17_0957,ProdSingRedoBetween,2021.2.3,59.986887087868794,
24,0,24,0,,,,,,,,,,,,,,,,,,,,,,,,,,544.6066847993061,None,government,23,25,aloud,yellow,542.6048136996105,None,None,542.6048136996105,None,,,,,,,,,,,,,,,,,,,,,,,,,,,,,,,,,,,83 Aloud,001,2022_Nov_17_0957,ProdSingRedoBetween,2021.2.3,59.986887087868794,
25,0,25,0,,,,,,,,,,,,,,,,,,,,,,,,,,547.1255733994767,None,frank,57,26,aloud,blue,545.115514899604,None,None,545.115514899604,None,,,,,,,,,,,,,,,,,,,,,,,,,,,,,,,,,,,83 Aloud,001,2022_Nov_17_0957,ProdSingRedoBetween,2021.2.3,59.986887087868794,
26,0,26,0,,,,,,,,,,,,,,,,,,,,,,,,,,549.6284337993711,None,vision,71,27,aloud,red,547.6264199996367,None,None,547.6264199996367,None,,,,,,,,,,,,,,,,,,,,,,,,,,,,,,,,,,,83 Aloud,001,2022_Nov_17_0957,ProdSingRedoBetween,2021.2.3,59.986887087868794,
27,0,27,0,,,,,,,,,,,,,,,,,,,,,,,,,,552.1478363992646,None,skill,59,28,aloud,yellow,550.1376754995435,None,None,550.1376754995435,None,,,,,,,,,,,,,,,,,,,,,,,,,,,,,,,,,,,83 Aloud,001,2022_Nov_17_0957,ProdSingRedoBetween,2021.2.3,59.986887087868794,
28,0,28,0,,,,,,,,,,,,,,,,,,,,,,,,,,554.6499995999038,None,empty,56,29,aloud,blue,552.6480736993253,None,None,552.6480736993253,None,,,,,,,,,,,,,,,,,,,,,,,,,,,,,,,,,,,83 Aloud,001,2022_Nov_17_0957,ProdSingRedoBetween,2021.2.3,59.986887087868794,
29,0,29,0,,,,,,,,,,,,,,,,,,,,,,,,,,557.1523004993796,None,history,66,30,aloud,red,555.150407999754,None,None,555.150407999754,None,,,,,,,,,,,,,,,,,,,,,,,,,,,,,,,,,,,83 Aloud,001,2022_Nov_17_0957,ProdSingRedoBetween,2021.2.3,59.986887087868794,
30,0,30,0,,,,,,,,,,,,,,,,,,,,,,,,,,559.6545327994972,None,payment,32,31,aloud,blue,557.6529219998047,None,None,557.6529219998047,None,,,,,,,,,,,,,,,,,,,,,,,,,,,,,,,,,,,83 Aloud,001,2022_Nov_17_0957,ProdSingRedoBetween,2021.2.3,59.986887087868794,
31,0,31,0,,,,,,,,,,,,,,,,,,,,,,,,,,562.1575411995873,None,charter,1,32,aloud,yellow,560.155247299932,None,None,560.155247299932,None,,,,,,,,,,,,,,,,,,,,,,,,,,,,,,,,,,,83 Aloud,001,2022_Nov_17_0957,ProdSingRedoBetween,2021.2.3,59.986887087868794,
32,0,32,0,,,,,,,,,,,,,,,,,,,,,,,,,,564.6768149994314,None,threat,87,33,aloud,red,562.6700283996761,None,None,562.6700283996761,None,,,,,,,,,,,,,,,,,,,,,,,,,,,,,,,,,,,83 Aloud,001,2022_Nov_17_0957,ProdSingRedoBetween,2021.2.3,59.986887087868794,
33,0,33,0,,,,,,,,,,,,,,,,,,,,,,,,,,567.1788475997746,None,finance,30,34,aloud,blue,565.1770525993779,None,None,565.1770525993779,None,,,,,,,,,,,,,,,,,,,,,,,,,,,,,,,,,,,83 Aloud,001,2022_Nov_17_0957,ProdSingRedoBetween,2021.2.3,59.986887087868794,
34,0,34,0,,,,,,,,,,,,,,,,,,,,,,,,,,569.6812145998701,None,prime,25,35,aloud,yellow,567.6806621998549,None,None,567.6806621998549,None,,,,,,,,,,,,,,,,,,,,,,,,,,,,,,,,,,,83 Aloud,001,2022_Nov_17_0957,ProdSingRedoBetween,2021.2.3,59.986887087868794,
35,0,35,0,,,,,,,,,,,,,,,,,,,,,,,,,,572.1842318996787,None,partner,80,36,aloud,red,570.1829013992101,None,None,570.1829013992101,None,,,,,,,,,,,,,,,,,,,,,,,,,,,,,,,,,,,83 Aloud,001,2022_Nov_17_0957,ProdSingRedoBetween,2021.2.3,59.986887087868794,
36,0,36,0,,,,,,,,,,,,,,,,,,,,,,,,,,574.6883956994861,None,scene,7,37,aloud,yellow,572.6911149993539,None,None,572.6911149993539,None,,,,,,,,,,,,,,,,,,,,,,,,,,,,,,,,,,,83 Aloud,001,2022_Nov_17_0957,ProdSingRedoBetween,2021.2.3,59.986887087868794,
37,0,37,0,,,,,,,,,,,,,,,,,,,,,,,,,,577.2056944994256,None,season,75,38,aloud,red,575.2041003992781,None,None,575.2041003992781,None,,,,,,,,,,,,,,,,,,,,,,,,,,,,,,,,,,,83 Aloud,001,2022_Nov_17_0957,ProdSingRedoBetween,2021.2.3,59.986887087868794,
38,0,38,0,,,,,,,,,,,,,,,,,,,,,,,,,,579.7080200994387,None,patient,65,39,aloud,red,577.7071246998385,None,None,577.7071246998385,None,,,,,,,,,,,,,,,,,,,,,,,,,,,,,,,,,,,83 Aloud,001,2022_Nov_17_0957,ProdSingRedoBetween,2021.2.3,59.986887087868794,
39,0,39,0,,,,,,,,,,,,,,,,,,,,,,,,,,582.2069947998971,None,birth,15,40,aloud,yellow,580.2086699996144,None,None,580.2086699996144,None,,,,,,,,,,,,,,,,,,,,,,,,,,,,,,,,,,,83 Aloud,001,2022_Nov_17_0957,ProdSingRedoBetween,2021.2.3,59.986887087868794,
40,0,40,0,,,,,,,,,,,,,,,,,,,,,,,,,,584.71286949981,None,nature,60,41,aloud,red,582.7110365992412,None,None,582.7110365992412,None,,,,,,,,,,,,,,,,,,,,,,,,,,,,,,,,,,,83 Aloud,001,2022_Nov_17_0957,ProdSingRedoBetween,2021.2.3,59.986887087868794,
41,0,41,0,,,,,,,,,,,,,,,,,,,,,,,,,,587.2377838995308,None,provision,40,42,aloud,blue,585.217227499932,None,None,585.217227499932,None,,,,,,,,,,,,,,,,,,,,,,,,,,,,,,,,,,,83 Aloud,001,2022_Nov_17_0957,ProdSingRedoBetween,2021.2.3,59.986887087868794,
42,0,42,0,,,,,,,,,,,,,,,,,,,,,,,,,,589.7512434991077,None,rapid,29,43,aloud,blue,587.7850764999166,None,None,587.7850764999166,None,,,,,,,,,,,,,,,,,,,,,,,,,,,,,,,,,,,83 Aloud,001,2022_Nov_17_0957,ProdSingRedoBetween,2021.2.3,59.986887087868794,
43,0,43,0,,,,,,,,,,,,,,,,,,,,,,,,,,592.30214769952,None,dozen,41,44,aloud,blue,590.28145249933,None,None,590.28145249933,None,,,,,,,,,,,,,,,,,,,,,,,,,,,,,,,,,,,83 Aloud,001,2022_Nov_17_0957,ProdSingRedoBetween,2021.2.3,59.986887087868794,
44,0,44,0,,,,,,,,,,,,,,,,,,,,,,,,,,594.8073699995875,None,relation,64,45,aloud,red,592.7876091999933,None,None,592.7876091999933,None,,,,,,,,,,,,,,,,,,,,,,,,,,,,,,,,,,,83 Aloud,001,2022_Nov_17_0957,ProdSingRedoBetween,2021.2.3,59.986887087868794,
45,0,45,0,,,,,,,,,,,,,,,,,,,,,,,,,,597.3090630993247,None,reach,21,46,aloud,yellow,595.3067989991978,None,None,595.3067989991978,None,,,,,,,,,,,,,,,,,,,,,,,,,,,,,,,,,,,83 Aloud,001,2022_Nov_17_0957,ProdSingRedoBetween,2021.2.3,59.986887087868794,
46,0,46,0,,,,,,,,,,,,,,,,,,,,,,,,,,599.821985299699,None,captain,70,47,aloud,red,597.8106067990884,None,None,597.8106067990884,None,,,,,,,,,,,,,,,,,,,,,,,,,,,,,,,,,,,83 Aloud,001,2022_Nov_17_0957,ProdSingRedoBetween,2021.2.3,59.986887087868794,
47,0,47,0,,,,,,,,,,,,,,,,,,,,,,,,,,602.3242419995368,None,safety,24,48,aloud,yellow,600.3284576991573,None,None,600.3284576991573,None,,,,,,,,,,,,,,,,,,,,,,,,,,,,,,,,,,,83 Aloud,001,2022_Nov_17_0957,ProdSingRedoBetween,2021.2.3,59.986887087868794,
48,0,48,0,,,,,,,,,,,,,,,,,,,,,,,,,,604.8424881994724,None,cousin,2,49,aloud,yellow,602.8320680996403,None,None,602.8320680996403,None,,,,,,,,,,,,,,,,,,,,,,,,,,,,,,,,,,,83 Aloud,001,2022_Nov_17_0957,ProdSingRedoBetween,2021.2.3,59.986887087868794,
49,0,49,0,,,,,,,,,,,,,,,,,,,,,,,,,,607.3486845996231,None,quick,37,50,aloud,blue,605.3502896996215,None,None,605.3502896996215,None,,,,,,,,,,,,,,,,,,,,,,,,,,,,,,,,,,,83 Aloud,001,2022_Nov_17_0957,ProdSingRedoBetween,2021.2.3,59.986887087868794,
50,0,50,0,,,,,,,,,,,,,,,,,,,,,,,,,,609.85498179961,None,produce,73,51,aloud,red,607.8527812995017,None,None,607.8527812995017,None,,,,,,,,,,,,,,,,,,,,,,,,,,,,,,,,,,,83 Aloud,001,2022_Nov_17_0957,ProdSingRedoBetween,2021.2.3,59.986887087868794,
51,0,51,0,,,,,,,,,,,,,,,,,,,,,,,,,,612.3573509994894,None,thing,55,52,aloud,blue,610.355306699872,None,None,610.355306699872,None,,,,,,,,,,,,,,,,,,,,,,,,,,,,,,,,,,,83 Aloud,001,2022_Nov_17_0957,ProdSingRedoBetween,2021.2.3,59.986887087868794,
52,0,52,0,,,,,,,,,,,,,,,,,,,,,,,,,,614.8598882993683,None,service,34,53,aloud,blue,612.8577744998038,None,None,612.8577744998038,None,,,,,,,,,,,,,,,,,,,,,,,,,,,,,,,,,,,83 Aloud,001,2022_Nov_17_0957,ProdSingRedoBetween,2021.2.3,59.986887087868794,
53,0,53,0,,,,,,,,,,,,,,,,,,,,,,,,,,617.3622597996145,None,bucket,51,54,aloud,blue,615.3603903995827,None,None,615.3603903995827,None,,,,,,,,,,,,,,,,,,,,,,,,,,,,,,,,,,,83 Aloud,001,2022_Nov_17_0957,ProdSingRedoBetween,2021.2.3,59.986887087868794,
54,0,54,0,,,,,,,,,,,,,,,,,,,,,,,,,,619.8814376993105,None,public,36,55,aloud,blue,617.8831450995058,None,None,617.8831450995058,None,,,,,,,,,,,,,,,,,,,,,,,,,,,,,,,,,,,83 Aloud,001,2022_Nov_17_0957,ProdSingRedoBetween,2021.2.3,59.986887087868794,
55,0,55,0,,,,,,,,,,,,,,,,,,,,,,,,,,622.401079999283,None,express,67,56,aloud,red,620.3896175995469,None,None,620.3896175995469,None,,,,,,,,,,,,,,,,,,,,,,,,,,,,,,,,,,,83 Aloud,001,2022_Nov_17_0957,ProdSingRedoBetween,2021.2.3,59.986887087868794,
56,0,56,0,,,,,,,,,,,,,,,,,,,,,,,,,,624.9033165993169,None,beauty,54,57,aloud,blue,622.9013034999371,None,None,622.9013034999371,None,,,,,,,,,,,,,,,,,,,,,,,,,,,,,,,,,,,83 Aloud,001,2022_Nov_17_0957,ProdSingRedoBetween,2021.2.3,59.986887087868794,
57,0,57,0,,,,,,,,,,,,,,,,,,,,,,,,,,627.4226200999692,None,throw,44,58,aloud,blue,625.412597399205,None,None,625.412597399205,None,,,,,,,,,,,,,,,,,,,,,,,,,,,,,,,,,,,83 Aloud,001,2022_Nov_17_0957,ProdSingRedoBetween,2021.2.3,59.986887087868794,
58,0,58,0,,,,,,,,,,,,,,,,,,,,,,,,,,629.9251991994679,None,music,76,59,aloud,red,627.9235936999321,None,None,627.9235936999321,None,,,,,,,,,,,,,,,,,,,,,,,,,,,,,,,,,,,83 Aloud,001,2022_Nov_17_0957,ProdSingRedoBetween,2021.2.3,59.986887087868794,
59,0,59,0,,,,,,,,,,,,,,,,,,,,,,,,,,632.4442205997184,None,tough,3,60,aloud,yellow,630.430374299176,None,None,630.430374299176,None,,,,,,,,,,,,,,,,,,,,,,,,,,,,,,,,,,,83 Aloud,001,2022_Nov_17_0957,ProdSingRedoBetween,2021.2.3,59.986887087868794,
60,0,60,0,,,,,,,,,,,,,,,,,,,,,,,,,,634.9468199992552,None,break,43,61,aloud,blue,632.9467965997756,None,None,632.9467965997756,None,,,,,,,,,,,,,,,,,,,,,,,,,,,,,,,,,,,83 Aloud,001,2022_Nov_17_0957,ProdSingRedoBetween,2021.2.3,59.986887087868794,
61,0,61,0,,,,,,,,,,,,,,,,,,,,,,,,,,637.449261999689,None,bitter,63,62,aloud,red,635.447184599936,None,None,635.447184599936,None,,,,,,,,,,,,,,,,,,,,,,,,,,,,,,,,,,,83 Aloud,001,2022_Nov_17_0957,ProdSingRedoBetween,2021.2.3,59.986887087868794,
62,0,62,0,,,,,,,,,,,,,,,,,,,,,,,,,,639.9683433994651,None,orchestra,22,63,aloud,yellow,637.9567402992398,None,None,637.9567402992398,None,,,,,,,,,,,,,,,,,,,,,,,,,,,,,,,,,,,83 Aloud,001,2022_Nov_17_0957,ProdSingRedoBetween,2021.2.3,59.986887087868794,
63,0,63,0,,,,,,,,,,,,,,,,,,,,,,,,,,642.4876456996426,None,interview,27,64,aloud,yellow,640.4721022993326,None,None,640.4721022993326,None,,,,,,,,,,,,,,,,,,,,,,,,,,,,,,,,,,,83 Aloud,001,2022_Nov_17_0957,ProdSingRedoBetween,2021.2.3,59.986887087868794,
64,0,64,0,,,,,,,,,,,,,,,,,,,,,,,,,,645.007042799145,None,research,9,65,aloud,yellow,642.992589299567,None,None,642.992589299567,None,,,,,,,,,,,,,,,,,,,,,,,,,,,,,,,,,,,83 Aloud,001,2022_Nov_17_0957,ProdSingRedoBetween,2021.2.3,59.986887087868794,
65,0,65,0,,,,,,,,,,,,,,,,,,,,,,,,,,647.5093080997467,None,fellow,39,66,aloud,blue,645.5071802996099,None,None,645.5071802996099,None,,,,,,,,,,,,,,,,,,,,,,,,,,,,,,,,,,,83 Aloud,001,2022_Nov_17_0957,ProdSingRedoBetween,2021.2.3,59.986887087868794,
66,0,66,0,,,,,,,,,,,,,,,,,,,,,,,,,,650.0286602992564,None,budget,88,67,aloud,red,648.0135542992502,None,None,648.0135542992502,None,,,,,,,,,,,,,,,,,,,,,,,,,,,,,,,,,,,83 Aloud,001,2022_Nov_17_0957,ProdSingRedoBetween,2021.2.3,59.986887087868794,
67,0,67,0,,,,,,,,,,,,,,,,,,,,,,,,,,652.547700099647,None,distance,79,68,aloud,red,650.5322554996237,None,None,650.5322554996237,None,,,,,,,,,,,,,,,,,,,,,,,,,,,,,,,,,,,83 Aloud,001,2022_Nov_17_0957,ProdSingRedoBetween,2021.2.3,59.986887087868794,
68,0,68,0,,,,,,,,,,,,,,,,,,,,,,,,,,655.0502998000011,None,column,33,69,aloud,blue,653.0481750993058,None,None,653.0481750993058,None,,,,,,,,,,,,,,,,,,,,,,,,,,,,,,,,,,,83 Aloud,001,2022_Nov_17_0957,ProdSingRedoBetween,2021.2.3,59.986887087868794,
69,0,69,0,,,,,,,,,,,,,,,,,,,,,,,,,,657.5694781998172,None,level,68,70,aloud,red,655.5561622995883,None,None,655.5561622995883,None,,,,,,,,,,,,,,,,,,,,,,,,,,,,,,,,,,,83 Aloud,001,2022_Nov_17_0957,ProdSingRedoBetween,2021.2.3,59.986887087868794,
70,0,70,0,,,,,,,,,,,,,,,,,,,,,,,,,,660.0886178994551,None,afternoon,85,71,aloud,red,658.0752079999074,None,None,658.0752079999074,None,,,,,,,,,,,,,,,,,,,,,,,,,,,,,,,,,,,83 Aloud,001,2022_Nov_17_0957,ProdSingRedoBetween,2021.2.3,59.986887087868794,
71,0,71,0,,,,,,,,,,,,,,,,,,,,,,,,,,662.590828999877,None,recall,58,72,aloud,blue,660.5890430994332,None,None,660.5890430994332,None,,,,,,,,,,,,,,,,,,,,,,,,,,,,,,,,,,,83 Aloud,001,2022_Nov_17_0957,ProdSingRedoBetween,2021.2.3,59.986887087868794,
72,0,72,0,,,,,,,,,,,,,,,,,,,,,,,,,,665.1103118993342,None,spoke,0,73,aloud,yellow,663.0947409998626,None,None,663.0947409998626,None,,,,,,,,,,,,,,,,,,,,,,,,,,,,,,,,,,,83 Aloud,001,2022_Nov_17_0957,ProdSingRedoBetween,2021.2.3,59.986887087868794,
73,0,73,0,,,,,,,,,,,,,,,,,,,,,,,,,,667.612699999474,None,edition,61,74,aloud,red,665.6107350997627,None,None,665.6107350997627,None,,,,,,,,,,,,,,,,,,,,,,,,,,,,,,,,,,,83 Aloud,001,2022_Nov_17_0957,ProdSingRedoBetween,2021.2.3,59.986887087868794,
74,0,74,0,,,,,,,,,,,,,,,,,,,,,,,,,,670.1319983992726,None,minute,82,75,aloud,red,668.1213739998639,None,None,668.1213739998639,None,,,,,,,,,,,,,,,,,,,,,,,,,,,,,,,,,,,83 Aloud,001,2022_Nov_17_0957,ProdSingRedoBetween,2021.2.3,59.986887087868794,
75,0,75,0,,,,,,,,,,,,,,,,,,,,,,,,,,672.6341251991689,None,height,28,76,aloud,yellow,670.6338197998703,None,None,670.6338197998703,None,,,,,,,,,,,,,,,,,,,,,,,,,,,,,,,,,,,83 Aloud,001,2022_Nov_17_0957,ProdSingRedoBetween,2021.2.3,59.986887087868794,
76,0,76,0,,,,,,,,,,,,,,,,,,,,,,,,,,675.1368851996958,None,alert,78,77,aloud,red,673.1347508998588,None,None,673.1347508998588,None,,,,,,,,,,,,,,,,,,,,,,,,,,,,,,,,,,,83 Aloud,001,2022_Nov_17_0957,ProdSingRedoBetween,2021.2.3,59.986887087868794,
77,0,77,0,,,,,,,,,,,,,,,,,,,,,,,,,,677.6560956994072,None,industry,18,78,aloud,yellow,675.6500707995147,None,None,675.6500707995147,None,,,,,,,,,,,,,,,,,,,,,,,,,,,,,,,,,,,83 Aloud,001,2022_Nov_17_0957,ProdSingRedoBetween,2021.2.3,59.986887087868794,
78,0,78,0,,,,,,,,,,,,,,,,,,,,,,,,,,680.1585883991793,None,smooth,81,79,aloud,red,678.1565465992317,None,None,678.1565465992317,None,,,,,,,,,,,,,,,,,,,,,,,,,,,,,,,,,,,83 Aloud,001,2022_Nov_17_0957,ProdSingRedoBetween,2021.2.3,59.986887087868794,
79,0,79,0,,,,,,,,,,,,,,,,,,,,,,,,,,682.6776602994651,None,treatment,6,80,aloud,yellow,680.6624014992267,None,None,680.6624014992267,None,,,,,,,,,,,,,,,,,,,,,,,,,,,,,,,,,,,83 Aloud,001,2022_Nov_17_0957,ProdSingRedoBetween,2021.2.3,59.986887087868794,
80,0,80,0,,,,,,,,,,,,,,,,,,,,,,,,,,685.19684809912,None,cross,5,81,aloud,yellow,683.1833151997998,None,None,683.1833151997998,None,,,,,,,,,,,,,,,,,,,,,,,,,,,,,,,,,,,83 Aloud,001,2022_Nov_17_0957,ProdSingRedoBetween,2021.2.3,59.986887087868794,
81,0,81,0,,,,,,,,,,,,,,,,,,,,,,,,,,687.716195399873,None,sight,17,82,aloud,yellow,685.7071111993864,None,None,685.7071111993864,None,,,,,,,,,,,,,,,,,,,,,,,,,,,,,,,,,,,83 Aloud,001,2022_Nov_17_0957,ProdSingRedoBetween,2021.2.3,59.986887087868794,
82,0,82,0,,,,,,,,,,,,,,,,,,,,,,,,,,690.2353017991409,None,touch,31,83,aloud,blue,688.2206488996744,None,None,688.2206488996744,None,,,,,,,,,,,,,,,,,,,,,,,,,,,,,,,,,,,83 Aloud,001,2022_Nov_17_0957,ProdSingRedoBetween,2021.2.3,59.986887087868794,
83,0,83,0,,,,,,,,,,,,,,,,,,,,,,,,,,692.7377330996096,None,appearance,19,84,aloud,yellow,690.7388818999752,None,None,690.7388818999752,None,,,,,,,,,,,,,,,,,,,,,,,,,,,,,,,,,,,83 Aloud,001,2022_Nov_17_0957,ProdSingRedoBetween,2021.2.3,59.986887087868794,
84,0,84,0,,,,,,,,,,,,,,,,,,,,,,,,,,695.2403324991465,None,thick,74,85,aloud,red,693.2398714991286,None,None,693.2398714991286,None,,,,,,,,,,,,,,,,,,,,,,,,,,,,,,,,,,,83 Aloud,001,2022_Nov_17_0957,ProdSingRedoBetween,2021.2.3,59.986887087868794,
85,0,85,0,,,,,,,,,,,,,,,,,,,,,,,,,,697.7594460994005,None,tragedy,83,86,aloud,red,695.7444324996322,None,None,695.7444324996322,None,,,,,,,,,,,,,,,,,,,,,,,,,,,,,,,,,,,83 Aloud,001,2022_Nov_17_0957,ProdSingRedoBetween,2021.2.3,59.986887087868794,
86,0,86,0,,,,,,,,,,,,,,,,,,,,,,,,,,700.261938999407,None,evidence,35,87,aloud,blue,698.2596354996786,None,None,698.2596354996786,None,,,,,,,,,,,,,,,,,,,,,,,,,,,,,,,,,,,83 Aloud,001,2022_Nov_17_0957,ProdSingRedoBetween,2021.2.3,59.986887087868794,
87,0,87,0,,,,,,,,,,,,,,,,,,,,,,,,,,702.7643798999488,None,career,89,88,aloud,red,700.7624342991039,None,None,700.7624342991039,None,,,,,,,,,,,,,,,,,,,,,,,,,,,,,,,,,,,83 Aloud,001,2022_Nov_17_0957,ProdSingRedoBetween,2021.2.3,59.986887087868794,
88,0,88,0,,,,,,,,,,,,,,,,,,,,,,,,,,705.2835832992569,None,country,13,89,aloud,yellow,703.2709951996803,None,None,703.2709951996803,None,,,,,,,,,,,,,,,,,,,,,,,,,,,,,,,,,,,83 Aloud,001,2022_Nov_17_0957,ProdSingRedoBetween,2021.2.3,59.986887087868794,
89,0,89,0,,,,,,,,,,,,,,,,,,,,,,,,,,707.8027634993196,None,republic,77,90,aloud,red,705.7871942995116,None,None,705.7871942995116,None,,,,,,,,,,,,,,,,,,,,,,,,,,,,,,,,,,,83 Aloud,001,2022_Nov_17_0957,ProdSingRedoBetween,2021.2.3,59.986887087868794,
,,,,,,,,,,,,,,,,,,,,,,,,,,,,,,,,,,,,,,,,,708.303628099151,None,k,222.54262820072472,708.303628099151,None,,,,,,,,,,,,,,,,,,,,,,,,,,,,,83 Aloud,001,2022_Nov_17_0957,ProdSingRedoBetween,2021.2.3,59.986887087868794,
,,,,0,0,0,0,,,,,,,,,,,,,,,,,,,,,,940.6516819996759,None,,,,,,,,,,,,,,,,,death,48,1,aloud,old,blue,931.3874398991466,None,931.3874398991466,None,6,3.6266690995544195,931.3874398991466,None,3.6266690995544195,935.0332843996584,None,935.5630906997249,None,935.5630906997249,None,r,5.0590690998360515,935.5630906997249,None,5.0590690998360515,,,83 Aloud,001,2022_Nov_17_0957,ProdSingRedoBetween,2021.2.3,59.986887087868794,
,,,,1,0,1,0,,,,,,,,,,,,,,,,,,,,,,946.542569199577,None,,,,,,,,,,,,,,,,,audience,103,2,aloud,new,null,941.1600771993399,None,941.1600771993399,None,6,3.022046599537134,941.1600771993399,None,3.022046599537134,944.2063834993169,None,944.7087780991569,None,944.7087780991569,None,r,1.801388899795711,944.7087780991569,None,1.801388899795711,,,83 Aloud,001,2022_Nov_17_0957,ProdSingRedoBetween,2021.2.3,59.986887087868794,
,,,,2,0,2,0,,,,,,,,,,,,,,,,,,,,,,951.1661912994459,None,,,,,,,,,,,,,,,,,captain,70,3,aloud,old,red,947.0663034999743,None,947.0663034999743,None,6,3.147808300331235,947.0663034999743,None,3.147808300331235,950.2464362997562,None,950.7653634995222,None,950.7653634995222,None,r,0.377042300067842,950.7653634995222,None,0.377042300067842,,,83 Aloud,001,2022_Nov_17_0957,ProdSingRedoBetween,2021.2.3,59.986887087868794,
,,,,3,0,3,0,,,,,,,,,,,,,,,,,,,,,,956.2338694995269,None,,,,,,,,,,,,,,,,,commercial,113,4,aloud,new,null,951.6883708992973,None,951.6883708992973,None,4,2.557629999704659,951.6883708992973,None,2.557629999704659,954.2670397991315,None,954.7843744996935,None,954.7843744996935,None,f,1.421671399846673,954.7843744996935,None,1.421671399846673,,,83 Aloud,001,2022_Nov_17_0957,ProdSingRedoBetween,2021.2.3,59.986887087868794,
,,,,4,0,4,0,,,,,,,,,,,,,,,,,,,,,,960.4714701995254,None,,,,,,,,,,,,,,,,,budget,88,5,aloud,old,red,956.7420256994665,None,956.7420256994665,None,5,2.2561250999569893,956.7420256994665,None,2.2561250999569893,959.0258392998949,None,959.5372607996687,None,959.5372607996687,None,f,0.9167909994721413,959.5372607996687,None,0.9167909994721413,,,83 Aloud,001,2022_Nov_17_0957,ProdSingRedoBetween,2021.2.3,59.986887087868794,
,,,,5,0,5,0,,,,,,,,,,,,,,,,,,,,,,965.2930143997073,None,,,,,,,,,,,,,,,,,short,135,6,aloud,new,null,960.9765945998952,None,960.9765945998952,None,4,2.517512099817395,960.9765945998952,None,2.517512099817395,963.5255389995873,None,964.0294874999672,None,964.0294874999672,None,f,1.2485990999266505,964.0294874999672,None,1.2485990999266505,,,83 Aloud,001,2022_Nov_17_0957,ProdSingRedoBetween,2021.2.3,59.986887087868794,
,,,,6,0,6,0,,,,,,,,,,,,,,,,,,,,,,970.6482827998698,None,,,,,,,,,,,,,,,,,quantity,163,7,aloud,new,null,965.8155868994072,None,965.8155868994072,None,3,3.2144836001098156,965.8155868994072,None,3.2144836001098156,969.0525689991191,None,969.5639702994376,None,969.5639702994376,None,f,1.066035999916494,969.5639702994376,None,1.066035999916494,,,83 Aloud,001,2022_Nov_17_0957,ProdSingRedoBetween,2021.2.3,59.986887087868794,
,,,,7,0,7,0,,,,,,,,,,,,,,,,,,,,,,975.336232399568,None,,,,,,,,,,,,,,,,,rough,94,8,aloud,new,null,971.1589011996984,None,971.1589011996984,None,4,3.2231836998835206,971.1589011996984,None,3.2231836998835206,974.4034126996994,None,974.9031089991331,None,974.9031089991331,None,f,0.40696430020034313,974.9031089991331,None,0.40696430020034313,,,83 Aloud,001,2022_Nov_17_0957,ProdSingRedoBetween,2021.2.3,59.986887087868794,
,,,,8,0,8,0,,,,,,,,,,,,,,,,,,,,,,980.5247561996803,None,,,,,,,,,,,,,,,,,south,96,9,aloud,new,null,975.8461908996105,None,975.8461908996105,None,6,2.775843500159681,975.8461908996105,None,2.775843500159681,978.639385599643,None,979.1455416996032,None,979.1455416996032,None,r,1.3484987001866102,979.1455416996032,None,1.3484987001866102,,,83 Aloud,001,2022_Nov_17_0957,ProdSingRedoBetween,2021.2.3,59.986887087868794,
,,,,9,0,9,0,,,,,,,,,,,,,,,,,,,,,,984.1801026994362,None,,,,,,,,,,,,,,,,,threat,87,10,aloud,old,red,981.0279557993636,None,981.0279557993636,None,6,2.306264099664986,981.0279557993636,None,2.306264099664986,983.3757861992344,None,983.8780156997964,None,983.8780156997964,None,r,0.2721728002652526,983.8780156997964,None,0.2721728002652526,,,83 Aloud,001,2022_Nov_17_0957,ProdSingRedoBetween,2021.2.3,59.986887087868794,
,,,,10,0,10,0,,,,,,,,,,,,,,,,,,,,,,988.7163375997916,None,,,,,,,,,,,,,,,,,master,155,11,aloud,new,null,984.6990638999268,None,984.6990638999268,None,3,2.5071008997038007,984.6990638999268,None,2.5071008997038007,987.2404664997011,None,987.7501819999889,None,987.7501819999889,None,f,0.936014799401164,987.7501819999889,None,0.936014799401164,,,83 Aloud,001,2022_Nov_17_0957,ProdSingRedoBetween,2021.2.3,59.986887087868794,
,,,,11,0,11,0,,,,,,,,,,,,,,,,,,,,,,994.2069949992001,None,,,,,,,,,,,,,,,,,recall,58,12,aloud,old,blue,989.2238787999377,None,989.2238787999377,None,6,4.054106799885631,989.2238787999377,None,4.054106799885631,993.3041347991675,None,993.8128628991544,None,993.8128628991544,None,r,0.3692065002396703,993.8128628991544,None,0.3692065002396703,,,83 Aloud,001,2022_Nov_17_0957,ProdSingRedoBetween,2021.2.3,59.986887087868794,
,,,,12,0,12,0,,,,,,,,,,,,,,,,,,,,,,998.8096982995048,None,,,,,,,,,,,,,,,,,period,160,13,aloud,new,null,994.7233549999073,None,994.7233549999073,None,3,2.3867695005610585,994.7233549999073,None,2.3867695005610585,997.1427031997591,None,997.6419301992282,None,997.6419301992282,None,f,1.1480124006047845,997.6419301992282,None,1.1480124006047845,,,83 Aloud,001,2022_Nov_17_0957,ProdSingRedoBetween,2021.2.3,59.986887087868794,
,,,,13,0,13,0,,,,,,,,,,,,,,,,,,,,,,1003.4209766993299,None,,,,,,,,,,,,,,,,,pretty,145,14,aloud,new,null,999.3101381994784,None,999.3101381994784,None,2,2.671929399482906,999.3101381994784,None,2.671929399482906,1002.0164635991678,None,1002.5346801998094,None,1002.5346801998094,None,f,0.8635662999004126,1002.5346801998094,None,0.8635662999004126,,,83 Aloud,001,2022_Nov_17_0957,ProdSingRedoBetween,2021.2.3,59.986887087868794,
,,,,14,0,14,0,,,,,,,,,,,,,,,,,,,,,,1009.8873266996816,None,,,,,,,,,,,,,,,,,skill,59,15,aloud,old,yellow,1003.9405583990738,None,1003.9405583990738,None,4,4.537340399809182,1003.9405583990738,None,4.537340399809182,1008.5050199991092,None,1009.0200261995196,None,1009.0200261995196,None,f,0.8421190995723009,1009.0200261995196,None,0.8421190995723009,,,83 Aloud,001,2022_Nov_17_0957,ProdSingRedoBetween,2021.2.3,59.986887087868794,
,,,,15,0,15,0,,,,,,,,,,,,,,,,,,,,,,1014.308479199186,None,,,,,,,,,,,,,,,,,country,13,16,aloud,old,yellow,1010.3971255999058,None,1010.3971255999058,None,6,1.8008972005918622,1010.3971255999058,None,1.8008972005918622,1012.2246652999893,None,1012.740439299494,None,1012.740439299494,None,r,1.5455518001690507,1012.740439299494,None,1.5455518001690507,,,83 Aloud,001,2022_Nov_17_0957,ProdSingRedoBetween,2021.2.3,59.986887087868794,
,,,,16,0,16,0,,,,,,,,,,,,,,,,,,,,,,1018.2310751993209,None,,,,,,,,,,,,,,,,,century,138,17,aloud,new,null,1014.8155241999775,None,1014.8155241999775,None,3,2.718412999995053,1014.8155241999775,None,2.718412999995053,1017.5645900992677,None,1018.078839299269,None,1018.078839299269,None,f,0.11921180039644241,1018.078839299269,None,0.11921180039644241,,,83 Aloud,001,2022_Nov_17_0957,ProdSingRedoBetween,2021.2.3,59.986887087868794,
,,,,17,0,17,0,,,,,,,,,,,,,,,,,,,,,,1021.3028822997585,None,,,,,,,,,,,,,,,,,beauty,54,18,aloud,old,blue,1018.7559144999832,None,1018.7559144999832,None,6,1.3540872996672988,1018.7559144999832,None,1.3540872996672988,1020.1353805996478,None,1020.6499649994075,None,1020.6499649994075,None,r,0.6282169995829463,1020.6499649994075,None,0.6282169995829463,,,83 Aloud,001,2022_Nov_17_0957,ProdSingRedoBetween,2021.2.3,59.986887087868794,
,,,,18,0,18,0,,,,,,,,,,,,,,,,,,,,,,1027.238089999184,None,,,,,,,,,,,,,,,,,republic,77,19,aloud,old,red,1021.82840609923,None,1021.82840609923,None,5,4.5055832006037235,1021.82840609923,None,4.5055832006037235,1026.3558124992996,None,1026.8727463996038,None,1026.8727463996038,None,f,0.3495087996125221,1026.8727463996038,None,0.3495087996125221,,,83 Aloud,001,2022_Nov_17_0957,ProdSingRedoBetween,2021.2.3,59.986887087868794,
,,,,19,0,19,0,,,,,,,,,,,,,,,,,,,,,,1031.3139467993751,None,,,,,,,,,,,,,,,,,escape,137,20,aloud,new,null,1027.7384842997417,None,1027.7384842997417,None,5,2.659394499845803,1027.7384842997417,None,2.659394499845803,1030.4245695993304,None,1030.9251813990995,None,1030.9251813990995,None,f,0.35290420055389404,1030.9251813990995,None,0.35290420055389404,,,83 Aloud,001,2022_Nov_17_0957,ProdSingRedoBetween,2021.2.3,59.986887087868794,
,,,,20,0,20,0,,,,,,,,,,,,,,,,,,,,,,1035.8131648991257,None,,,,,,,,,,,,,,,,,length,107,21,aloud,new,null,1031.834405099973,None,1031.834405099973,None,3,3.179663699120283,1031.834405099973,None,3.179663699120283,1035.0348809994757,None,1035.5472191991284,None,1035.5472191991284,None,f,0.2508065002039075,1035.5472191991284,None,0.2508065002039075,,,83 Aloud,001,2022_Nov_17_0957,ProdSingRedoBetween,2021.2.3,59.986887087868794,
,,,,21,0,21,0,,,,,,,,,,,,,,,,,,,,,,1038.2822939995676,None,,,,,,,,,,,,,,,,,mayor,49,22,aloud,old,blue,1036.323294499889,None,1036.323294499889,None,6,1.394684299826622,1036.323294499889,None,1.394684299826622,1037.7500110995024,None,1038.249124199152,None,1038.249124199152,None,f,0.004898900166153908,1038.249124199152,None,0.004898900166153908,,,83 Aloud,001,2022_Nov_17_0957,ProdSingRedoBetween,2021.2.3,59.986887087868794,
,,,,22,0,22,0,,,,,,,,,,,,,,,,,,,,,,1041.3523753993213,None,,,,,,,,,,,,,,,,,track,149,23,aloud,new,null,1038.7994875991717,None,1038.7994875991717,None,2,1.9264727998524904,1038.7994875991717,None,1.9264727998524904,1040.75251549948,None,1041.2610851991922,None,1041.2610851991922,None,f,0.06475539971143007,1041.2610851991922,None,0.06475539971143007,,,83 Aloud,001,2022_Nov_17_0957,ProdSingRedoBetween,2021.2.3,59.986887087868794,
,,,,23,0,23,0,,,,,,,,,,,,,,,,,,,,,,1047.4914275994524,None,,,,,,,,,,,,,,,,,dispute,179,24,aloud,new,null,1041.871660899371,None,1041.871660899371,None,1,2.8783022994175553,1041.871660899371,None,2.8783022994175553,1044.7738350993022,None,1045.2894324995577,None,1045.2894324995577,None,f,2.180497200228274,1045.2894324995577,None,2.180497200228274,,,83 Aloud,001,2022_Nov_17_0957,ProdSingRedoBetween,2021.2.3,59.986887087868794,
,,,,24,0,24,0,,,,,,,,,,,,,,,,,,,,,,1054.5819432996213,None,,,,,,,,,,,,,,,,,patient,65,25,aloud,old,red,1047.9987383997068,None,1047.9987383997068,None,6,3.975200700573623,1047.9987383997068,None,3.975200700573623,1052.0001916997135,None,1052.5164075996727,None,1052.5164075996727,None,r,2.049481900408864,1052.5164075996727,None,2.049481900408864,,,83 Aloud,001,2022_Nov_17_0957,ProdSingRedoBetween,2021.2.3,59.986887087868794,
,,,,25,0,25,0,,,,,,,,,,,,,,,,,,,,,,1059.5202704994008,None,,,,,,,,,,,,,,,,,stranger,168,26,aloud,new,null,1055.0878633996472,None,1055.0878633996472,None,5,3.429966999217868,1055.0878633996472,None,3.429966999217868,1058.5415667993948,None,1059.054132499732,None,1059.054132499732,None,r,0.4398902002722025,1059.054132499732,None,0.4398902002722025,,,83 Aloud,001,2022_Nov_17_0957,ProdSingRedoBetween,2021.2.3,59.986887087868794,
,,,,26,0,26,0,,,,,,,,,,,,,,,,,,,,,,1062.6232875995338,None,,,,,,,,,,,,,,,,,public,36,27,aloud,old,blue,1060.0401848992333,None,1060.0401848992333,None,4,1.6776882000267506,1060.0401848992333,None,1.6776882000267506,1061.744069699198,None,1062.2633351990953,None,1062.2633351990953,None,r,0.34257670026272535,1062.2633351990953,None,0.34257670026272535,,,83 Aloud,001,2022_Nov_17_0957,ProdSingRedoBetween,2021.2.3,59.986887087868794,
,,,,27,0,27,0,,,,,,,,,,,,,,,,,,,,,,1065.2759420992807,None,,,,,,,,,,,,,,,,,scene,7,28,aloud,old,yellow,1063.1306826993823,None,1063.1306826993823,None,6,1.4032486993819475,1063.1306826993823,None,1.4032486993819475,1064.56159869954,None,1065.0759126991034,None,1065.0759126991034,None,r,0.17016690038144588,1065.0759126991034,None,0.17016690038144588,,,83 Aloud,001,2022_Nov_17_0957,ProdSingRedoBetween,2021.2.3,59.986887087868794,
,,,,28,0,28,0,,,,,,,,,,,,,,,,,,,,,,1069.163148499094,None,,,,,,,,,,,,,,,,,impact,122,29,aloud,new,null,1065.7828094996512,None,1065.7828094996512,None,3,2.7430533999577165,1065.7828094996512,None,2.7430533999577165,1068.5465144999325,None,1069.0556434998289,None,1069.0556434998289,None,f,0.08636990003287792,1069.0556434998289,None,0.08636990003287792,,,83 Aloud,001,2022_Nov_17_0957,ProdSingRedoBetween,2021.2.3,59.986887087868794,
,,,,29,0,29,0,,,,,,,,,,,,,,,,,,,,,,1073.3340032994747,None,,,,,,,,,,,,,,,,,victory,95,30,aloud,new,null,1069.672388999723,None,1069.672388999723,None,2,2.5736638996750116,1069.672388999723,None,2.5736638996750116,1072.266728199087,None,1072.7668769992888,None,1072.7668769992888,None,f,0.543032200075686,1072.7668769992888,None,0.543032200075686,,,83 Aloud,001,2022_Nov_17_0957,ProdSingRedoBetween,2021.2.3,59.986887087868794,
,,,,30,0,30,0,,,,,,,,,,,,,,,,,,,,,,1076.1034781998023,None,,,,,,,,,,,,,,,,,close,14,31,aloud,old,yellow,1073.8459873991087,None,1073.8459873991087,None,4,1.431908800266683,1073.8459873991087,None,1.431908800266683,1075.3056749999523,None,1075.824231499806,None,1075.824231499806,None,f,0.2616916000843048,1075.824231499806,None,0.2616916000843048,,,83 Aloud,001,2022_Nov_17_0957,ProdSingRedoBetween,2021.2.3,59.986887087868794,
,,,,31,0,31,0,,,,,,,,,,,,,,,,,,,,,,1080.4410387994722,None,,,,,,,,,,,,,,,,,minute,82,32,aloud,old,red,1076.616167099215,None,1076.616167099215,None,2,1.8136288998648524,1076.616167099215,None,1.8136288998648524,1078.455673999153,None,1078.96770049911,None,1078.96770049911,None,f,1.446140999905765,1078.96770049911,None,1.446140999905765,,,83 Aloud,001,2022_Nov_17_0957,ProdSingRedoBetween,2021.2.3,59.986887087868794,
,,,,32,0,32,0,,,,,,,,,,,,,,,,,,,,,,1085.4156760992482,None,,,,,,,,,,,,,,,,,department,115,33,aloud,new,null,1080.9526328993961,None,1080.9526328993961,None,4,3.0532591994851828,1080.9526328993961,None,3.0532591994851828,1084.0292205996811,None,1084.535351799801,None,1084.535351799801,None,f,0.8546433001756668,1084.535351799801,None,0.8546433001756668,,,83 Aloud,001,2022_Nov_17_0957,ProdSingRedoBetween,2021.2.3,59.986887087868794,
,,,,33,0,33,0,,,,,,,,,,,,,,,,,,,,,,1088.8846045993268,None,,,,,,,,,,,,,,,,,murder,106,34,aloud,new,null,1085.9322723997757,None,1085.9322723997757,None,1,1.1856151996180415,1085.9322723997757,None,1.1856151996180415,1087.1492807995528,None,1087.6484084995463,None,1087.6484084995463,None,f,1.213371199555695,1087.6484084995463,None,1.213371199555695,,,83 Aloud,001,2022_Nov_17_0957,ProdSingRedoBetween,2021.2.3,59.986887087868794,
,,,,34,0,34,0,,,,,,,,,,,,,,,,,,,,,,1091.8024114994332,None,,,,,,,,,,,,,,,,,season,75,35,aloud,old,red,1089.4110892992467,None,1089.4110892992467,None,1,1.354840099811554,1089.4110892992467,None,1.354840099811554,1090.7867734991014,None,1091.3065731991082,None,1091.3065731991082,None,f,0.4672930995002389,1091.3065731991082,None,0.4672930995002389,,,83 Aloud,001,2022_Nov_17_0957,ProdSingRedoBetween,2021.2.3,59.986887087868794,
,,,,35,0,35,0,,,,,,,,,,,,,,,,,,,,,,1094.0546832997352,None,,,,,,,,,,,,,,,,,enemy,121,36,aloud,new,null,1092.3080718992278,None,1092.3080718992278,None,1,1.0898420996963978,1092.3080718992278,None,1.0898420996963978,1093.4237633999437,None,1093.9414980998263,None,1093.9414980998263,None,f,0.09633269999176264,1093.9414980998263,None,0.09633269999176264,,,83 Aloud,001,2022_Nov_17_0957,ProdSingRedoBetween,2021.2.3,59.986887087868794,
,,,,36,0,36,0,,,,,,,,,,,,,,,,,,,,,,1097.0083963992074,None,,,,,,,,,,,,,,,,,tough,3,37,aloud,old,yellow,1094.5585855999961,None,1094.5585855999961,None,6,1.6233933996409178,1094.5585855999961,None,1.6233933996409178,1096.2068788995966,None,1096.7126651993021,None,1096.7126651993021,None,r,0.2692599995061755,1096.7126651993021,None,0.2692599995061755,,,83 Aloud,001,2022_Nov_17_0957,ProdSingRedoBetween,2021.2.3,59.986887087868794,
,,,,37,0,37,0,,,,,,,,,,,,,,,,,,,,,,1099.5435068998486,None,,,,,,,,,,,,,,,,,session,124,38,aloud,new,null,1097.5383600993082,None,1097.5383600993082,None,1,1.0755108995363116,1097.5383600993082,None,1.0755108995363116,1098.6451694993302,None,1099.1599104991183,None,1099.1599104991183,None,f,0.3580058002844453,1099.1599104991183,None,0.3580058002844453,,,83 Aloud,001,2022_Nov_17_0957,ProdSingRedoBetween,2021.2.3,59.986887087868794,
,,,,38,0,38,0,,,,,,,,,,,,,,,,,,,,,,1102.579824499786,None,,,,,,,,,,,,,,,,,rural,134,39,aloud,new,null,1100.050449299626,None,1100.050449299626,None,1,1.1874046996235847,1100.050449299626,None,1.1874046996235847,1101.2629247996956,None,1101.7664666995406,None,1101.7664666995406,None,f,0.7913737995550036,1101.7664666995406,None,0.7913737995550036,,,83 Aloud,001,2022_Nov_17_0957,ProdSingRedoBetween,2021.2.3,59.986887087868794,
,,,,39,0,39,0,,,,,,,,,,,,,,,,,,,,,,1105.649631199427,None,,,,,,,,,,,,,,,,,piece,127,40,aloud,new,null,1103.0872966991737,None,1103.0872966991737,None,3,1.5591337997466326,1103.0872966991737,None,1.5591337997466326,1104.6723986994475,None,1105.182476199232,None,1105.182476199232,None,f,0.43933940026909113,1105.182476199232,None,0.43933940026909113,,,83 Aloud,001,2022_Nov_17_0957,ProdSingRedoBetween,2021.2.3,59.986887087868794,
,,,,40,0,40,0,,,,,,,,,,,,,,,,,,,,,,1108.8528646994382,None,,,,,,,,,,,,,,,,,drama,45,41,aloud,old,blue,1106.1554030999541,None,1106.1554030999541,None,6,1.5303996000438929,1106.1554030999541,None,1.5303996000438929,1107.703058699146,None,1108.2042444990948,None,1108.2042444990948,None,f,0.6255442993715405,1108.2042444990948,None,0.6255442993715405,,,83 Aloud,001,2022_Nov_17_0957,ProdSingRedoBetween,2021.2.3,59.986887087868794,
,,,,41,0,41,0,,,,,,,,,,,,,,,,,,,,,,1113.907572599128,None,,,,,,,,,,,,,,,,,turkey,46,42,aloud,old,blue,1109.3567843995988,None,1109.3567843995988,None,2,3.5370470993220806,1109.3567843995988,None,3.5370470993220806,1112.9251189995557,None,1113.446933599189,None,1113.446933599189,None,f,0.4309713002294302,1113.446933599189,None,0.4309713002294302,,,83 Aloud,001,2022_Nov_17_0957,ProdSingRedoBetween,2021.2.3,59.986887087868794,
,,,,42,0,42,0,,,,,,,,,,,,,,,,,,,,,,1117.1279767993838,None,,,,,,,,,,,,,,,,,congress,118,43,aloud,new,null,1114.4231414999813,None,1114.4231414999813,None,1,1.502603099681437,1114.4231414999813,None,1.502603099681437,1115.9446650994942,None,1116.4490603990853,None,1116.4490603990853,None,f,0.6526401992887259,1116.4490603990853,None,0.6526401992887259,,,83 Aloud,001,2022_Nov_17_0957,ProdSingRedoBetween,2021.2.3,59.986887087868794,
,,,,43,0,43,0,,,,,,,,,,,,,,,,,,,,,,1120.7479195995256,None,,,,,,,,,,,,,,,,,interview,27,44,aloud,old,yellow,1117.6293030995876,None,1117.6293030995876,None,1,1.7365132002159953,1117.6293030995876,None,1.7365132002159953,1119.4002714995295,None,1119.9137808997184,None,1119.9137808997184,None,f,0.8041655998677015,1119.9137808997184,None,0.8041655998677015,,,83 Aloud,001,2022_Nov_17_0957,ProdSingRedoBetween,2021.2.3,59.986887087868794,
,,,,44,0,44,0,,,,,,,,,,,,,,,,,,,,,,1124.4349210998043,None,,,,,,,,,,,,,,,,,marriage,166,45,aloud,new,null,1121.2563194995746,None,1121.2563194995746,None,2,2.2455155001953244,1121.2563194995746,None,2.2455155001953244,1123.5183412991464,None,1124.0232467995957,None,1124.0232467995957,None,f,0.38259820081293583,1124.0232467995957,None,0.38259820081293583,,,83 Aloud,001,2022_Nov_17_0957,ProdSingRedoBetween,2021.2.3,59.986887087868794,
,,,,45,0,45,0,,,,,,,,,,,,,,,,,,,,,,1128.2721803998575,None,,,,,,,,,,,,,,,,,generation,175,46,aloud,new,null,1124.9450094997883,None,1124.9450094997883,None,6,1.4449936002492905,1124.9450094997883,None,1.4449936002492905,1126.4262530999258,None,1126.9418781995773,None,1126.9418781995773,None,r,1.3039135998114944,1126.9418781995773,None,1.3039135998114944,,,83 Aloud,001,2022_Nov_17_0957,ProdSingRedoBetween,2021.2.3,59.986887087868794,
,,,,46,0,46,0,,,,,,,,,,,,,,,,,,,,,,1131.8293438991532,None,,,,,,,,,,,,,,,,,employment,141,47,aloud,new,null,1128.7825262993574,None,1128.7825262993574,None,1,1.7833035001531243,1128.7825262993574,None,1.7833035001531243,1130.5964183993638,None,1131.1083001997322,None,1131.1083001997322,None,f,0.697732700034976,1131.1083001997322,None,0.697732700034976,,,83 Aloud,001,2022_Nov_17_0957,ProdSingRedoBetween,2021.2.3,59.986887087868794,
,,,,47,0,47,0,,,,,,,,,,,,,,,,,,,,,,1135.147147199139,None,,,,,,,,,,,,,,,,,poetry,69,48,aloud,old,red,1132.3436665991321,None,1132.3436665991321,None,6,1.3900736002251506,1132.3436665991321,None,1.3900736002251506,1133.7612705994397,None,1134.2616295991465,None,1134.2616295991465,None,r,0.8560458002611995,1134.2616295991465,None,0.8560458002611995,,,83 Aloud,001,2022_Nov_17_0957,ProdSingRedoBetween,2021.2.3,59.986887087868794,
,,,,48,0,48,0,,,,,,,,,,,,,,,,,,,,,,1138.5324083995074,None,,,,,,,,,,,,,,,,,evidence,35,49,aloud,old,blue,1135.657419199124,None,1135.657419199124,None,6,1.7963370997458696,1135.657419199124,None,1.7963370997458696,1137.4825713997707,None,1137.9878342999145,None,1137.9878342999145,None,r,0.513947899453342,1137.9878342999145,None,0.513947899453342,,,83 Aloud,001,2022_Nov_17_0957,ProdSingRedoBetween,2021.2.3,59.986887087868794,
,,,,49,0,49,0,,,,,,,,,,,,,,,,,,,,,,1141.5686312997714,None,,,,,,,,,,,,,,,,,owner,50,50,aloud,old,blue,1139.035373499617,None,1139.035373499617,None,2,1.4425975000485778,1139.035373499617,None,1.4425975000485778,1140.5011163000017,None,1141.001707999967,None,1141.001707999967,None,f,0.5480653997510672,1141.001707999967,None,0.5480653997510672,,,83 Aloud,001,2022_Nov_17_0957,ProdSingRedoBetween,2021.2.3,59.986887087868794,
,,,,50,0,50,0,,,,,,,,,,,,,,,,,,,,,,1144.888667399995,None,,,,,,,,,,,,,,,,,atmosphere,101,51,aloud,new,null,1142.069578799419,None,1142.069578799419,None,1,1.3841684004291892,1142.069578799419,None,1.3841684004291892,1143.4718927992508,None,1143.97681919951,None,1143.97681919951,None,f,0.8849006993696094,1143.97681919951,None,0.8849006993696094,,,83 Aloud,001,2022_Nov_17_0957,ProdSingRedoBetween,2021.2.3,59.986887087868794,
,,,,51,0,51,0,,,,,,,,,,,,,,,,,,,,,,1151.328954499215,None,,,,,,,,,,,,,,,,,nature,60,52,aloud,old,red,1145.3930230997503,None,1145.3930230997503,None,4,4.221005999483168,1145.3930230997503,None,4.221005999483168,1149.6529076993465,None,1150.1612836997956,None,1150.1612836997956,None,f,1.1404761001467705,1150.1612836997956,None,1.1404761001467705,,,83 Aloud,001,2022_Nov_17_0957,ProdSingRedoBetween,2021.2.3,59.986887087868794,
,,,,52,0,52,0,,,,,,,,,,,,,,,,,,,,,,1154.933465199545,None,,,,,,,,,,,,,,,,,pancakes,84,53,aloud,old,red,1151.8341641994193,None,1151.8341641994193,None,1,1.243640199303627,1151.8341641994193,None,1.243640199303627,1153.0990602998063,None,1153.6142263999209,None,1153.6142263999209,None,f,1.2877227999269962,1153.6142263999209,None,1.2877227999269962,,,83 Aloud,001,2022_Nov_17_0957,ProdSingRedoBetween,2021.2.3,59.986887087868794,
,,,,53,0,53,0,,,,,,,,,,,,,,,,,,,,,,1157.6180354999378,None,,,,,,,,,,,,,,,,,thing,55,54,aloud,old,blue,1155.4342346992344,None,1155.4342346992344,None,1,1.2595696998760104,1155.4342346992344,None,1.2595696998760104,1156.7228396991268,None,1157.2348356992006,None,1157.2348356992006,None,f,0.35494840051978827,1157.2348356992006,None,0.35494840051978827,,,83 Aloud,001,2022_Nov_17_0957,ProdSingRedoBetween,2021.2.3,59.986887087868794,
,,,,54,0,54,0,,,,,,,,,,,,,,,,,,,,,,1161.65543029923,None,,,,,,,,,,,,,,,,,strength,72,55,aloud,old,red,1158.119927099906,None,1158.119927099906,None,2,1.2937938999384642,1158.119927099906,None,1.2937938999384642,1159.4422250995412,None,1159.9537963997573,None,1159.9537963997573,None,f,1.6839108997955918,1159.9537963997573,None,1.6839108997955918,,,83 Aloud,001,2022_Nov_17_0957,ProdSingRedoBetween,2021.2.3,59.986887087868794,
,,,,55,0,55,0,,,,,,,,,,,,,,,,,,,,,,1165.8095352994278,None,,,,,,,,,,,,,,,,,quarter,47,56,aloud,old,blue,1162.1622242992744,None,1162.1622242992744,None,6,1.115540100261569,1162.1622242992744,None,1.115540100261569,1163.3081502998248,None,1163.8119103992358,None,1163.8119103992358,None,r,1.9778313003480434,1163.8119103992358,None,1.9778313003480434,,,83 Aloud,001,2022_Nov_17_0957,ProdSingRedoBetween,2021.2.3,59.986887087868794,
,,,,56,0,56,0,,,,,,,,,,,,,,,,,,,,,,1168.7623694995418,None,,,,,,,,,,,,,,,,,sweet,132,57,aloud,new,null,1166.3100686995313,None,1166.3100686995313,None,2,1.495715300552547,1166.3100686995313,None,1.495715300552547,1167.8286169990897,None,1168.3289637994021,None,1168.3289637994021,None,f,0.40472340025007725,1168.3289637994021,None,0.40472340025007725,,,83 Aloud,001,2022_Nov_17_0957,ProdSingRedoBetween,2021.2.3,59.986887087868794,
,,,,57,0,57,0,,,,,,,,,,,,,,,,,,,,,,1173.2500248998404,None,,,,,,,,,,,,,,,,,committee,178,58,aloud,new,null,1169.281347299926,None,1169.281347299926,None,1,2.3484557000920177,1169.281347299926,None,2.3484557000920177,1171.6546961991116,None,1172.1660550991073,None,1172.1660550991073,None,f,1.0636923993006349,1172.1660550991073,None,1.0636923993006349,,,83 Aloud,001,2022_Nov_17_0957,ProdSingRedoBetween,2021.2.3,59.986887087868794,
,,,,58,0,58,0,,,,,,,,,,,,,,,,,,,,,,1175.6533939996734,None,,,,,,,,,,,,,,,,,comfort,177,59,aloud,new,null,1173.7597121996805,None,1173.7597121996805,None,1,1.2299324003979564,1173.7597121996805,None,1.2299324003979564,1175.0342774996534,None,1175.5410387990996,None,1175.5410387990996,None,f,0.08084890060126781,1175.5410387990996,None,0.08084890060126781,,,83 Aloud,001,2022_Nov_17_0957,ProdSingRedoBetween,2021.2.3,59.986887087868794,
,,,,59,0,59,0,,,,,,,,,,,,,,,,,,,,,,1178.056329999119,None,,,,,,,,,,,,,,,,,prime,25,60,aloud,old,yellow,1176.165732799098,None,1176.165732799098,None,1,1.2240623999387026,1176.165732799098,None,1.2240623999387026,1177.4230090994388,None,1177.9453181996942,None,1177.9453181996942,None,f,0.09243259951472282,1177.9453181996942,None,0.09243259951472282,,,83 Aloud,001,2022_Nov_17_0957,ProdSingRedoBetween,2021.2.3,59.986887087868794,
,,,,60,0,60,0,,,,,,,,,,,,,,,,,,,,,,1181.3084451993927,None,,,,,,,,,,,,,,,,,graduate,112,61,aloud,new,null,1178.5555688999593,None,1178.5555688999593,None,6,1.746157799847424,1178.5555688999593,None,1.746157799847424,1180.324133099988,None,1180.8245479995385,None,1180.8245479995385,None,r,0.46134370006620884,1180.8245479995385,None,0.46134370006620884,,,83 Aloud,001,2022_Nov_17_0957,ProdSingRedoBetween,2021.2.3,59.986887087868794,
,,,,61,0,61,0,,,,,,,,,,,,,,,,,,,,,,1184.9787166994065,None,,,,,,,,,,,,,,,,,colonel,97,62,aloud,new,null,1181.8219525991008,None,1181.8219525991008,None,1,1.28785590082407,1181.8219525991008,None,1.28785590082407,1183.1418423997238,None,1183.644203699194,None,1183.644203699194,None,f,1.3054915005341172,1183.644203699194,None,1.3054915005341172,,,83 Aloud,001,2022_Nov_17_0957,ProdSingRedoBetween,2021.2.3,59.986887087868794,
,,,,62,0,62,0,,,,,,,,,,,,,,,,,,,,,,1188.732126899995,None,,,,,,,,,,,,,,,,,route,98,63,aloud,new,null,1185.4854892995209,None,1185.4854892995209,None,1,1.2723001996055245,1185.4854892995209,None,1.2723001996055245,1186.7868356993422,None,1187.2978419996798,None,1187.2978419996798,None,f,1.4038314996287227,1187.2978419996798,None,1.4038314996287227,,,83 Aloud,001,2022_Nov_17_0957,ProdSingRedoBetween,2021.2.3,59.986887087868794,
,,,,63,0,63,0,,,,,,,,,,,,,,,,,,,,,,1191.8855883991346,None,,,,,,,,,,,,,,,,,staff,99,64,aloud,new,null,1189.2403927994892,None,1189.2403927994892,None,1,1.4453985998407006,1189.2403927994892,None,1.4453985998407006,1190.7148137995973,None,1191.218123499304,None,1191.218123499304,None,f,0.6515554999932647,1191.218123499304,None,0.6515554999932647,,,83 Aloud,001,2022_Nov_17_0957,ProdSingRedoBetween,2021.2.3,59.986887087868794,
,,,,64,0,64,0,,,,,,,,,,,,,,,,,,,,,,1194.5548675991595,None,,,,,,,,,,,,,,,,,reach,21,65,aloud,old,yellow,1192.3923448994756,None,1192.3923448994756,None,1,0.9653283003717661,1192.3923448994756,None,0.9653283003717661,1193.3871392998844,None,1193.8872283995152,None,1193.8872283995152,None,f,0.6385048003867269,1193.8872283995152,None,0.6385048003867269,,,83 Aloud,001,2022_Nov_17_0957,ProdSingRedoBetween,2021.2.3,59.986887087868794,
,,,,65,0,65,0,,,,,,,,,,,,,,,,,,,,,,1197.2742150994018,None,,,,,,,,,,,,,,,,,finance,30,66,aloud,old,blue,1195.0554627999663,None,1195.0554627999663,None,5,1.1982527999207377,1195.0554627999663,None,1.1982527999207377,1196.274662799202,None,1196.7830217992887,None,1196.7830217992887,None,r,0.4705622997134924,1196.7830217992887,None,0.4705622997134924,,,83 Aloud,001,2022_Nov_17_0957,ProdSingRedoBetween,2021.2.3,59.986887087868794,
,,,,66,0,66,0,,,,,,,,,,,,,,,,,,,,,,1199.9935936992988,None,,,,,,,,,,,,,,,,,government,23,67,aloud,old,yellow,1197.777328199707,None,1197.777328199707,None,6,1.2286101002246141,1197.777328199707,None,1.2286101002246141,1199.0463145999238,None,1199.5805711997673,None,1199.5805711997673,None,r,0.3930542999878526,1199.5805711997673,None,0.3930542999878526,,,83 Aloud,001,2022_Nov_17_0957,ProdSingRedoBetween,2021.2.3,59.986887087868794,
,,,,67,0,67,0,,,,,,,,,,,,,,,,,,,,,,1203.5869264993817,None,,,,,,,,,,,,,,,,,medicine,100,68,aloud,new,null,1200.494201399386,None,1200.494201399386,None,2,1.9994863998144865,1200.494201399386,None,1.9994863998144865,1202.513595099561,None,1203.013422999531,None,1203.013422999531,None,f,0.5445250002667308,1203.013422999531,None,0.5445250002667308,,,83 Aloud,001,2022_Nov_17_0957,ProdSingRedoBetween,2021.2.3,59.986887087868794,
,,,,68,0,68,0,,,,,,,,,,,,,,,,,,,,,,1206.333187699318,None,,,,,,,,,,,,,,,,,order,53,69,aloud,old,blue,1204.1041704993695,None,1204.1041704993695,None,1,0.9813574999570847,1204.1041704993695,None,0.9813574999570847,1205.117181699723,None,1205.6325579993427,None,1205.6325579993427,None,f,0.6690750000998378,1205.6325579993427,None,0.6690750000998378,,,83 Aloud,001,2022_Nov_17_0957,ProdSingRedoBetween,2021.2.3,59.986887087868794,
,,,,69,0,69,0,,,,,,,,,,,,,,,,,,,,,,1208.65465079993,None,,,,,,,,,,,,,,,,,alert,78,70,aloud,old,red,1206.833754199557,None,1206.833754199557,None,1,0.9238057993352413,1206.833754199557,None,0.9238057993352413,1207.784464999102,None,1208.2933709993958,None,1208.2933709993958,None,f,0.3282038997858763,1208.2933709993958,None,0.3282038997858763,,,83 Aloud,001,2022_Nov_17_0957,ProdSingRedoBetween,2021.2.3,59.986887087868794,
,,,,70,0,70,0,,,,,,,,,,,,,,,,,,,,,,1211.5884599993005,None,,,,,,,,,,,,,,,,,frank,57,71,aloud,old,blue,1209.171482199803,None,1209.171482199803,None,6,1.3461993001401424,1209.171482199803,None,1.3461993001401424,1210.538511599414,None,1211.0447194995359,None,1211.0447194995359,None,r,0.520852199755609,1211.0447194995359,None,0.520852199755609,,,83 Aloud,001,2022_Nov_17_0957,ProdSingRedoBetween,2021.2.3,59.986887087868794,
,,,,71,0,71,0,,,,,,,,,,,,,,,,,,,,,,1215.058725499548,None,,,,,,,,,,,,,,,,,history,66,72,aloud,old,red,1212.1046577999368,None,1212.1046577999368,None,4,1.8929832996800542,1212.1046577999368,None,1.8929832996800542,1214.0260407999158,None,1214.544424499385,None,1214.544424499385,None,f,0.49327370058745146,1214.544424499385,None,0.49327370058745146,,,83 Aloud,001,2022_Nov_17_0957,ProdSingRedoBetween,2021.2.3,59.986887087868794,
,,,,72,0,72,0,,,,,,,,,,,,,,,,,,,,,,1217.3943117996678,None,,,,,,,,,,,,,,,,,addition,20,73,aloud,old,yellow,1215.5657164994627,None,1215.5657164994627,None,6,1.0959049994125962,1215.5657164994627,None,1.0959049994125962,1216.6778998998925,None,1217.1777014993131,None,1217.1777014993131,None,r,0.19593709986656904,1217.1777014993131,None,0.19593709986656904,,,83 Aloud,001,2022_Nov_17_0957,ProdSingRedoBetween,2021.2.3,59.986887087868794,
,,,,73,0,73,0,,,,,,,,,,,,,,,,,,,,,,1219.9302006997168,None,,,,,,,,,,,,,,,,,device,146,74,aloud,new,null,1217.9049317995086,None,1217.9049317995086,None,1,1.3726233998313546,1217.9049317995086,None,1.3726233998313546,1219.2959657991305,None,1219.8015375994146,None,1219.8015375994146,None,r,0.1081419000402093,1219.8015375994146,None,0.1081419000402093,,,83 Aloud,001,2022_Nov_17_0957,ProdSingRedoBetween,2021.2.3,59.986887087868794,
,,,,74,0,74,0,,,,,,,,,,,,,,,,,,,,,,1228.0548706995323,None,,,,,,,,,,,,,,,,,emergency,111,75,aloud,new,null,1220.4311855994165,None,1220.4311855994165,None,6,4.454328699968755,1220.4311855994165,None,4.454328699968755,1224.9035925995559,None,1225.4192366991192,None,1225.4192366991192,None,r,2.6104612005874515,1225.4192366991192,None,2.6104612005874515,,,83 Aloud,001,2022_Nov_17_0957,ProdSingRedoBetween,2021.2.3,59.986887087868794,
,,,,75,0,75,0,,,,,,,,,,,,,,,,,,,,,,1230.4073114991188,None,,,,,,,,,,,,,,,,,clear,161,76,aloud,new,null,1228.5594243993983,None,1228.5594243993983,None,1,1.2221715999767184,1228.5594243993983,None,1.2221715999767184,1229.8063850998878,None,1230.3070742990822,None,1230.3070742990822,None,f,0.0745445005595684,1230.3070742990822,None,0.0745445005595684,,,83 Aloud,001,2022_Nov_17_0957,ProdSingRedoBetween,2021.2.3,59.986887087868794,
,,,,76,0,76,0,,,,,,,,,,,,,,,,,,,,,,1233.4810186997056,None,,,,,,,,,,,,,,,,,light,148,77,aloud,new,null,1230.9092215998098,None,1230.9092215998098,None,1,1.4483687998726964,1230.9092215998098,None,1.4483687998726964,1232.3758119996637,None,1232.876675799489,None,1232.876675799489,None,f,0.5768899004906416,1232.876675799489,None,0.5768899004906416,,,83 Aloud,001,2022_Nov_17_0957,ProdSingRedoBetween,2021.2.3,59.986887087868794,
,,,,77,0,77,0,,,,,,,,,,,,,,,,,,,,,,1236.329862599261,None,,,,,,,,,,,,,,,,,edition,61,78,aloud,old,red,1233.994266799651,None,1233.994266799651,None,6,1.219297700561583,1233.994266799651,None,1.219297700561583,1235.2398722991347,None,1235.750375399366,None,1235.750375399366,None,r,0.559239100664854,1235.750375399366,None,0.559239100664854,,,83 Aloud,001,2022_Nov_17_0957,ProdSingRedoBetween,2021.2.3,59.986887087868794,
,,,,78,0,78,0,,,,,,,,,,,,,,,,,,,,,,1242.3024988994002,None,,,,,,,,,,,,,,,,,judge,16,79,aloud,old,yellow,1236.833958399482,None,1236.833958399482,None,1,1.6355781005695462,1236.833958399482,None,1.6355781005695462,1238.5050489995629,None,1239.015871799551,None,1239.015871799551,None,f,3.261689499951899,1239.015871799551,None,3.261689499951899,,,83 Aloud,001,2022_Nov_17_0957,ProdSingRedoBetween,2021.2.3,59.986887087868794,
,,,,79,0,79,0,,,,,,,,,,,,,,,,,,,,,,1246.206364499405,None,,,,,,,,,,,,,,,,,surprise,126,80,aloud,new,null,1242.8101927991956,None,1242.8101927991956,None,1,2.091401600278914,1242.8101927991956,None,2.091401600278914,1244.9229278992862,None,1245.4332882994786,None,1245.4332882994786,None,f,0.7563151996582747,1245.4332882994786,None,0.7563151996582747,,,83 Aloud,001,2022_Nov_17_0957,ProdSingRedoBetween,2021.2.3,59.986887087868794,
,,,,80,0,80,0,,,,,,,,,,,,,,,,,,,,,,1249.0260440995917,None,,,,,,,,,,,,,,,,,break,43,81,aloud,old,blue,1246.7194811999798,None,1246.7194811999798,None,3,1.502123899757862,1246.7194811999798,None,1.502123899757862,1248.2448006998748,None,1248.7611362999305,None,1248.7611362999305,None,f,0.2365042995661497,1248.7611362999305,None,0.2365042995661497,,,83 Aloud,001,2022_Nov_17_0957,ProdSingRedoBetween,2021.2.3,59.986887087868794,
,,,,81,0,81,0,,,,,,,,,,,,,,,,,,,,,,1253.6804357999936,None,,,,,,,,,,,,,,,,,payment,32,82,aloud,old,blue,1249.5266737993807,None,1249.5266737993807,None,2,3.0789334001019597,1249.5266737993807,None,3.0789334001019597,1252.6310040997341,None,1253.130423099734,None,1253.130423099734,None,f,0.5230542998760939,1253.130423099734,None,0.5230542998760939,,,83 Aloud,001,2022_Nov_17_0957,ProdSingRedoBetween,2021.2.3,59.986887087868794,
,,,,82,0,82,0,,,,,,,,,,,,,,,,,,,,,,1255.9327789992094,None,,,,,,,,,,,,,,,,,partner,80,83,aloud,old,red,1254.1812233999372,None,1254.1812233999372,None,2,0.9364304002374411,1254.1812233999372,None,0.9364304002374411,1255.1505054999143,None,1255.6673476994038,None,1255.6673476994038,None,f,0.2342579998075962,1255.6673476994038,None,0.2342579998075962,,,83 Aloud,001,2022_Nov_17_0957,ProdSingRedoBetween,2021.2.3,59.986887087868794,
,,,,83,0,83,0,,,,,,,,,,,,,,,,,,,,,,1260.0369198992848,None,,,,,,,,,,,,,,,,,bureau,136,84,aloud,new,null,1256.4334047995508,None,1256.4334047995508,None,1,1.5241743996739388,1256.4334047995508,None,1.5241743996739388,1257.9850375996903,None,1258.4927623998374,None,1258.4927623998374,None,f,1.520788500085473,1258.4927623998374,None,1.520788500085473,,,83 Aloud,001,2022_Nov_17_0957,ProdSingRedoBetween,2021.2.3,59.986887087868794,
,,,,84,0,84,0,,,,,,,,,,,,,,,,,,,,,,1262.6126860994846,None,,,,,,,,,,,,,,,,,damage,139,85,aloud,new,null,1260.5458883997053,None,1260.5458883997053,None,1,1.315603700466454,1260.5458883997053,None,1.315603700466454,1261.8890420999378,None,1262.389060699381,None,1262.389060699381,None,f,0.20095290057361126,1262.389060699381,None,0.20095290057361126,,,83 Aloud,001,2022_Nov_17_0957,ProdSingRedoBetween,2021.2.3,59.986887087868794,
,,,,85,0,85,0,,,,,,,,,,,,,,,,,,,,,,1267.799332499504,None,,,,,,,,,,,,,,,,,service,34,86,aloud,old,blue,1263.1501504993066,None,1263.1501504993066,None,3,3.9114194996654987,1263.1501504993066,None,3.9114194996654987,1267.0801978996024,None,1267.6002107998356,None,1267.6002107998356,None,f,0.16550560016185045,1267.6002107998356,None,0.16550560016185045,,,83 Aloud,001,2022_Nov_17_0957,ProdSingRedoBetween,2021.2.3,59.986887087868794,
,,,,86,0,86,0,,,,,,,,,,,,,,,,,,,,,,1270.2468013996258,None,,,,,,,,,,,,,,,,,music,76,87,aloud,old,red,1268.3125799996778,None,1268.3125799996778,None,1,1.316927700303495,1268.3125799996778,None,1.316927700303495,1269.6485779993236,None,1270.1646613990888,None,1270.1646613990888,None,f,0.06488639954477549,1270.1646613990888,None,0.06488639954477549,,,83 Aloud,001,2022_Nov_17_0957,ProdSingRedoBetween,2021.2.3,59.986887087868794,
,,,,87,0,87,0,,,,,,,,,,,,,,,,,,,,,,1273.0999988997355,None,,,,,,,,,,,,,,,,,afternoon,85,88,aloud,old,red,1270.7653582999483,None,1270.7653582999483,None,6,1.456123299896717,1270.7653582999483,None,1.456123299896717,1272.251988299191,None,1272.767905799672,None,1272.767905799672,None,r,0.3015899993479252,1272.767905799672,None,0.3015899993479252,,,83 Aloud,001,2022_Nov_17_0957,ProdSingRedoBetween,2021.2.3,59.986887087868794,
,,,,88,0,88,0,,,,,,,,,,,,,,,,,,,,,,1275.6044594999403,None,,,,,,,,,,,,,,,,,majority,104,89,aloud,new,null,1273.609552799724,None,1273.609552799724,None,1,1.3080047005787492,1273.609552799724,None,1.3080047005787492,1274.9392228992656,None,1275.452365799807,None,1275.452365799807,None,f,0.1292894994840026,1275.452365799807,None,0.1292894994840026,,,83 Aloud,001,2022_Nov_17_0957,ProdSingRedoBetween,2021.2.3,59.986887087868794,
,,,,89,0,89,0,,,,,,,,,,,,,,,,,,,,,,1278.990448099561,None,,,,,,,,,,,,,,,,,carry,92,90,aloud,new,null,1276.123925499618,None,1276.123925499618,None,1,1.6176311997696757,1276.123925499618,None,1.6176311997696757,1277.7751903999597,None,1278.2882173992693,None,1278.2882173992693,None,f,0.6854050001129508,1278.2882173992693,None,0.6854050001129508,,,83 Aloud,001,2022_Nov_17_0957,ProdSingRedoBetween,2021.2.3,59.986887087868794,
,,,,90,0,90,0,,,,,,,,,,,,,,,,,,,,,,1281.1412549996749,None,,,,,,,,,,,,,,,,,trail,143,91,aloud,new,null,1279.4920810991898,None,1279.4920810991898,None,1,1.017493899911642,1279.4920810991898,None,1.017493899911642,1280.5429574996233,None,1281.0579383997247,None,1281.0579383997247,None,f,0.06756410002708435,1281.0579383997247,None,0.06756410002708435,,,83 Aloud,001,2022_Nov_17_0957,ProdSingRedoBetween,2021.2.3,59.986887087868794,
,,,,91,0,91,0,,,,,,,,,,,,,,,,,,,,,,1285.2786763999611,None,,,,,,,,,,,,,,,,,shape,131,92,aloud,new,null,1281.657622099854,None,1281.657622099854,None,1,0.8839123994112015,1281.657622099854,None,0.8839123994112015,1282.563578799367,None,1283.0765236997977,None,1283.0765236997977,None,f,2.1849571000784636,1283.0765236997977,None,2.1849571000784636,,,83 Aloud,001,2022_Nov_17_0957,ProdSingRedoBetween,2021.2.3,59.986887087868794,
,,,,92,0,92,0,,,,,,,,,,,,,,,,,,,,,,1288.398589199409,None,,,,,,,,,,,,,,,,,revolution,129,93,aloud,new,null,1285.7901078993455,None,1285.7901078993455,None,1,1.2634931998327374,1285.7901078993455,None,1.2634931998327374,1287.0908666998148,None,1287.6042356994003,None,1287.6042356994003,None,f,0.7691813996061683,1287.6042356994003,None,0.7691813996061683,,,83 Aloud,001,2022_Nov_17_0957,ProdSingRedoBetween,2021.2.3,59.986887087868794,
,,,,93,0,93,0,,,,,,,,,,,,,,,,,,,,,,1293.1552076991647,None,,,,,,,,,,,,,,,,,quick,37,94,aloud,old,blue,1288.9014046993107,None,1288.9014046993107,None,1,2.9280147003009915,1288.9014046993107,None,2.9280147003009915,1291.853869899176,None,1292.374208599329,None,1292.374208599329,None,f,0.7513246992602944,1292.374208599329,None,0.7513246992602944,,,83 Aloud,001,2022_Nov_17_0957,ProdSingRedoBetween,2021.2.3,59.986887087868794,
,,,,94,0,94,0,,,,,,,,,,,,,,,,,,,,,,1295.5560923991725,None,,,,,,,,,,,,,,,,,accident,42,95,aloud,old,blue,1293.6785006998107,None,1293.6785006998107,None,6,1.207061399705708,1293.6785006998107,None,1.207061399705708,1294.9049469996244,None,1295.4089378993958,None,1295.4089378993958,None,r,0.12457199953496456,1295.4089378993958,None,0.12457199953496456,,,83 Aloud,001,2022_Nov_17_0957,ProdSingRedoBetween,2021.2.3,59.986887087868794,
,,,,95,0,95,0,,,,,,,,,,,,,,,,,,,,,,1299.7098144991323,None,,,,,,,,,,,,,,,,,smooth,81,96,aloud,old,red,1296.0588288996369,None,1296.0588288996369,None,2,2.786559099331498,1296.0588288996369,None,2.786559099331498,1298.8808376993984,None,1299.3928520996124,None,1299.3928520996124,None,f,0.3005926003679633,1299.3928520996124,None,0.3005926003679633,,,83 Aloud,001,2022_Nov_17_0957,ProdSingRedoBetween,2021.2.3,59.986887087868794,
,,,,96,0,96,0,,,,,,,,,,,,,,,,,,,,,,1303.4799805991352,None,,,,,,,,,,,,,,,,,throw,44,97,aloud,old,blue,1300.2164816996083,None,1300.2164816996083,None,2,1.9650012999773026,1300.2164816996083,None,1.9650012999773026,1302.2134283995256,None,1302.7130397995934,None,1302.7130397995934,None,f,0.7406272003427148,1302.7130397995934,None,0.7406272003427148,,,83 Aloud,001,2022_Nov_17_0957,ProdSingRedoBetween,2021.2.3,59.986887087868794,
,,,,97,0,97,0,,,,,,,,,,,,,,,,,,,,,,1306.2496463991702,None,,,,,,,,,,,,,,,,,goose,170,98,aloud,new,null,1303.9949219999835,None,1303.9949219999835,None,1,1.0266073001548648,1303.9949219999835,None,1.0266073001548648,1305.048519199714,None,1305.5489945998415,None,1305.5489945998415,None,f,0.6805172003805637,1305.5489945998415,None,0.6805172003805637,,,83 Aloud,001,2022_Nov_17_0957,ProdSingRedoBetween,2021.2.3,59.986887087868794,
,,,,98,0,98,0,,,,,,,,,,,,,,,,,,,,,,1309.2528401995078,None,,,,,,,,,,,,,,,,,orchestra,22,99,aloud,old,yellow,1306.7561826994643,None,1306.7561826994643,None,6,1.4972135005518794,1306.7561826994643,None,1.4972135005518794,1308.286868499592,None,1308.802508099936,None,1308.802508099936,None,r,0.42708810046315193,1308.802508099936,None,0.42708810046315193,,,83 Aloud,001,2022_Nov_17_0957,ProdSingRedoBetween,2021.2.3,59.986887087868794,
,,,,99,0,99,0,,,,,,,,,,,,,,,,,,,,,,1311.8730931999162,None,,,,,,,,,,,,,,,,,fight,165,100,aloud,new,null,1309.7624775990844,None,1309.7624775990844,None,1,1.1709505002945662,1309.7624775990844,None,1.1709505002945662,1310.9542866991833,None,1311.4629275994375,None,1311.4629275994375,None,f,0.39061350002884865,1311.4629275994375,None,0.39061350002884865,,,83 Aloud,001,2022_Nov_17_0957,ProdSingRedoBetween,2021.2.3,59.986887087868794,
,,,,100,0,100,0,,,,,,,,,,,,,,,,,,,,,,1314.6758817993104,None,,,,,,,,,,,,,,,,,career,89,101,aloud,old,red,1312.3783391993493,None,1312.3783391993493,None,1,1.2031560000032187,1312.3783391993493,None,1.2031560000032187,1313.6095846993849,None,1314.1275807991624,None,1314.1275807991624,None,f,0.5180687000975013,1314.1275807991624,None,0.5180687000975013,,,83 Aloud,001,2022_Nov_17_0957,ProdSingRedoBetween,2021.2.3,59.986887087868794,
,,,,101,0,101,0,,,,,,,,,,,,,,,,,,,,,,1317.8613081993535,None,,,,,,,,,,,,,,,,,defeat,176,102,aloud,new,null,1315.1755510997027,None,1315.1755510997027,None,6,1.8058501007035375,1315.1755510997027,None,1.8058501007035375,1317.0111342994496,None,1317.5110939992592,None,1317.5110939992592,None,f,0.33438329957425594,1317.5110939992592,None,0.33438329957425594,,,83 Aloud,001,2022_Nov_17_0957,ProdSingRedoBetween,2021.2.3,59.986887087868794,
,,,,102,0,102,0,,,,,,,,,,,,,,,,,,,,,,1321.4648926993832,None,,,,,,,,,,,,,,,,,native,150,103,aloud,new,null,1318.38245539926,None,1318.38245539926,None,6,2.23097509983927,1318.38245539926,None,2.23097509983927,1320.6321023991331,None,1321.1311917994171,None,1321.1311917994171,None,r,0.3062306996434927,1321.1311917994171,None,0.3062306996434927,,,83 Aloud,001,2022_Nov_17_0957,ProdSingRedoBetween,2021.2.3,59.986887087868794,
,,,,103,0,103,0,,,,,,,,,,,,,,,,,,,,,,1324.150788099505,None,,,,,,,,,,,,,,,,,cross,5,104,aloud,old,yellow,1321.965386099182,None,1321.965386099182,None,1,1.1921127997338772,1321.965386099182,None,1.1921127997338772,1323.1847134996206,None,1323.7005603993312,None,1323.7005603993312,None,f,0.43289760034531355,1323.7005603993312,None,0.43289760034531355,,,83 Aloud,001,2022_Nov_17_0957,ProdSingRedoBetween,2021.2.3,59.986887087868794,
,,,,104,0,104,0,,,,,,,,,,,,,,,,,,,,,,1326.6032935995609,None,,,,,,,,,,,,,,,,,sound,171,105,aloud,new,null,1324.6551376990974,None,1324.6551376990974,None,1,1.0783291002735496,1324.6551376990974,None,1.0783291002735496,1325.7530087996274,None,1326.2594595998526,None,1326.2594595998526,None,f,0.31401209998875856,1326.2594595998526,None,0.31401209998875856,,,83 Aloud,001,2022_Nov_17_0957,ProdSingRedoBetween,2021.2.3,59.986887087868794,
,,,,105,0,105,0,,,,,,,,,,,,,,,,,,,,,,1329.7731186999008,None,,,,,,,,,,,,,,,,,junior,164,106,aloud,new,null,1327.1143776997924,None,1327.1143776997924,None,6,1.4509798996150494,1327.1143776997924,None,1.4509798996150494,1328.595427999273,None,1329.1055398993194,None,1329.1055398993194,None,r,0.6439238991588354,1329.1055398993194,None,0.6439238991588354,,,83 Aloud,001,2022_Nov_17_0957,ProdSingRedoBetween,2021.2.3,59.986887087868794,
,,,,106,0,106,0,,,,,,,,,,,,,,,,,,,,,,1332.4757767999545,None,,,,,,,,,,,,,,,,,bitter,63,107,aloud,old,red,1330.282505799085,None,1330.282505799085,None,6,1.2108217999339104,1330.282505799085,None,1.2108217999339104,1331.5248126992956,None,1332.0322447996587,None,1332.0322447996587,None,r,0.41322349943220615,1332.0322447996587,None,0.41322349943220615,,,83 Aloud,001,2022_Nov_17_0957,ProdSingRedoBetween,2021.2.3,59.986887087868794,
,,,,107,0,107,0,,,,,,,,,,,,,,,,,,,,,,1335.2452269997448,None,,,,,,,,,,,,,,,,,dance,123,108,aloud,new,null,1332.9763673990965,None,1332.9763673990965,None,6,1.221089500002563,1332.9763673990965,None,1.221089500002563,1334.2282395996153,None,1334.7281770994887,None,1334.7281770994887,None,r,0.5013218000531197,1334.7281770994887,None,0.5013218000531197,,,83 Aloud,001,2022_Nov_17_0957,ProdSingRedoBetween,2021.2.3,59.986887087868794,
,,,,108,0,108,0,,,,,,,,,,,,,,,,,,,,,,1337.330367599614,None,,,,,,,,,,,,,,,,,rapid,29,109,aloud,old,blue,1335.7623602999374,None,1335.7623602999374,None,1,0.8510544998571277,1335.7623602999374,None,0.8510544998571277,1336.6313908994198,None,1337.1352949999273,None,1337.1352949999273,None,f,0.16611909959465265,1337.1352949999273,None,0.16611909959465265,,,83 Aloud,001,2022_Nov_17_0957,ProdSingRedoBetween,2021.2.3,59.986887087868794,
,,,,109,0,109,0,,,,,,,,,,,,,,,,,,,,,,1339.5660650990903,None,,,,,,,,,,,,,,,,,column,33,110,aloud,old,blue,1337.8330762991682,None,1337.8330762991682,None,6,1.0923944003880024,1337.8330762991682,None,1.0923944003880024,1338.9501114999875,None,1339.449361499399,None,1339.449361499399,None,r,0.09203219972550869,1339.449361499399,None,0.09203219972550869,,,83 Aloud,001,2022_Nov_17_0957,ProdSingRedoBetween,2021.2.3,59.986887087868794,
,,,,110,0,110,0,,,,,,,,,,,,,,,,,,,,,,1342.5219312999398,None,,,,,,,,,,,,,,,,,vision,71,111,aloud,old,red,1340.0761405993253,None,1340.0761405993253,None,6,1.689167999662459,1340.0761405993253,None,1.689167999662459,1341.7939203996211,None,1342.3103687996045,None,1342.3103687996045,None,r,0.18321970012038946,1342.3103687996045,None,0.18321970012038946,,,83 Aloud,001,2022_Nov_17_0957,ProdSingRedoBetween,2021.2.3,59.986887087868794,
,,,,111,0,111,0,,,,,,,,,,,,,,,,,,,,,,1344.992121499963,None,,,,,,,,,,,,,,,,,level,68,112,aloud,old,red,1343.0365073997527,None,1343.0365073997527,None,1,1.2089048000052571,1343.0365073997527,None,1.2089048000052571,1344.2711959993467,None,1344.7713185995817,None,1344.7713185995817,None,f,0.1943920999765396,1344.7713185995817,None,0.1943920999765396,,,83 Aloud,001,2022_Nov_17_0957,ProdSingRedoBetween,2021.2.3,59.986887087868794,
,,,,112,0,112,0,,,,,,,,,,,,,,,,,,,,,,1348.1746490998194,None,,,,,,,,,,,,,,,,,material,152,113,aloud,new,null,1345.509353599511,None,1345.509353599511,None,1,2.03202569950372,1345.509353599511,None,2.03202569950372,1347.5617570998147,None,1348.0808446994051,None,1348.0808446994051,None,f,0.06857549957931042,1348.0808446994051,None,0.06857549957931042,,,83 Aloud,001,2022_Nov_17_0957,ProdSingRedoBetween,2021.2.3,59.986887087868794,
,,,,113,0,113,0,,,,,,,,,,,,,,,,,,,,,,1351.4444936998188,None,,,,,,,,,,,,,,,,,research,9,114,aloud,old,yellow,1348.680985399522,None,1348.680985399522,None,6,1.6123514007776976,1348.680985399522,None,1.6123514007776976,1350.310223499313,None,1350.8108979994431,None,1350.8108979994431,None,r,0.618516799993813,1350.8108979994431,None,0.618516799993813,,,83 Aloud,001,2022_Nov_17_0957,ProdSingRedoBetween,2021.2.3,59.986887087868794,
,,,,114,0,114,0,,,,,,,,,,,,,,,,,,,,,,1354.6145253991708,None,,,,,,,,,,,,,,,,,safety,24,115,aloud,old,yellow,1351.9539566999301,None,1351.9539566999301,None,6,1.7793557001277804,1351.9539566999301,None,1.7793557001277804,1353.7713558999822,None,1354.2807484995574,None,1354.2807484995574,None,r,0.308716899715364,1354.2807484995574,None,0.308716899715364,,,83 Aloud,001,2022_Nov_17_0957,ProdSingRedoBetween,2021.2.3,59.986887087868794,
,,,,115,0,115,0,,,,,,,,,,,,,,,,,,,,,,1356.466072499752,None,,,,,,,,,,,,,,,,,place,105,116,aloud,new,null,1355.127757099457,None,1355.127757099457,None,1,0.749656799249351,1355.127757099457,None,0.749656799249351,1355.9023071993142,None,1356.4189892997965,None,1356.4189892997965,None,f,0.02651940006762743,1356.4189892997965,None,0.02651940006762743,,,83 Aloud,001,2022_Nov_17_0957,ProdSingRedoBetween,2021.2.3,59.986887087868794,
,,,,116,0,116,0,,,,,,,,,,,,,,,,,,,,,,1359.2547191996127,None,,,,,,,,,,,,,,,,,sight,17,117,aloud,old,yellow,1356.9747864995152,None,1356.9747864995152,None,1,1.0705316001549363,1356.9747864995152,None,1.0705316001549363,1358.072230999358,None,1358.5849298993126,None,1358.5849298993126,None,f,0.6444343999028206,1358.5849298993126,None,0.6444343999028206,,,83 Aloud,001,2022_Nov_17_0957,ProdSingRedoBetween,2021.2.3,59.986887087868794,
,,,,117,0,117,0,,,,,,,,,,,,,,,,,,,,,,1362.9561901995912,None,,,,,,,,,,,,,,,,,charter,1,118,aloud,old,yellow,1359.7694701999426,None,1359.7694701999426,None,1,1.6199532002210617,1359.7694701999426,None,1.6199532002210617,1361.4056927999482,None,1361.9052580995485,None,1361.9052580995485,None,f,1.020146899856627,1361.9052580995485,None,1.020146899856627,,,83 Aloud,001,2022_Nov_17_0957,ProdSingRedoBetween,2021.2.3,59.986887087868794,
,,,,118,0,118,0,,,,,,,,,,,,,,,,,,,,,,1366.3140667993575,None,,,,,,,,,,,,,,,,,expansion,10,119,aloud,old,yellow,1363.4568231999874,None,1363.4568231999874,None,6,2.0045702001079917,1363.4568231999874,None,2.0045702001079917,1365.4962050998583,None,1366.0128945996985,None,1366.0128945996985,None,r,0.28066910058259964,1366.0128945996985,None,0.28066910058259964,,,83 Aloud,001,2022_Nov_17_0957,ProdSingRedoBetween,2021.2.3,59.986887087868794,
,,,,119,0,119,0,,,,,,,,,,,,,,,,,,,,,,1369.2457682993263,None,,,,,,,,,,,,,,,,,appearance,19,120,aloud,old,yellow,1366.8319041999057,None,1366.8319041999057,None,6,1.2134315995499492,1366.8319041999057,None,1.2134315995499492,1368.062022799626,None,1368.5742552997544,None,1368.5742552997544,None,r,0.6471365997567773,1368.5742552997544,None,0.6471365997567773,,,83 Aloud,001,2022_Nov_17_0957,ProdSingRedoBetween,2021.2.3,59.986887087868794,
,,,,120,0,120,0,,,,,,,,,,,,,,,,,,,,,,1372.1987821999937,None,,,,,,,,,,,,,,,,,burden,119,121,aloud,new,null,1369.7478577997535,None,1369.7478577997535,None,6,1.34551540017128,1369.7478577997535,None,1.34551540017128,1371.1142956996337,None,1371.6150164995342,None,1371.6150164995342,None,r,0.5663186004385352,1371.6150164995342,None,0.5663186004385352,,,83 Aloud,001,2022_Nov_17_0957,ProdSingRedoBetween,2021.2.3,59.986887087868794,
,,,,121,0,121,0,,,,,,,,,,,,,,,,,,,,,,1374.5510746994987,None,,,,,,,,,,,,,,,,,people,167,122,aloud,new,null,1372.7070612991229,None,1372.7070612991229,None,1,1.2183234002441168,1372.7070612991229,None,1.2183234002441168,1373.9522864995524,None,1374.4678008994088,None,1374.4678008994088,None,f,0.0655461996793747,1374.4678008994088,None,0.0655461996793747,,,83 Aloud,001,2022_Nov_17_0957,ProdSingRedoBetween,2021.2.3,59.986887087868794,
,,,,122,0,122,0,,,,,,,,,,,,,,,,,,,,,,1376.7049664994702,None,,,,,,,,,,,,,,,,,narrow,12,123,aloud,old,yellow,1375.057603799738,None,1375.057603799738,None,1,0.9877664996311069,1375.057603799738,None,0.9877664996311069,1376.0725205997005,None,1376.587634999305,None,1376.587634999305,None,f,0.08965800050646067,1376.587634999305,None,0.08965800050646067,,,83 Aloud,001,2022_Nov_17_0957,ProdSingRedoBetween,2021.2.3,59.986887087868794,
,,,,123,0,123,0,,,,,,,,,,,,,,,,,,,,,,1378.5382329998538,None,,,,,,,,,,,,,,,,,empty,56,124,aloud,old,blue,1377.2203690996394,None,1377.2203690996394,None,1,0.7609847001731396,1377.2203690996394,None,0.7609847001731396,1378.0052326992154,None,1378.5048024998978,None,1378.5048024998978,None,f,0.0045691002160310745,1378.5048024998978,None,0.0045691002160310745,,,83 Aloud,001,2022_Nov_17_0957,ProdSingRedoBetween,2021.2.3,59.986887087868794,
,,,,124,0,124,0,,,,,,,,,,,,,,,,,,,,,,1381.4434029990807,None,,,,,,,,,,,,,,,,,speech,169,125,aloud,new,null,1379.0386890992522,None,1379.0386890992522,None,1,1.3426874997094274,1379.0386890992522,None,1.3426874997094274,1380.408743799664,None,1380.9314909996465,None,1380.9314909996465,None,f,0.48188390024006367,1380.9314909996465,None,0.48188390024006367,,,83 Aloud,001,2022_Nov_17_0957,ProdSingRedoBetween,2021.2.3,59.986887087868794,
,,,,125,0,125,0,,,,,,,,,,,,,,,,,,,,,,1384.6611091997474,None,,,,,,,,,,,,,,,,,relation,64,126,aloud,old,red,1381.9658707994968,None,1381.9658707994968,None,2,1.5834561996161938,1381.9658707994968,None,1.5834561996161938,1383.5768006993458,None,1384.0773523999378,None,1384.0773523999378,None,f,0.5602186005562544,1384.0773523999378,None,0.5602186005562544,,,83 Aloud,001,2022_Nov_17_0957,ProdSingRedoBetween,2021.2.3,59.986887087868794,
,,,,126,0,126,0,,,,,,,,,,,,,,,,,,,,,,1387.0150385992602,None,,,,,,,,,,,,,,,,,height,28,127,aloud,old,yellow,1385.1636131992564,None,1385.1636131992564,None,2,1.0817323001101613,1385.1636131992564,None,1.0817323001101613,1386.2625621994957,None,1386.7664433997124,None,1386.7664433997124,None,f,0.2231451002880931,1386.7664433997124,None,0.2231451002880931,,,83 Aloud,001,2022_Nov_17_0957,ProdSingRedoBetween,2021.2.3,59.986887087868794,
,,,,127,0,127,0,,,,,,,,,,,,,,,,,,,,,,1389.0835601994768,None,,,,,,,,,,,,,,,,,design,109,128,aloud,new,null,1387.534972999245,None,1387.534972999245,None,1,0.8702788995578885,1387.534972999245,None,0.8702788995578885,1388.4378417991102,None,1388.948612199165,None,1388.948612199165,None,f,0.11264119949191809,1388.948612199165,None,0.11264119949191809,,,83 Aloud,001,2022_Nov_17_0957,ProdSingRedoBetween,2021.2.3,59.986887087868794,
,,,,128,0,128,0,,,,,,,,,,,,,,,,,,,,,,1392.3378061996773,None,,,,,,,,,,,,,,,,,space,159,129,aloud,new,null,1389.5929931998253,None,1389.5929931998253,None,1,1.8203913001343608,1389.5929931998253,None,1.8203913001343608,1391.436105299741,None,1391.9520360995084,None,1391.9520360995084,None,f,0.36543899960815907,1391.9520360995084,None,0.36543899960815907,,,83 Aloud,001,2022_Nov_17_0957,ProdSingRedoBetween,2021.2.3,59.986887087868794,
,,,,129,0,129,0,,,,,,,,,,,,,,,,,,,,,,1395.3048173999414,None,,,,,,,,,,,,,,,,,profession,102,130,aloud,new,null,1392.8527666991577,None,1392.8527666991577,None,1,1.3126386003568769,1392.8527666991577,None,1.3126386003568769,1394.1912320991978,None,1394.7046638997272,None,1394.7046638997272,None,f,0.5806590998545289,1394.7046638997272,None,0.5806590998545289,,,83 Aloud,001,2022_Nov_17_0957,ProdSingRedoBetween,2021.2.3,59.986887087868794,
,,,,130,0,130,0,,,,,,,,,,,,,,,,,,,,,,1397.8409992996603,None,,,,,,,,,,,,,,,,,candidate,93,131,aloud,new,null,1395.8077522991225,None,1395.8077522991225,None,6,1.3655554000288248,1395.8077522991225,None,1.3655554000288248,1397.1917565995827,None,1397.6910906992853,None,1397.6910906992853,None,r,0.13023540005087852,1397.6910906992853,None,0.13023540005087852,,,83 Aloud,001,2022_Nov_17_0957,ProdSingRedoBetween,2021.2.3,59.986887087868794,
,,,,131,0,131,0,,,,,,,,,,,,,,,,,,,,,,1400.4102815994993,None,,,,,,,,,,,,,,,,,question,140,132,aloud,new,null,1398.3495288994163,None,1398.3495288994163,None,1,1.1838890993967652,1398.3495288994163,None,1.1838890993967652,1399.572890999727,None,1400.083598899655,None,1400.083598899655,None,f,0.29761110059916973,1400.083598899655,None,0.29761110059916973,,,83 Aloud,001,2022_Nov_17_0957,ProdSingRedoBetween,2021.2.3,59.986887087868794,
,,,,132,0,132,0,,,,,,,,,,,,,,,,,,,,,,1403.5968131991103,None,,,,,,,,,,,,,,,,,express,67,133,aloud,old,red,1400.910623099655,None,1400.910623099655,None,1,1.3666853997856379,1400.910623099655,None,1.3666853997856379,1402.296905999072,None,1402.7960047991946,None,1402.7960047991946,None,f,0.7694923002272844,1402.7960047991946,None,0.7694923002272844,,,83 Aloud,001,2022_Nov_17_0957,ProdSingRedoBetween,2021.2.3,59.986887087868794,
,,,,133,0,133,0,,,,,,,,,,,,,,,,,,,,,,1406.4827410997823,None,,,,,,,,,,,,,,,,,touch,31,134,aloud,old,blue,1404.0996440993622,None,1404.0996440993622,None,1,1.7296866001561284,1404.0996440993622,None,1.7296866001561284,1405.8516044998541,None,1406.3662529997528,None,1406.3662529997528,None,f,0.09501700010150671,1406.3662529997528,None,0.09501700010150671,,,83 Aloud,001,2022_Nov_17_0957,ProdSingRedoBetween,2021.2.3,59.986887087868794,
,,,,134,0,134,0,,,,,,,,,,,,,,,,,,,,,,1408.9186540991068,None,,,,,,,,,,,,,,,,,bucket,51,135,aloud,old,blue,1406.9833060996607,None,1406.9833060996607,None,1,0.9500458994880319,1406.9833060996607,None,0.9500458994880319,1407.9530797991902,None,1408.4683703994378,None,1408.4683703994378,None,f,0.42516239918768406,1408.4683703994378,None,0.42516239918768406,,,83 Aloud,001,2022_Nov_17_0957,ProdSingRedoBetween,2021.2.3,59.986887087868794,
,,,,135,0,135,0,,,,,,,,,,,,,,,,,,,,,,1411.1717482991517,None,,,,,,,,,,,,,,,,,military,174,136,aloud,new,null,1409.4196262992918,None,1409.4196262992918,None,1,1.0338781997561455,1409.4196262992918,None,1.0338781997561455,1410.4701765999198,None,1410.9706976991147,None,1410.9706976991147,None,f,0.17075569927692413,1410.9706976991147,None,0.17075569927692413,,,83 Aloud,001,2022_Nov_17_0957,ProdSingRedoBetween,2021.2.3,59.986887087868794,
,,,,136,0,136,0,,,,,,,,,,,,,,,,,,,,,,1413.5065430998802,None,,,,,,,,,,,,,,,,,distance,79,137,aloud,old,red,1411.6890750993043,None,1411.6890750993043,None,6,0.9803847996518016,1411.6890750993043,None,0.9803847996518016,1412.6901184991002,None,1413.1898702997714,None,1413.1898702997714,None,r,0.28750129975378513,1413.1898702997714,None,0.28750129975378513,,,83 Aloud,001,2022_Nov_17_0957,ProdSingRedoBetween,2021.2.3,59.986887087868794,
,,,,137,0,137,0,,,,,,,,,,,,,,,,,,,,,,1415.8088695993647,None,,,,,,,,,,,,,,,,,society,52,138,aloud,old,blue,1414.0071773994714,None,1414.0071773994714,None,6,1.1020909994840622,1414.0071773994714,None,1.1020909994840622,1415.1281153997406,None,1415.6429184991866,None,1415.6429184991866,None,r,0.13832630030810833,1415.6429184991866,None,0.13832630030810833,,,83 Aloud,001,2022_Nov_17_0957,ProdSingRedoBetween,2021.2.3,59.986887087868794,
,,,,138,0,138,0,,,,,,,,,,,,,,,,,,,,,,1418.8283427990973,None,,,,,,,,,,,,,,,,,hunger,4,139,aloud,old,yellow,1416.3168663997203,None,1416.3168663997203,None,6,1.8645988004282117,1416.3168663997203,None,1.8645988004282117,1418.2164385998622,None,1418.7283557998016,None,1418.7283557998016,None,r,0.07686410006135702,1418.7283557998016,None,0.07686410006135702,,,83 Aloud,001,2022_Nov_17_0957,ProdSingRedoBetween,2021.2.3,59.986887087868794,
,,,,139,0,139,0,,,,,,,,,,,,,,,,,,,,,,1421.4358466994017,None,,,,,,,,,,,,,,,,,nation,162,140,aloud,new,null,1419.329666099511,None,1419.329666099511,None,6,0.9715228993445635,1419.329666099511,None,0.9715228993445635,1420.3299683993682,None,1420.8318136995658,None,1420.8318136995658,None,r,0.573407200165093,1420.8318136995658,None,0.573407200165093,,,83 Aloud,001,2022_Nov_17_0957,ProdSingRedoBetween,2021.2.3,59.986887087868794,
,,,,140,0,140,0,,,,,,,,,,,,,,,,,,,,,,1424.0862840991467,None,,,,,,,,,,,,,,,,,position,117,141,aloud,new,null,1421.9489431995898,None,1421.9489431995898,None,6,1.128413900732994,1421.9489431995898,None,1.128413900732994,1423.108894799836,None,1423.6165253994986,None,1423.6165253994986,None,r,0.43671240005642176,1423.6165253994986,None,0.43671240005642176,,,83 Aloud,001,2022_Nov_17_0957,ProdSingRedoBetween,2021.2.3,59.986887087868794,
,,,,141,0,141,0,,,,,,,,,,,,,,,,,,,,,,1427.1731095993891,None,,,,,,,,,,,,,,,,,treatment,6,142,aloud,old,yellow,1424.6120888991281,None,1424.6120888991281,None,1,1.1853005001321435,1424.6120888991281,None,1.1853005001321435,1425.818737999536,None,1426.319518899545,None,1426.319518899545,None,f,0.8298503998667002,1426.319518899545,None,0.8298503998667002,,,83 Aloud,001,2022_Nov_17_0957,ProdSingRedoBetween,2021.2.3,59.986887087868794,
,,,,142,0,142,0,,,,,,,,,,,,,,,,,,,,,,1430.1899868994951,None,,,,,,,,,,,,,,,,,provision,40,143,aloud,old,blue,1427.699300499633,None,1427.699300499633,None,6,1.5298167001456022,1427.699300499633,None,1.5298167001456022,1429.259682099335,None,1429.7932120999321,None,1429.7932120999321,None,r,0.3719678996130824,1429.7932120999321,None,0.3719678996130824,,,83 Aloud,001,2022_Nov_17_0957,ProdSingRedoBetween,2021.2.3,59.986887087868794,
,,,,143,0,143,0,,,,,,,,,,,,,,,,,,,,,,1433.6766818994656,None,,,,,,,,,,,,,,,,,testimony,154,144,aloud,new,null,1430.6905048992485,None,1430.6905048992485,None,1,2.05902530066669,1430.6905048992485,None,2.05902530066669,1432.7767229992896,None,1433.276367499493,None,1433.276367499493,None,f,0.369017600081861,1433.276367499493,None,0.369017600081861,,,83 Aloud,001,2022_Nov_17_0957,ProdSingRedoBetween,2021.2.3,59.986887087868794,
,,,,144,0,144,0,,,,,,,,,,,,,,,,,,,,,,1436.4625626998022,None,,,,,,,,,,,,,,,,,theme,8,145,aloud,old,yellow,1434.183440499939,None,1434.183440499939,None,3,1.469859099946916,1434.183440499939,None,1.469859099946916,1435.682675499469,None,1436.1959846997634,None,1436.1959846997634,None,f,0.24133940041065216,1436.1959846997634,None,0.24133940041065216,,,83 Aloud,001,2022_Nov_17_0957,ProdSingRedoBetween,2021.2.3,59.986887087868794,
,,,,145,0,145,0,,,,,,,,,,,,,,,,,,,,,,1439.6529572997242,None,,,,,,,,,,,,,,,,,incident,151,146,aloud,new,null,1436.9696717998013,None,1436.9696717998013,None,1,1.5475008003413677,1436.9696717998013,None,1.5475008003413677,1438.5482014995068,None,1439.0525162993,None,1439.0525162993,None,f,0.5769838001579046,1439.0525162993,None,0.5769838001579046,,,83 Aloud,001,2022_Nov_17_0957,ProdSingRedoBetween,2021.2.3,59.986887087868794,
,,,,146,0,146,0,,,,,,,,,,,,,,,,,,,,,,1442.3038686998188,None,,,,,,,,,,,,,,,,,watch,133,147,aloud,new,null,1440.1673620995134,None,1440.1673620995134,None,1,1.0939480001106858,1440.1673620995134,None,1.0939480001106858,1441.2855910994112,None,1441.7920216992497,None,1441.7920216992497,None,f,0.48528360016644,1441.7920216992497,None,0.48528360016644,,,83 Aloud,001,2022_Nov_17_0957,ProdSingRedoBetween,2021.2.3,59.986887087868794,
,,,,147,0,147,0,,,,,,,,,,,,,,,,,,,,,,1446.055665699765,None,,,,,,,,,,,,,,,,,individual,172,148,aloud,new,null,1442.819312499836,None,1442.819312499836,None,1,1.90603799931705,1442.819312499836,None,1.90603799931705,1444.757174199447,None,1445.2784475991502,None,1445.2784475991502,None,f,0.7587574003264308,1445.2784475991502,None,0.7587574003264308,,,83 Aloud,001,2022_Nov_17_0957,ProdSingRedoBetween,2021.2.3,59.986887087868794,
,,,,148,0,148,0,,,,,,,,,,,,,,,,,,,,,,1450.209849499166,None,,,,,,,,,,,,,,,,,dozen,41,149,aloud,old,blue,1446.5632667997852,None,1446.5632667997852,None,1,2.225906800478697,1446.5632667997852,None,2.225906800478697,1448.8123511997983,None,1449.3257969999686,None,1449.3257969999686,None,f,0.8554571000859141,1449.3257969999686,None,0.8554571000859141,,,83 Aloud,001,2022_Nov_17_0957,ProdSingRedoBetween,2021.2.3,59.986887087868794,
,,,,149,0,149,0,,,,,,,,,,,,,,,,,,,,,,1452.7456725994125,None,,,,,,,,,,,,,,,,,crime,120,150,aloud,new,null,1450.7161561995745,None,1450.7161561995745,None,1,0.9211853006854653,1450.7161561995745,None,0.9211853006854653,1451.6613069996238,None,1452.1619980996475,None,1452.1619980996475,None,f,0.5631814002990723,1452.1619980996475,None,0.5631814002990723,,,83 Aloud,001,2022_Nov_17_0957,ProdSingRedoBetween,2021.2.3,59.986887087868794,
,,,,150,0,150,0,,,,,,,,,,,,,,,,,,,,,,1455.731984199956,None,,,,,,,,,,,,,,,,,education,38,151,aloud,old,blue,1453.2462554993108,None,1453.2462554993108,None,6,1.1431367006152868,1453.2462554993108,None,1.1431367006152868,1454.4151082998142,None,1454.9146113991737,None,1454.9146113991737,None,r,0.7946333000436425,1454.9146113991737,None,0.7946333000436425,,,83 Aloud,001,2022_Nov_17_0957,ProdSingRedoBetween,2021.2.3,59.986887087868794,
,,,,151,0,151,0,,,,,,,,,,,,,,,,,,,,,,1459.4357375996187,None,,,,,,,,,,,,,,,,,power,86,152,aloud,old,red,1456.2401815997437,None,1456.2401815997437,None,3,2.1891951002180576,1456.2401815997437,None,2.1891951002180576,1458.4518229998648,None,1458.9627501992509,None,1458.9627501992509,None,f,0.45051739923655987,1458.9627501992509,None,0.45051739923655987,,,83 Aloud,001,2022_Nov_17_0957,ProdSingRedoBetween,2021.2.3,59.986887087868794,
,,,,152,0,152,0,,,,,,,,,,,,,,,,,,,,,,1463.97330339998,None,,,,,,,,,,,,,,,,,raise,108,153,aloud,new,null,1459.942383699119,None,1459.942383699119,None,2,2.5348453000187874,1459.942383699119,None,2.5348453000187874,1462.5073346998543,None,1463.0225307997316,None,1463.0225307997316,None,f,0.9265871001407504,1463.0225307997316,None,0.9265871001407504,,,83 Aloud,001,2022_Nov_17_0957,ProdSingRedoBetween,2021.2.3,59.986887087868794,
,,,,153,0,153,0,,,,,,,,,,,,,,,,,,,,,,1466.5593599993736,None,,,,,,,,,,,,,,,,,fellow,39,154,aloud,old,blue,1464.4742552991956,None,1464.4742552991956,None,1,1.1068645995110273,1464.4742552991956,None,1.1068645995110273,1465.6157922996208,None,1466.1258986992761,None,1466.1258986992761,None,f,0.41525989957153797,1466.1258986992761,None,0.41525989957153797,,,83 Aloud,001,2022_Nov_17_0957,ProdSingRedoBetween,2021.2.3,59.986887087868794,
,,,,154,0,154,0,,,,,,,,,,,,,,,,,,,,,,1468.8669011993334,None,,,,,,,,,,,,,,,,,brief,147,155,aloud,new,null,1467.0791156999767,None,1467.0791156999767,None,1,0.9741284996271133,1467.0791156999767,None,0.9741284996271133,1468.0792395994067,None,1468.594803799875,None,1468.594803799875,None,f,0.24247500021010637,1468.594803799875,None,0.24247500021010637,,,83 Aloud,001,2022_Nov_17_0957,ProdSingRedoBetween,2021.2.3,59.986887087868794,
,,,,155,0,155,0,,,,,,,,,,,,,,,,,,,,,,1471.6811023997143,None,,,,,,,,,,,,,,,,,detective,26,156,aloud,old,yellow,1469.3789190994576,None,1469.3789190994576,None,3,1.4662039997056127,1469.3789190994576,None,1.4662039997056127,1470.866678899154,None,1471.3837300995365,None,1471.3837300995365,None,f,0.2775047002360225,1471.3837300995365,None,0.2775047002360225,,,83 Aloud,001,2022_Nov_17_0957,ProdSingRedoBetween,2021.2.3,59.986887087868794,
,,,,156,0,156,0,,,,,,,,,,,,,,,,,,,,,,1474.1667576991022,None,,,,,,,,,,,,,,,,,science,153,157,aloud,new,null,1472.1821041991934,None,1472.1821041991934,None,1,1.1751353004947305,1472.1821041991934,None,1.1751353004947305,1473.3852522997186,None,1473.9011940993369,None,1473.9011940993369,None,f,0.24797540064901114,1473.9011940993369,None,0.24797540064901114,,,83 Aloud,001,2022_Nov_17_0957,ProdSingRedoBetween,2021.2.3,59.986887087868794,
,,,,157,0,157,0,,,,,,,,,,,,,,,,,,,,,,1476.7863799994811,None,,,,,,,,,,,,,,,,,chief,90,158,aloud,new,null,1474.6676684999838,None,1474.6676684999838,None,1,1.2094477992504835,1474.6676684999838,None,1.2094477992504835,1475.9088412998244,None,1476.4191384995356,None,1476.4191384995356,None,f,0.3460817001760006,1476.4191384995356,None,0.3460817001760006,,,83 Aloud,001,2022_Nov_17_0957,ProdSingRedoBetween,2021.2.3,59.986887087868794,
,,,,158,0,158,0,,,,,,,,,,,,,,,,,,,,,,1479.1051380997524,None,,,,,,,,,,,,,,,,,danger,156,159,aloud,new,null,1477.2868800992146,None,1477.2868800992146,None,1,0.9422196997329593,1477.2868800992146,None,0.9422196997329593,1478.262460399419,None,1478.771383699961,None,1478.771383699961,None,f,0.31378789991140366,1478.771383699961,None,0.31378789991140366,,,83 Aloud,001,2022_Nov_17_0957,ProdSingRedoBetween,2021.2.3,59.986887087868794,
,,,,159,0,159,0,,,,,,,,,,,,,,,,,,,,,,1481.7914430992678,None,,,,,,,,,,,,,,,,,thick,74,160,aloud,old,red,1479.6083096992224,None,1479.6083096992224,None,6,1.3728328999131918,1479.6083096992224,None,1.3728328999131918,1481.0076778996736,None,1481.5132186999545,None,1481.5132186999545,None,r,0.2519557001069188,1481.5132186999545,None,0.2519557001069188,,,83 Aloud,001,2022_Nov_17_0957,ProdSingRedoBetween,2021.2.3,59.986887087868794,
,,,,160,0,160,0,,,,,,,,,,,,,,,,,,,,,,1485.0446742996573,None,,,,,,,,,,,,,,,,,leader,128,161,aloud,new,null,1482.2972711995244,None,1482.2972711995244,None,1,1.9078227002173662,1482.2972711995244,None,1.9078227002173662,1484.2272579995915,None,1484.7300063995644,None,1484.7300063995644,None,f,0.29915460012853146,1484.7300063995644,None,0.29915460012853146,,,83 Aloud,001,2022_Nov_17_0957,ProdSingRedoBetween,2021.2.3,59.986887087868794,
,,,,161,0,161,0,,,,,,,,,,,,,,,,,,,,,,1487.514931799844,None,,,,,,,,,,,,,,,,,school,130,162,aloud,new,null,1485.5494530992582,None,1485.5494530992582,None,1,1.1837145993486047,1485.5494530992582,None,1.1837145993486047,1486.7648270996287,None,1487.2802153993398,None,1487.2802153993398,None,f,0.21324590034782887,1487.2802153993398,None,0.21324590034782887,,,83 Aloud,001,2022_Nov_17_0957,ProdSingRedoBetween,2021.2.3,59.986887087868794,
,,,,162,0,162,0,,,,,,,,,,,,,,,,,,,,,,1489.8327040998265,None,,,,,,,,,,,,,,,,,spoke,0,163,aloud,old,yellow,1488.0276660993695,None,1488.0276660993695,None,1,0.9696788005530834,1488.0276660993695,None,0.9696788005530834,1489.0159633997828,None,1489.5157460998744,None,1489.5157460998744,None,f,0.29743359982967377,1489.5157460998744,None,0.29743359982967377,,,83 Aloud,001,2022_Nov_17_0957,ProdSingRedoBetween,2021.2.3,59.986887087868794,
,,,,163,0,163,0,,,,,,,,,,,,,,,,,,,,,,1492.2196578998119,None,,,,,,,,,,,,,,,,,shock,116,164,aloud,new,null,1490.3400149997324,None,1490.3400149997324,None,1,0.9130271002650261,1490.3400149997324,None,0.9130271002650261,1491.287346799858,None,1491.8016037996858,None,1491.8016037996858,None,f,0.39561509992927313,1491.8016037996858,None,0.39561509992927313,,,83 Aloud,001,2022_Nov_17_0957,ProdSingRedoBetween,2021.2.3,59.986887087868794,
,,,,164,0,164,0,,,,,,,,,,,,,,,,,,,,,,1494.9044411992654,None,,,,,,,,,,,,,,,,,weather,91,165,aloud,new,null,1492.7224239995703,None,1492.7224239995703,None,2,1.154695300385356,1492.7224239995703,None,1.154695300385356,1493.9048523996025,None,1494.4137770999223,None,1494.4137770999223,None,f,0.4714045999571681,1494.4137770999223,None,0.4714045999571681,,,83 Aloud,001,2022_Nov_17_0957,ProdSingRedoBetween,2021.2.3,59.986887087868794,
,,,,165,0,165,0,,,,,,,,,,,,,,,,,,,,,,1498.3412772994488,None,,,,,,,,,,,,,,,,,sunset,157,166,aloud,new,null,1495.4132538996637,None,1495.4132538996637,None,1,1.695945399813354,1495.4132538996637,None,1.695945399813354,1497.14112989977,None,1497.640406199731,None,1497.640406199731,None,f,0.6767522003501654,1497.640406199731,None,0.6767522003501654,,,83 Aloud,001,2022_Nov_17_0957,ProdSingRedoBetween,2021.2.3,59.986887087868794,
,,,,166,0,166,0,,,,,,,,,,,,,,,,,,,,,,1503.2294120993465,None,,,,,,,,,,,,,,,,,benefit,125,167,aloud,new,null,1498.8458198998123,None,1498.8458198998123,None,1,2.919273699633777,1498.8458198998123,None,2.919273699633777,1501.7950113993138,None,1502.2951016994193,None,1502.2951016994193,None,f,0.9179830001667142,1502.2951016994193,None,0.9179830001667142,,,83 Aloud,001,2022_Nov_17_0957,ProdSingRedoBetween,2021.2.3,59.986887087868794,
,,,,167,0,167,0,,,,,,,,,,,,,,,,,,,,,,1506.455423599109,None,,,,,,,,,,,,,,,,,produce,73,168,aloud,old,red,1503.7297543995082,None,1503.7297543995082,None,1,1.5073705995455384,1503.7297543995082,None,1.5073705995455384,1505.2654757993296,None,1505.7690850999206,None,1505.7690850999206,None,f,0.6679525999352336,1505.7690850999206,None,0.6679525999352336,,,83 Aloud,001,2022_Nov_17_0957,ProdSingRedoBetween,2021.2.3,59.986887087868794,
,,,,168,0,168,0,,,,,,,,,,,,,,,,,,,,,,1509.106026799418,None,,,,,,,,,,,,,,,,,second,110,169,aloud,new,null,1506.979783299379,None,1506.979783299379,None,1,1.1295415004715323,1506.979783299379,None,1.1295415004715323,1508.1559961996973,None,1508.6677544992417,None,1508.6677544992417,None,f,0.4174744002521038,1508.6677544992417,None,0.4174744002521038,,,83 Aloud,001,2022_Nov_17_0957,ProdSingRedoBetween,2021.2.3,59.986887087868794,
,,,,169,0,169,0,,,,,,,,,,,,,,,,,,,,,,1511.9055056991056,None,,,,,,,,,,,,,,,,,cover,62,170,aloud,old,red,1509.6215765997767,None,1509.6215765997767,None,1,1.1035780003294349,1509.6215765997767,None,1.1035780003294349,1510.7542574992403,None,1511.2605840992182,None,1511.2605840992182,None,f,0.6166349006816745,1511.2605840992182,None,0.6166349006816745,,,83 Aloud,001,2022_Nov_17_0957,ProdSingRedoBetween,2021.2.3,59.986887087868794,
,,,,170,0,170,0,,,,,,,,,,,,,,,,,,,,,,1514.9263621997088,None,,,,,,,,,,,,,,,,,agreement,114,171,aloud,new,null,1512.4111224999651,None,1512.4111224999651,None,4,1.5700380001217127,1512.4111224999651,None,1.5700380001217127,1514.007919899188,None,1514.5083708995953,None,1514.5083708995953,None,f,0.4008100004866719,1514.5083708995953,None,0.4008100004866719,,,83 Aloud,001,2022_Nov_17_0957,ProdSingRedoBetween,2021.2.3,59.986887087868794,
,,,,171,0,171,0,,,,,,,,,,,,,,,,,,,,,,1517.6789189996198,None,,,,,,,,,,,,,,,,,account,158,172,aloud,new,null,1515.4540510997176,None,1515.4540510997176,None,2,1.3910938994958997,1515.4540510997176,None,1.3910938994958997,1516.878094399348,None,1517.3934484999627,None,1517.3934484999627,None,f,0.267646299675107,1517.3934484999627,None,0.267646299675107,,,83 Aloud,001,2022_Nov_17_0957,ProdSingRedoBetween,2021.2.3,59.986887087868794,
,,,,172,0,172,0,,,,,,,,,,,,,,,,,,,,,,1520.7801862992346,None,,,,,,,,,,,,,,,,,bright,11,173,aloud,old,yellow,1518.194407899864,None,1518.194407899864,None,5,1.618685799650848,1518.194407899864,None,1.618685799650848,1519.8305999999866,None,1520.329873399809,None,1520.329873399809,None,f,0.41940459981560707,1520.329873399809,None,0.41940459981560707,,,83 Aloud,001,2022_Nov_17_0957,ProdSingRedoBetween,2021.2.3,59.986887087868794,
,,,,173,0,173,0,,,,,,,,,,,,,,,,,,,,,,1523.416467799805,None,,,,,,,,,,,,,,,,,production,173,174,aloud,new,null,1521.2835606997833,None,1521.2835606997833,None,6,1.057608200237155,1521.2835606997833,None,1.057608200237155,1522.3696478996426,None,1522.882714599371,None,1522.882714599371,None,r,0.5143210999667645,1522.882714599371,None,0.5143210999667645,,,83 Aloud,001,2022_Nov_17_0957,ProdSingRedoBetween,2021.2.3,59.986887087868794,
,,,,174,0,174,0,,,,,,,,,,,,,,,,,,,,,,1525.903491099365,None,,,,,,,,,,,,,,,,,cousin,2,175,aloud,old,yellow,1523.924204199575,None,1523.924204199575,None,6,1.1129260994493961,1523.924204199575,None,1.1129260994493961,1525.0718045998365,None,1525.58649659995,None,1525.58649659995,None,r,0.2986688008531928,1525.58649659995,None,0.2986688008531928,,,83 Aloud,001,2022_Nov_17_0957,ProdSingRedoBetween,2021.2.3,59.986887087868794,
