StudyLoop.thisRepN,StudyLoop.thisTrialN,StudyLoop.thisN,StudyLoop.thisIndex,TestLoop.thisRepN,TestLoop.thisTrialN,TestLoop.thisN,TestLoop.thisIndex,textCondition.started,textCondition.stopped,keyCondition.keys,keyCondition.rt,keyCondition.started,keyCondition.stopped,Condition,textWelcome.started,textWelcome.stopped,keyWelcome.keys,keyWelcome.rt,keyWelcome.started,keyWelcome.stopped,textAloud.started,textAloud.stopped,textSilent.started,textSilent.stopped,textSing.started,textSing.stopped,conditional_text.started,conditional_text.stopped,textBlank500.started,textBlank500.stopped,study_word,study_num,study_order,study_type,word_color,textStudy.started,textStudy.stopped,keyStudy.keys,keyStudy.started,keyStudy.stopped,textTestInstructions.started,textTestInstructions.stopped,key_resp_3.keys,key_resp_3.rt,key_resp_3.started,key_resp_3.stopped,test_word,test_num,test_order,test_condition,old_new_test,test_word_original_color,textConf.started,textConf.stopped,textConfScale.started,textConfScale.stopped,keyConf.keys,keyConf.rt,keyConf.started,keyConf.stopped,confidence response time,textTestBlank.started,textTestBlank.stopped,textRKN.started,textRKN.stopped,textRKNScale.started,textRKNScale.stopped,keyRKN.keys,keyRKN.rt,keyRKN.started,keyRKN.stopped,rkn response time,textEnd.started,textEnd.stopped,participant,session,date,expName,psychopyVersion,frameRate,
,,,,,,,,23.54191350005567,None,c,10.040911599993706,23.54191350005567,None,,,,,,,,,,,,,,,,,,,,,,,,,,,,,,,,,,,,,,,,,,,,,,,,,,,,,,,,,,,,,,84 Sing,001,2022_Nov_17_1025,ProdSingRedoBetween,2021.2.3,59.94021541117182,
,,,,,,,,,,,,,,SingTest,33.63199819996953,None,space,341.526387299411,33.63199819996953,None,,,,,,,,,,,,,,,,,,,,,,,,,,,,,,,,,,,,,,,,,,,,,,,,,,,,,,,84 Sing,001,2022_Nov_17_1025,ProdSingRedoBetween,2021.2.3,59.94021541117182,
0,0,0,0,,,,,,,,,,,,,,,,,,33.63199819996953,None,33.63199819996953,None,33.63199819996953,None,33.63199819996953,None,377.69646860007197,None,group,84,1,sing,red,375.68128110002726,None,None,375.68128110002726,None,,,,,,,,,,,,,,,,,,,,,,,,,,,,,,,,,,,84 Sing,001,2022_Nov_17_1025,ProdSingRedoBetween,2021.2.3,59.94021541117182,
1,0,1,0,,,,,,,,,,,,,,,,,,,,,,,,,,380.19878729991615,None,defeat,71,2,sing,red,378.19696169998497,None,None,378.19696169998497,None,,,,,,,,,,,,,,,,,,,,,,,,,,,,,,,,,,,84 Sing,001,2022_Nov_17_1025,ProdSingRedoBetween,2021.2.3,59.94021541117182,
2,0,2,0,,,,,,,,,,,,,,,,,,,,,,,,,,382.7012211000547,None,rapid,69,3,sing,red,380.6995000001043,None,None,380.6995000001043,None,,,,,,,,,,,,,,,,,,,,,,,,,,,,,,,,,,,84 Sing,001,2022_Nov_17_1025,ProdSingRedoBetween,2021.2.3,59.94021541117182,
3,0,3,0,,,,,,,,,,,,,,,,,,,,,,,,,,385.2206463003531,None,silence,82,4,sing,red,383.2066563004628,None,None,383.2066563004628,None,,,,,,,,,,,,,,,,,,,,,,,,,,,,,,,,,,,84 Sing,001,2022_Nov_17_1025,ProdSingRedoBetween,2021.2.3,59.94021541117182,
4,0,4,0,,,,,,,,,,,,,,,,,,,,,,,,,,387.723259200342,None,session,15,5,sing,yellow,385.7225644001737,None,None,385.7225644001737,None,,,,,,,,,,,,,,,,,,,,,,,,,,,,,,,,,,,84 Sing,001,2022_Nov_17_1025,ProdSingRedoBetween,2021.2.3,59.94021541117182,
5,0,5,0,,,,,,,,,,,,,,,,,,,,,,,,,,390.24231010023504,None,discussion,65,6,sing,red,388.23555530048907,None,None,388.23555530048907,None,,,,,,,,,,,,,,,,,,,,,,,,,,,,,,,,,,,84 Sing,001,2022_Nov_17_1025,ProdSingRedoBetween,2021.2.3,59.94021541117182,
6,0,6,0,,,,,,,,,,,,,,,,,,,,,,,,,,392.7451769998297,None,front,0,7,sing,yellow,390.74289970006794,None,None,390.74289970006794,None,,,,,,,,,,,,,,,,,,,,,,,,,,,,,,,,,,,84 Sing,001,2022_Nov_17_1025,ProdSingRedoBetween,2021.2.3,59.94021541117182,
7,0,7,0,,,,,,,,,,,,,,,,,,,,,,,,,,395.2473226003349,None,country,66,8,sing,red,393.24539070017636,None,None,393.24539070017636,None,,,,,,,,,,,,,,,,,,,,,,,,,,,,,,,,,,,84 Sing,001,2022_Nov_17_1025,ProdSingRedoBetween,2021.2.3,59.94021541117182,
8,0,8,0,,,,,,,,,,,,,,,,,,,,,,,,,,397.76652600057423,None,sight,20,9,sing,yellow,395.7586114006117,None,None,395.7586114006117,None,,,,,,,,,,,,,,,,,,,,,,,,,,,,,,,,,,,84 Sing,001,2022_Nov_17_1025,ProdSingRedoBetween,2021.2.3,59.94021541117182,
9,0,9,0,,,,,,,,,,,,,,,,,,,,,,,,,,400.2689992003143,None,search,17,10,sing,yellow,398.2669179998338,None,None,398.2669179998338,None,,,,,,,,,,,,,,,,,,,,,,,,,,,,,,,,,,,84 Sing,001,2022_Nov_17_1025,ProdSingRedoBetween,2021.2.3,59.94021541117182,
10,0,10,0,,,,,,,,,,,,,,,,,,,,,,,,,,402.77112150005996,None,comfort,87,11,sing,red,400.76989500038326,None,None,400.76989500038326,None,,,,,,,,,,,,,,,,,,,,,,,,,,,,,,,,,,,84 Sing,001,2022_Nov_17_1025,ProdSingRedoBetween,2021.2.3,59.94021541117182,
11,0,11,0,,,,,,,,,,,,,,,,,,,,,,,,,,405.2909054001793,None,taste,42,12,sing,blue,403.27625240013003,None,None,403.27625240013003,None,,,,,,,,,,,,,,,,,,,,,,,,,,,,,,,,,,,84 Sing,001,2022_Nov_17_1025,ProdSingRedoBetween,2021.2.3,59.94021541117182,
12,0,12,0,,,,,,,,,,,,,,,,,,,,,,,,,,407.7931989999488,None,native,41,13,sing,blue,405.79280980024487,None,None,405.79280980024487,None,,,,,,,,,,,,,,,,,,,,,,,,,,,,,,,,,,,84 Sing,001,2022_Nov_17_1025,ProdSingRedoBetween,2021.2.3,59.94021541117182,
13,0,13,0,,,,,,,,,,,,,,,,,,,,,,,,,,410.2956055002287,None,block,34,14,sing,blue,408.29574400000274,None,None,408.29574400000274,None,,,,,,,,,,,,,,,,,,,,,,,,,,,,,,,,,,,84 Sing,001,2022_Nov_17_1025,ProdSingRedoBetween,2021.2.3,59.94021541117182,
14,0,14,0,,,,,,,,,,,,,,,,,,,,,,,,,,412.7979446006939,None,universal,35,15,sing,blue,410.79675449989736,None,None,410.79675449989736,None,,,,,,,,,,,,,,,,,,,,,,,,,,,,,,,,,,,84 Sing,001,2022_Nov_17_1025,ProdSingRedoBetween,2021.2.3,59.94021541117182,
15,0,15,0,,,,,,,,,,,,,,,,,,,,,,,,,,415.31735830008984,None,trail,29,16,sing,blue,413.3034100001678,None,None,413.3034100001678,None,,,,,,,,,,,,,,,,,,,,,,,,,,,,,,,,,,,84 Sing,001,2022_Nov_17_1025,ProdSingRedoBetween,2021.2.3,59.94021541117182,
16,0,16,0,,,,,,,,,,,,,,,,,,,,,,,,,,417.8198583004996,None,display,72,17,sing,red,415.81921330001205,None,None,415.81921330001205,None,,,,,,,,,,,,,,,,,,,,,,,,,,,,,,,,,,,84 Sing,001,2022_Nov_17_1025,ProdSingRedoBetween,2021.2.3,59.94021541117182,
17,0,17,0,,,,,,,,,,,,,,,,,,,,,,,,,,420.3222347004339,None,beauty,12,18,sing,yellow,418.32280270010233,None,None,418.32280270010233,None,,,,,,,,,,,,,,,,,,,,,,,,,,,,,,,,,,,84 Sing,001,2022_Nov_17_1025,ProdSingRedoBetween,2021.2.3,59.94021541117182,
18,0,18,0,,,,,,,,,,,,,,,,,,,,,,,,,,422.8416502000764,None,guest,54,19,sing,blue,420.8260243004188,None,None,420.8260243004188,None,,,,,,,,,,,,,,,,,,,,,,,,,,,,,,,,,,,84 Sing,001,2022_Nov_17_1025,ProdSingRedoBetween,2021.2.3,59.94021541117182,
19,0,19,0,,,,,,,,,,,,,,,,,,,,,,,,,,425.34396000020206,None,count,40,20,sing,blue,423.34168250020593,None,None,423.34168250020593,None,,,,,,,,,,,,,,,,,,,,,,,,,,,,,,,,,,,84 Sing,001,2022_Nov_17_1025,ProdSingRedoBetween,2021.2.3,59.94021541117182,
20,0,20,0,,,,,,,,,,,,,,,,,,,,,,,,,,427.8631771001965,None,agreement,68,21,sing,red,425.84882610011846,None,None,425.84882610011846,None,,,,,,,,,,,,,,,,,,,,,,,,,,,,,,,,,,,84 Sing,001,2022_Nov_17_1025,ProdSingRedoBetween,2021.2.3,59.94021541117182,
21,0,21,0,,,,,,,,,,,,,,,,,,,,,,,,,,430.36560320015997,None,level,60,22,sing,red,428.36435920000076,None,None,428.36435920000076,None,,,,,,,,,,,,,,,,,,,,,,,,,,,,,,,,,,,84 Sing,001,2022_Nov_17_1025,ProdSingRedoBetween,2021.2.3,59.94021541117182,
22,0,22,0,,,,,,,,,,,,,,,,,,,,,,,,,,432.8679697001353,None,expansion,56,23,sing,blue,430.86612510029227,None,None,430.86612510029227,None,,,,,,,,,,,,,,,,,,,,,,,,,,,,,,,,,,,84 Sing,001,2022_Nov_17_1025,ProdSingRedoBetween,2021.2.3,59.94021541117182,
23,0,23,0,,,,,,,,,,,,,,,,,,,,,,,,,,435.3706457000226,None,individual,33,24,sing,blue,433.3710903003812,None,None,433.3710903003812,None,,,,,,,,,,,,,,,,,,,,,,,,,,,,,,,,,,,84 Sing,001,2022_Nov_17_1025,ProdSingRedoBetween,2021.2.3,59.94021541117182,
24,0,24,0,,,,,,,,,,,,,,,,,,,,,,,,,,437.8898531999439,None,history,1,25,sing,yellow,435.87894160021096,None,None,435.87894160021096,None,,,,,,,,,,,,,,,,,,,,,,,,,,,,,,,,,,,84 Sing,001,2022_Nov_17_1025,ProdSingRedoBetween,2021.2.3,59.94021541117182,
25,0,25,0,,,,,,,,,,,,,,,,,,,,,,,,,,440.3923030998558,None,blind,37,26,sing,blue,438.3912510005757,None,None,438.3912510005757,None,,,,,,,,,,,,,,,,,,,,,,,,,,,,,,,,,,,84 Sing,001,2022_Nov_17_1025,ProdSingRedoBetween,2021.2.3,59.94021541117182,
26,0,26,0,,,,,,,,,,,,,,,,,,,,,,,,,,442.91153000015765,None,executive,47,27,sing,blue,440.89917680062354,None,None,440.89917680062354,None,,,,,,,,,,,,,,,,,,,,,,,,,,,,,,,,,,,84 Sing,001,2022_Nov_17_1025,ProdSingRedoBetween,2021.2.3,59.94021541117182,
27,0,27,0,,,,,,,,,,,,,,,,,,,,,,,,,,445.4139756998047,None,commercial,85,28,sing,red,443.412014500238,None,None,443.412014500238,None,,,,,,,,,,,,,,,,,,,,,,,,,,,,,,,,,,,84 Sing,001,2022_Nov_17_1025,ProdSingRedoBetween,2021.2.3,59.94021541117182,
28,0,28,0,,,,,,,,,,,,,,,,,,,,,,,,,,447.9164860006422,None,emergency,73,29,sing,red,445.91447050031275,None,None,445.91447050031275,None,,,,,,,,,,,,,,,,,,,,,,,,,,,,,,,,,,,84 Sing,001,2022_Nov_17_1025,ProdSingRedoBetween,2021.2.3,59.94021541117182,
29,0,29,0,,,,,,,,,,,,,,,,,,,,,,,,,,450.43572220019996,None,disease,55,30,sing,blue,448.4220217000693,None,None,448.4220217000693,None,,,,,,,,,,,,,,,,,,,,,,,,,,,,,,,,,,,84 Sing,001,2022_Nov_17_1025,ProdSingRedoBetween,2021.2.3,59.94021541117182,
30,0,30,0,,,,,,,,,,,,,,,,,,,,,,,,,,452.9381523998454,None,carry,75,31,sing,red,450.93687590025365,None,None,450.93687590025365,None,,,,,,,,,,,,,,,,,,,,,,,,,,,,,,,,,,,84 Sing,001,2022_Nov_17_1025,ProdSingRedoBetween,2021.2.3,59.94021541117182,
31,0,31,0,,,,,,,,,,,,,,,,,,,,,,,,,,455.4575004000217,None,strength,32,32,sing,blue,453.44451079983264,None,None,453.44451079983264,None,,,,,,,,,,,,,,,,,,,,,,,,,,,,,,,,,,,84 Sing,001,2022_Nov_17_1025,ProdSingRedoBetween,2021.2.3,59.94021541117182,
32,0,32,0,,,,,,,,,,,,,,,,,,,,,,,,,,457.9598254999146,None,brief,22,33,sing,yellow,455.9602517001331,None,None,455.9602517001331,None,,,,,,,,,,,,,,,,,,,,,,,,,,,,,,,,,,,84 Sing,001,2022_Nov_17_1025,ProdSingRedoBetween,2021.2.3,59.94021541117182,
33,0,33,0,,,,,,,,,,,,,,,,,,,,,,,,,,460.46219660062343,None,poetry,8,34,sing,yellow,458.4625190002844,None,None,458.4625190002844,None,,,,,,,,,,,,,,,,,,,,,,,,,,,,,,,,,,,84 Sing,001,2022_Nov_17_1025,ProdSingRedoBetween,2021.2.3,59.94021541117182,
34,0,34,0,,,,,,,,,,,,,,,,,,,,,,,,,,462.9648416005075,None,atmosphere,77,35,sing,red,460.96286160033196,None,None,460.96286160033196,None,,,,,,,,,,,,,,,,,,,,,,,,,,,,,,,,,,,84 Sing,001,2022_Nov_17_1025,ProdSingRedoBetween,2021.2.3,59.94021541117182,
35,0,35,0,,,,,,,,,,,,,,,,,,,,,,,,,,465.467461200431,None,mayor,44,36,sing,blue,463.4654136002064,None,None,463.4654136002064,None,,,,,,,,,,,,,,,,,,,,,,,,,,,,,,,,,,,84 Sing,001,2022_Nov_17_1025,ProdSingRedoBetween,2021.2.3,59.94021541117182,
36,0,36,0,,,,,,,,,,,,,,,,,,,,,,,,,,467.9698756998405,None,series,11,37,sing,yellow,465.9678715998307,None,None,465.9678715998307,None,,,,,,,,,,,,,,,,,,,,,,,,,,,,,,,,,,,84 Sing,001,2022_Nov_17_1025,ProdSingRedoBetween,2021.2.3,59.94021541117182,
37,0,37,0,,,,,,,,,,,,,,,,,,,,,,,,,,470.4889251003042,None,background,59,38,sing,yellow,468.47595420014113,None,None,468.47595420014113,None,,,,,,,,,,,,,,,,,,,,,,,,,,,,,,,,,,,84 Sing,001,2022_Nov_17_1025,ProdSingRedoBetween,2021.2.3,59.94021541117182,
38,0,38,0,,,,,,,,,,,,,,,,,,,,,,,,,,473.00808630045503,None,message,39,39,sing,blue,470.9986984003335,None,None,470.9986984003335,None,,,,,,,,,,,,,,,,,,,,,,,,,,,,,,,,,,,84 Sing,001,2022_Nov_17_1025,ProdSingRedoBetween,2021.2.3,59.94021541117182,
39,0,39,0,,,,,,,,,,,,,,,,,,,,,,,,,,475.51074159983546,None,generation,28,40,sing,yellow,473.5085503999144,None,None,473.5085503999144,None,,,,,,,,,,,,,,,,,,,,,,,,,,,,,,,,,,,84 Sing,001,2022_Nov_17_1025,ProdSingRedoBetween,2021.2.3,59.94021541117182,
40,0,40,0,,,,,,,,,,,,,,,,,,,,,,,,,,478.0132285002619,None,waste,51,41,sing,blue,476.0110347000882,None,None,476.0110347000882,None,,,,,,,,,,,,,,,,,,,,,,,,,,,,,,,,,,,84 Sing,001,2022_Nov_17_1025,ProdSingRedoBetween,2021.2.3,59.94021541117182,
41,0,41,0,,,,,,,,,,,,,,,,,,,,,,,,,,480.51566160004586,None,device,86,42,sing,red,478.5148125998676,None,None,478.5148125998676,None,,,,,,,,,,,,,,,,,,,,,,,,,,,,,,,,,,,84 Sing,001,2022_Nov_17_1025,ProdSingRedoBetween,2021.2.3,59.94021541117182,
42,0,42,0,,,,,,,,,,,,,,,,,,,,,,,,,,483.01825780048966,None,incident,48,43,sing,blue,481.0164440004155,None,None,481.0164440004155,None,,,,,,,,,,,,,,,,,,,,,,,,,,,,,,,,,,,84 Sing,001,2022_Nov_17_1025,ProdSingRedoBetween,2021.2.3,59.94021541117182,
43,0,43,0,,,,,,,,,,,,,,,,,,,,,,,,,,485.5206816000864,None,couch,80,44,sing,red,483.51863129995763,None,None,483.51863129995763,None,,,,,,,,,,,,,,,,,,,,,,,,,,,,,,,,,,,84 Sing,001,2022_Nov_17_1025,ProdSingRedoBetween,2021.2.3,59.94021541117182,
44,0,44,0,,,,,,,,,,,,,,,,,,,,,,,,,,488.0230593997985,None,foundation,63,45,sing,red,486.02198310010135,None,None,486.02198310010135,None,,,,,,,,,,,,,,,,,,,,,,,,,,,,,,,,,,,84 Sing,001,2022_Nov_17_1025,ProdSingRedoBetween,2021.2.3,59.94021541117182,
45,0,45,0,,,,,,,,,,,,,,,,,,,,,,,,,,490.525696400553,None,symbol,5,46,sing,yellow,488.52372010052204,None,None,488.52372010052204,None,,,,,,,,,,,,,,,,,,,,,,,,,,,,,,,,,,,84 Sing,001,2022_Nov_17_1025,ProdSingRedoBetween,2021.2.3,59.94021541117182,
46,0,46,0,,,,,,,,,,,,,,,,,,,,,,,,,,493.0448758006096,None,suspect,38,47,sing,blue,491.0301948003471,None,None,491.0301948003471,None,,,,,,,,,,,,,,,,,,,,,,,,,,,,,,,,,,,84 Sing,001,2022_Nov_17_1025,ProdSingRedoBetween,2021.2.3,59.94021541117182,
47,0,47,0,,,,,,,,,,,,,,,,,,,,,,,,,,495.5472999000922,None,population,52,48,sing,blue,493.5454016001895,None,None,493.5454016001895,None,,,,,,,,,,,,,,,,,,,,,,,,,,,,,,,,,,,84 Sing,001,2022_Nov_17_1025,ProdSingRedoBetween,2021.2.3,59.94021541117182,
48,0,48,0,,,,,,,,,,,,,,,,,,,,,,,,,,498.06636830046773,None,heavy,89,49,sing,red,496.05446380004287,None,None,496.05446380004287,None,,,,,,,,,,,,,,,,,,,,,,,,,,,,,,,,,,,84 Sing,001,2022_Nov_17_1025,ProdSingRedoBetween,2021.2.3,59.94021541117182,
49,0,49,0,,,,,,,,,,,,,,,,,,,,,,,,,,500.5690238000825,None,broke,31,50,sing,blue,498.5670519005507,None,None,498.5670519005507,None,,,,,,,,,,,,,,,,,,,,,,,,,,,,,,,,,,,84 Sing,001,2022_Nov_17_1025,ProdSingRedoBetween,2021.2.3,59.94021541117182,
50,0,50,0,,,,,,,,,,,,,,,,,,,,,,,,,,503.0881305998191,None,quarter,36,51,sing,blue,501.08521779999137,None,None,501.08521779999137,None,,,,,,,,,,,,,,,,,,,,,,,,,,,,,,,,,,,84 Sing,001,2022_Nov_17_1025,ProdSingRedoBetween,2021.2.3,59.94021541117182,
51,0,51,0,,,,,,,,,,,,,,,,,,,,,,,,,,505.5907760001719,None,income,9,52,sing,yellow,503.5887016998604,None,None,503.5887016998604,None,,,,,,,,,,,,,,,,,,,,,,,,,,,,,,,,,,,84 Sing,001,2022_Nov_17_1025,ProdSingRedoBetween,2021.2.3,59.94021541117182,
52,0,52,0,,,,,,,,,,,,,,,,,,,,,,,,,,508.10991090070456,None,citizen,43,53,sing,blue,506.0999092999846,None,None,506.0999092999846,None,,,,,,,,,,,,,,,,,,,,,,,,,,,,,,,,,,,84 Sing,001,2022_Nov_17_1025,ProdSingRedoBetween,2021.2.3,59.94021541117182,
53,0,53,0,,,,,,,,,,,,,,,,,,,,,,,,,,510.6123983999714,None,dance,74,54,sing,red,508.6104732006788,None,None,508.6104732006788,None,,,,,,,,,,,,,,,,,,,,,,,,,,,,,,,,,,,84 Sing,001,2022_Nov_17_1025,ProdSingRedoBetween,2021.2.3,59.94021541117182,
54,0,54,0,,,,,,,,,,,,,,,,,,,,,,,,,,513.131481599994,None,answer,45,55,sing,blue,511.1166647002101,None,None,511.1166647002101,None,,,,,,,,,,,,,,,,,,,,,,,,,,,,,,,,,,,84 Sing,001,2022_Nov_17_1025,ProdSingRedoBetween,2021.2.3,59.94021541117182,
55,0,55,0,,,,,,,,,,,,,,,,,,,,,,,,,,515.634051900357,None,hearing,67,56,sing,red,513.6323006004095,None,None,513.6323006004095,None,,,,,,,,,,,,,,,,,,,,,,,,,,,,,,,,,,,84 Sing,001,2022_Nov_17_1025,ProdSingRedoBetween,2021.2.3,59.94021541117182,
56,0,56,0,,,,,,,,,,,,,,,,,,,,,,,,,,518.1366368001327,None,estate,83,57,sing,red,516.1373629998416,None,None,516.1373629998416,None,,,,,,,,,,,,,,,,,,,,,,,,,,,,,,,,,,,84 Sing,001,2022_Nov_17_1025,ProdSingRedoBetween,2021.2.3,59.94021541117182,
57,0,57,0,,,,,,,,,,,,,,,,,,,,,,,,,,520.6389186000451,None,error,27,58,sing,yellow,518.636775800027,None,None,518.636775800027,None,,,,,,,,,,,,,,,,,,,,,,,,,,,,,,,,,,,84 Sing,001,2022_Nov_17_1025,ProdSingRedoBetween,2021.2.3,59.94021541117182,
58,0,58,0,,,,,,,,,,,,,,,,,,,,,,,,,,523.1414800006896,None,course,16,59,sing,yellow,521.1391807002947,None,None,521.1391807002947,None,,,,,,,,,,,,,,,,,,,,,,,,,,,,,,,,,,,84 Sing,001,2022_Nov_17_1025,ProdSingRedoBetween,2021.2.3,59.94021541117182,
59,0,59,0,,,,,,,,,,,,,,,,,,,,,,,,,,525.6607437999919,None,worker,26,60,sing,yellow,523.6490297000855,None,None,523.6490297000855,None,,,,,,,,,,,,,,,,,,,,,,,,,,,,,,,,,,,84 Sing,001,2022_Nov_17_1025,ProdSingRedoBetween,2021.2.3,59.94021541117182,
60,0,60,0,,,,,,,,,,,,,,,,,,,,,,,,,,528.1632673004642,None,congress,24,61,sing,yellow,526.1638823999092,None,None,526.1638823999092,None,,,,,,,,,,,,,,,,,,,,,,,,,,,,,,,,,,,84 Sing,001,2022_Nov_17_1025,ProdSingRedoBetween,2021.2.3,59.94021541117182,
61,0,61,0,,,,,,,,,,,,,,,,,,,,,,,,,,530.6821469003335,None,audience,21,62,sing,yellow,528.6671404000372,None,None,528.6671404000372,None,,,,,,,,,,,,,,,,,,,,,,,,,,,,,,,,,,,84 Sing,001,2022_Nov_17_1025,ProdSingRedoBetween,2021.2.3,59.94021541117182,
62,0,62,0,,,,,,,,,,,,,,,,,,,,,,,,,,533.2012491999194,None,travel,6,63,sing,yellow,531.1869140006602,None,None,531.1869140006602,None,,,,,,,,,,,,,,,,,,,,,,,,,,,,,,,,,,,84 Sing,001,2022_Nov_17_1025,ProdSingRedoBetween,2021.2.3,59.94021541117182,
63,0,63,0,,,,,,,,,,,,,,,,,,,,,,,,,,535.70447050035,None,style,4,64,sing,yellow,533.7020359002054,None,None,533.7020359002054,None,,,,,,,,,,,,,,,,,,,,,,,,,,,,,,,,,,,84 Sing,001,2022_Nov_17_1025,ProdSingRedoBetween,2021.2.3,59.94021541117182,
64,0,64,0,,,,,,,,,,,,,,,,,,,,,,,,,,538.2067180005834,None,voice,81,65,sing,red,536.2072895998135,None,None,536.2072895998135,None,,,,,,,,,,,,,,,,,,,,,,,,,,,,,,,,,,,84 Sing,001,2022_Nov_17_1025,ProdSingRedoBetween,2021.2.3,59.94021541117182,
65,0,65,0,,,,,,,,,,,,,,,,,,,,,,,,,,540.7090715998784,None,industry,18,66,sing,yellow,538.7071876004338,None,None,538.7071876004338,None,,,,,,,,,,,,,,,,,,,,,,,,,,,,,,,,,,,84 Sing,001,2022_Nov_17_1025,ProdSingRedoBetween,2021.2.3,59.94021541117182,
66,0,66,0,,,,,,,,,,,,,,,,,,,,,,,,,,543.2281563999131,None,member,13,67,sing,yellow,541.2189667001367,None,None,541.2189667001367,None,,,,,,,,,,,,,,,,,,,,,,,,,,,,,,,,,,,84 Sing,001,2022_Nov_17_1025,ProdSingRedoBetween,2021.2.3,59.94021541117182,
67,0,67,0,,,,,,,,,,,,,,,,,,,,,,,,,,545.7307157004252,None,speech,23,68,sing,yellow,543.7289605000988,None,None,543.7289605000988,None,,,,,,,,,,,,,,,,,,,,,,,,,,,,,,,,,,,84 Sing,001,2022_Nov_17_1025,ProdSingRedoBetween,2021.2.3,59.94021541117182,
68,0,68,0,,,,,,,,,,,,,,,,,,,,,,,,,,548.2498906003311,None,portion,49,69,sing,blue,546.2365653002635,None,None,546.2365653002635,None,,,,,,,,,,,,,,,,,,,,,,,,,,,,,,,,,,,84 Sing,001,2022_Nov_17_1025,ProdSingRedoBetween,2021.2.3,59.94021541117182,
69,0,69,0,,,,,,,,,,,,,,,,,,,,,,,,,,550.7524396004155,None,alert,70,70,sing,red,548.7504185000435,None,None,548.7504185000435,None,,,,,,,,,,,,,,,,,,,,,,,,,,,,,,,,,,,84 Sing,001,2022_Nov_17_1025,ProdSingRedoBetween,2021.2.3,59.94021541117182,
70,0,70,0,,,,,,,,,,,,,,,,,,,,,,,,,,553.2563001001254,None,interview,76,71,sing,red,551.2560825999826,None,None,551.2560825999826,None,,,,,,,,,,,,,,,,,,,,,,,,,,,,,,,,,,,84 Sing,001,2022_Nov_17_1025,ProdSingRedoBetween,2021.2.3,59.94021541117182,
71,0,71,0,,,,,,,,,,,,,,,,,,,,,,,,,,555.7574020000175,None,nature,7,72,sing,yellow,553.7561583006755,None,None,553.7561583006755,None,,,,,,,,,,,,,,,,,,,,,,,,,,,,,,,,,,,84 Sing,001,2022_Nov_17_1025,ProdSingRedoBetween,2021.2.3,59.94021541117182,
72,0,72,0,,,,,,,,,,,,,,,,,,,,,,,,,,558.2765921000391,None,music,62,73,sing,red,556.2613190002739,None,None,556.2613190002739,None,,,,,,,,,,,,,,,,,,,,,,,,,,,,,,,,,,,84 Sing,001,2022_Nov_17_1025,ProdSingRedoBetween,2021.2.3,59.94021541117182,
73,0,73,0,,,,,,,,,,,,,,,,,,,,,,,,,,560.779132200405,None,finance,78,74,sing,red,558.7770945001394,None,None,558.7770945001394,None,,,,,,,,,,,,,,,,,,,,,,,,,,,,,,,,,,,84 Sing,001,2022_Nov_17_1025,ProdSingRedoBetween,2021.2.3,59.94021541117182,
74,0,74,0,,,,,,,,,,,,,,,,,,,,,,,,,,563.2982374001294,None,service,3,75,sing,yellow,561.2874979004264,None,None,561.2874979004264,None,,,,,,,,,,,,,,,,,,,,,,,,,,,,,,,,,,,84 Sing,001,2022_Nov_17_1025,ProdSingRedoBetween,2021.2.3,59.94021541117182,
75,0,75,0,,,,,,,,,,,,,,,,,,,,,,,,,,565.8174520004541,None,territory,61,76,sing,red,563.8024021005258,None,None,563.8024021005258,None,,,,,,,,,,,,,,,,,,,,,,,,,,,,,,,,,,,84 Sing,001,2022_Nov_17_1025,ProdSingRedoBetween,2021.2.3,59.94021541117182,
76,0,76,0,,,,,,,,,,,,,,,,,,,,,,,,,,568.3366309003904,None,primary,57,77,sing,blue,566.3299687001854,None,None,566.3299687001854,None,,,,,,,,,,,,,,,,,,,,,,,,,,,,,,,,,,,84 Sing,001,2022_Nov_17_1025,ProdSingRedoBetween,2021.2.3,59.94021541117182,
77,0,77,0,,,,,,,,,,,,,,,,,,,,,,,,,,570.8389832004905,None,straight,88,78,sing,red,568.8371010003611,None,None,568.8371010003611,None,,,,,,,,,,,,,,,,,,,,,,,,,,,,,,,,,,,84 Sing,001,2022_Nov_17_1025,ProdSingRedoBetween,2021.2.3,59.94021541117182,
78,0,78,0,,,,,,,,,,,,,,,,,,,,,,,,,,573.3582559004426,None,figure,50,79,sing,blue,571.3469920000061,None,None,571.3469920000061,None,,,,,,,,,,,,,,,,,,,,,,,,,,,,,,,,,,,84 Sing,001,2022_Nov_17_1025,ProdSingRedoBetween,2021.2.3,59.94021541117182,
79,0,79,0,,,,,,,,,,,,,,,,,,,,,,,,,,575.860845300369,None,production,64,80,sing,red,573.858872000128,None,None,573.858872000128,None,,,,,,,,,,,,,,,,,,,,,,,,,,,,,,,,,,,84 Sing,001,2022_Nov_17_1025,ProdSingRedoBetween,2021.2.3,59.94021541117182,
80,0,80,0,,,,,,,,,,,,,,,,,,,,,,,,,,578.3632914004847,None,balance,14,81,sing,yellow,576.361509299837,None,None,576.361509299837,None,,,,,,,,,,,,,,,,,,,,,,,,,,,,,,,,,,,84 Sing,001,2022_Nov_17_1025,ProdSingRedoBetween,2021.2.3,59.94021541117182,
81,0,81,0,,,,,,,,,,,,,,,,,,,,,,,,,,580.8657574998215,None,victory,79,82,sing,red,578.8645240003243,None,None,578.8645240003243,None,,,,,,,,,,,,,,,,,,,,,,,,,,,,,,,,,,,84 Sing,001,2022_Nov_17_1025,ProdSingRedoBetween,2021.2.3,59.94021541117182,
82,0,82,0,,,,,,,,,,,,,,,,,,,,,,,,,,583.3679360002279,None,election,46,83,sing,blue,581.3664770005271,None,None,581.3664770005271,None,,,,,,,,,,,,,,,,,,,,,,,,,,,,,,,,,,,84 Sing,001,2022_Nov_17_1025,ProdSingRedoBetween,2021.2.3,59.94021541117182,
83,0,83,0,,,,,,,,,,,,,,,,,,,,,,,,,,585.8706286000088,None,bitter,2,84,sing,yellow,583.8685105005279,None,None,583.8685105005279,None,,,,,,,,,,,,,,,,,,,,,,,,,,,,,,,,,,,84 Sing,001,2022_Nov_17_1025,ProdSingRedoBetween,2021.2.3,59.94021541117182,
84,0,84,0,,,,,,,,,,,,,,,,,,,,,,,,,,588.3899325001985,None,suggestion,10,85,sing,yellow,586.3780537005514,None,None,586.3780537005514,None,,,,,,,,,,,,,,,,,,,,,,,,,,,,,,,,,,,84 Sing,001,2022_Nov_17_1025,ProdSingRedoBetween,2021.2.3,59.94021541117182,
85,0,85,0,,,,,,,,,,,,,,,,,,,,,,,,,,590.8924151007086,None,skill,19,86,sing,yellow,588.89023500029,None,None,588.89023500029,None,,,,,,,,,,,,,,,,,,,,,,,,,,,,,,,,,,,84 Sing,001,2022_Nov_17_1025,ProdSingRedoBetween,2021.2.3,59.94021541117182,
86,0,86,0,,,,,,,,,,,,,,,,,,,,,,,,,,593.3946234006435,None,edition,25,87,sing,yellow,591.3929235003889,None,None,591.3929235003889,None,,,,,,,,,,,,,,,,,,,,,,,,,,,,,,,,,,,84 Sing,001,2022_Nov_17_1025,ProdSingRedoBetween,2021.2.3,59.94021541117182,
87,0,87,0,,,,,,,,,,,,,,,,,,,,,,,,,,595.914152700454,None,military,30,88,sing,blue,593.9053873000666,None,None,593.9053873000666,None,,,,,,,,,,,,,,,,,,,,,,,,,,,,,,,,,,,84 Sing,001,2022_Nov_17_1025,ProdSingRedoBetween,2021.2.3,59.94021541117182,
88,0,88,0,,,,,,,,,,,,,,,,,,,,,,,,,,598.4165936000645,None,second,53,89,sing,blue,596.4145816005766,None,None,596.4145816005766,None,,,,,,,,,,,,,,,,,,,,,,,,,,,,,,,,,,,84 Sing,001,2022_Nov_17_1025,ProdSingRedoBetween,2021.2.3,59.94021541117182,
89,0,89,0,,,,,,,,,,,,,,,,,,,,,,,,,,600.9191171005368,None,conference,58,90,sing,blue,598.9182803006843,None,None,598.9182803006843,None,,,,,,,,,,,,,,,,,,,,,,,,,,,,,,,,,,,84 Sing,001,2022_Nov_17_1025,ProdSingRedoBetween,2021.2.3,59.94021541117182,
,,,,,,,,,,,,,,,,,,,,,,,,,,,,,,,,,,,,,,,,,601.4197577005252,None,k,200.18577650003135,601.4197577005252,None,,,,,,,,,,,,,,,,,,,,,,,,,,,,,84 Sing,001,2022_Nov_17_1025,ProdSingRedoBetween,2021.2.3,59.94021541117182,
,,,,0,0,0,0,,,,,,,,,,,,,,,,,,,,,,813.98224950023,None,,,,,,,,,,,,,,,,,rural,158,1,sing,new,null,802.141689600423,None,802.141689600423,None,6,7.927709199488163,802.141689600423,None,7.927709199488163,810.0965236006305,None,810.6117347003892,None,810.6117347003892,None,r,3.3538113003596663,810.6117347003892,None,3.3538113003596663,,,84 Sing,001,2022_Nov_17_1025,ProdSingRedoBetween,2021.2.3,59.94021541117182,
,,,,1,0,1,0,,,,,,,,,,,,,,,,,,,,,,823.7933841003105,None,,,,,,,,,,,,,,,,,count,40,2,sing,old,blue,814.4901213003322,None,814.4901213003322,None,6,7.571356199681759,814.4901213003322,None,7.571356199681759,822.0896936003119,None,822.5943096000701,None,822.5943096000701,None,r,1.1791262002661824,822.5943096000701,None,1.1791262002661824,,,84 Sing,001,2022_Nov_17_1025,ProdSingRedoBetween,2021.2.3,59.94021541117182,
,,,,2,0,2,0,,,,,,,,,,,,,,,,,,,,,,831.1653527002782,None,,,,,,,,,,,,,,,,,power,168,3,sing,new,null,824.3187650004402,None,824.3187650004402,None,6,2.2867181999608874,824.3187650004402,None,2.2867181999608874,826.6292090006173,None,827.1516321003437,None,827.1516321003437,None,r,3.989825699478388,827.1516321003437,None,3.989825699478388,,,84 Sing,001,2022_Nov_17_1025,ProdSingRedoBetween,2021.2.3,59.94021541117182,
,,,,3,0,3,0,,,,,,,,,,,,,,,,,,,,,,834.0516252005473,None,,,,,,,,,,,,,,,,,general,154,4,sing,new,null,831.6722295004874,None,831.6722295004874,None,6,1.2291796002537012,831.6722295004874,None,1.2291796002537012,832.9234645003453,None,833.4345173006877,None,833.4345173006877,None,r,0.595044800080359,833.4345173006877,None,0.595044800080359,,,84 Sing,001,2022_Nov_17_1025,ProdSingRedoBetween,2021.2.3,59.94021541117182,
,,,,4,0,4,0,,,,,,,,,,,,,,,,,,,,,,836.320274900645,None,,,,,,,,,,,,,,,,,income,9,5,sing,old,yellow,834.5548609001562,None,834.5548609001562,None,6,0.7866146005690098,834.5548609001562,None,0.7866146005690098,835.3702477999032,None,835.8701884998009,None,835.8701884998009,None,r,0.4313011998310685,835.8701884998009,None,0.4313011998310685,,,84 Sing,001,2022_Nov_17_1025,ProdSingRedoBetween,2021.2.3,59.94021541117182,
,,,,5,0,5,0,,,,,,,,,,,,,,,,,,,,,,838.6227149004117,None,,,,,,,,,,,,,,,,,production,64,6,sing,old,red,836.8283425001428,None,836.8283425001428,None,6,0.7851187996566296,836.8283425001428,None,0.7851187996566296,837.6405552998185,None,838.1614342005923,None,838.1614342005923,None,r,0.4360286993905902,838.1614342005923,None,0.4360286993905902,,,84 Sing,001,2022_Nov_17_1025,ProdSingRedoBetween,2021.2.3,59.94021541117182,
,,,,6,0,6,0,,,,,,,,,,,,,,,,,,,,,,841.5924068000168,None,,,,,,,,,,,,,,,,,silence,82,7,sing,old,red,839.1301028998569,None,839.1301028998569,None,6,1.579344100318849,839.1301028998569,None,1.579344100318849,840.7263902006671,None,841.2313729999587,None,841.2313729999587,None,r,0.34212879929691553,841.2313729999587,None,0.34212879929691553,,,84 Sing,001,2022_Nov_17_1025,ProdSingRedoBetween,2021.2.3,59.94021541117182,
,,,,7,0,7,0,,,,,,,,,,,,,,,,,,,,,,843.6943374006078,None,,,,,,,,,,,,,,,,,prime,169,8,sing,new,null,842.0968856001273,None,842.0968856001273,None,6,0.6125855995342135,842.0968856001273,None,0.6125855995342135,842.7299100998789,None,843.245342399925,None,843.245342399925,None,r,0.43222489953041077,843.245342399925,None,0.43222489953041077,,,84 Sing,001,2022_Nov_17_1025,ProdSingRedoBetween,2021.2.3,59.94021541117182,
,,,,8,0,8,0,,,,,,,,,,,,,,,,,,,,,,845.7300061006099,None,,,,,,,,,,,,,,,,,rapid,69,9,sing,old,red,844.211636800319,None,844.211636800319,None,6,0.6258837999776006,844.211636800319,None,0.6258837999776006,844.8713367003947,None,845.3799401000142,None,845.3799401000142,None,r,0.32953300047665834,845.3799401000142,None,0.32953300047665834,,,84 Sing,001,2022_Nov_17_1025,ProdSingRedoBetween,2021.2.3,59.94021541117182,
,,,,9,0,9,0,,,,,,,,,,,,,,,,,,,,,,847.6328627001494,None,,,,,,,,,,,,,,,,,primary,57,10,sing,old,blue,846.240260200575,None,846.240260200575,None,6,0.4532081000506878,846.240260200575,None,0.4532081000506878,846.7161926999688,None,847.2403803002089,None,847.2403803002089,None,r,0.3730512000620365,847.2403803002089,None,0.3730512000620365,,,84 Sing,001,2022_Nov_17_1025,ProdSingRedoBetween,2021.2.3,59.94021541117182,
,,,,10,0,10,0,,,,,,,,,,,,,,,,,,,,,,850.150685899891,None,,,,,,,,,,,,,,,,,command,167,11,sing,new,null,848.1350444005802,None,848.1350444005802,None,6,0.9823222998529673,848.1350444005802,None,0.9823222998529673,849.1355790998787,None,849.6503468006849,None,849.6503468006849,None,r,0.4749578991904855,849.6503468006849,None,0.4749578991904855,,,84 Sing,001,2022_Nov_17_1025,ProdSingRedoBetween,2021.2.3,59.94021541117182,
,,,,11,0,11,0,,,,,,,,,,,,,,,,,,,,,,852.1888893004507,None,,,,,,,,,,,,,,,,,history,1,12,sing,old,yellow,850.6618395000696,None,850.6618395000696,None,6,0.6235891003161669,850.6618395000696,None,0.6235891003161669,851.303853600286,None,851.8237108998001,None,851.8237108998001,None,r,0.3418324002996087,851.8237108998001,None,0.3418324002996087,,,84 Sing,001,2022_Nov_17_1025,ProdSingRedoBetween,2021.2.3,59.94021541117182,
,,,,12,0,12,0,,,,,,,,,,,,,,,,,,,,,,855.7731844000518,None,,,,,,,,,,,,,,,,,individual,33,13,sing,old,blue,852.7081540003419,None,852.7081540003419,None,6,0.5452434001490474,852.7081540003419,None,0.5452434001490474,853.2721243007109,None,853.7754464000463,None,853.7754464000463,None,r,1.981984400190413,853.7754464000463,None,1.981984400190413,,,84 Sing,001,2022_Nov_17_1025,ProdSingRedoBetween,2021.2.3,59.94021541117182,
,,,,13,0,13,0,,,,,,,,,,,,,,,,,,,,,,858.5771749000996,None,,,,,,,,,,,,,,,,,edition,25,14,sing,old,yellow,856.279280600138,None,856.279280600138,None,6,1.2542837001383305,856.279280600138,None,1.2542837001383305,857.5729627003893,None,858.0837246999145,None,858.0837246999145,None,r,0.47377000004053116,858.0837246999145,None,0.47377000004053116,,,84 Sing,001,2022_Nov_17_1025,ProdSingRedoBetween,2021.2.3,59.94021541117182,
,,,,14,0,14,0,,,,,,,,,,,,,,,,,,,,,,861.5473167998716,None,,,,,,,,,,,,,,,,,answer,45,15,sing,old,blue,859.0802004002035,None,859.0802004002035,None,6,1.5412207003682852,859.0802004002035,None,1.5412207003682852,860.6476726001129,None,861.1668047001585,None,861.1668047001585,None,r,0.35068860091269016,861.1668047001585,None,0.35068860091269016,,,84 Sing,001,2022_Nov_17_1025,ProdSingRedoBetween,2021.2.3,59.94021541117182,
,,,,15,0,15,0,,,,,,,,,,,,,,,,,,,,,,863.8813407998532,None,,,,,,,,,,,,,,,,,skill,19,16,sing,old,yellow,862.0653063999489,None,862.0653063999489,None,6,0.5881457002833486,862.0653063999489,None,0.5881457002833486,862.6840913007036,None,863.2037105998024,None,863.2037105998024,None,r,0.6496542999520898,863.2037105998024,None,0.6496542999520898,,,84 Sing,001,2022_Nov_17_1025,ProdSingRedoBetween,2021.2.3,59.94021541117182,
,,,,16,0,16,0,,,,,,,,,,,,,,,,,,,,,,867.2513275006786,None,,,,,,,,,,,,,,,,,mankind,140,17,sing,new,null,864.382377400063,None,864.382377400063,None,6,1.8792140996083617,864.382377400063,None,1.8792140996083617,866.2840103004128,None,866.7905895998701,None,866.7905895998701,None,r,0.43089780025184155,866.7905895998701,None,0.43089780025184155,,,84 Sing,001,2022_Nov_17_1025,ProdSingRedoBetween,2021.2.3,59.94021541117182,
,,,,17,0,17,0,,,,,,,,,,,,,,,,,,,,,,870.0728674000129,None,,,,,,,,,,,,,,,,,concern,132,18,sing,new,null,867.7519203005359,None,867.7519203005359,None,6,1.1574274003505707,867.7519203005359,None,1.1574274003505707,868.9375459002331,None,869.4384773001075,None,869.4384773001075,None,r,0.6070440001785755,869.4384773001075,None,0.6070440001785755,,,84 Sing,001,2022_Nov_17_1025,ProdSingRedoBetween,2021.2.3,59.94021541117182,
,,,,18,0,18,0,,,,,,,,,,,,,,,,,,,,,,872.458844400011,None,,,,,,,,,,,,,,,,,guest,54,19,sing,old,blue,870.5924728000537,None,870.5924728000537,None,6,1.172941100783646,870.5924728000537,None,1.172941100783646,871.7922224998474,None,872.308350100182,None,872.308350100182,None,r,0.12939330004155636,872.308350100182,None,0.12939330004155636,,,84 Sing,001,2022_Nov_17_1025,ProdSingRedoBetween,2021.2.3,59.94021541117182,
,,,,19,0,19,0,,,,,,,,,,,,,,,,,,,,,,874.3749818000942,None,,,,,,,,,,,,,,,,,beauty,12,20,sing,old,yellow,872.9773010006174,None,872.9773010006174,None,6,0.572015599347651,872.9773010006174,None,0.572015599347651,873.5756128001958,None,874.0808699000627,None,874.0808699000627,None,r,0.2766255000606179,874.0808699000627,None,0.2766255000606179,,,84 Sing,001,2022_Nov_17_1025,ProdSingRedoBetween,2021.2.3,59.94021541117182,
,,,,20,0,20,0,,,,,,,,,,,,,,,,,,,,,,876.8108793003485,None,,,,,,,,,,,,,,,,,shear,128,21,sing,new,null,874.8922891002148,None,874.8922891002148,None,6,1.048994299955666,874.8922891002148,None,1.048994299955666,875.9616236006841,None,876.4680963000283,None,876.4680963000283,None,r,0.3212881004437804,876.4680963000283,None,0.3212881004437804,,,84 Sing,001,2022_Nov_17_1025,ProdSingRedoBetween,2021.2.3,59.94021541117182,
,,,,21,0,21,0,,,,,,,,,,,,,,,,,,,,,,880.5812841998413,None,,,,,,,,,,,,,,,,,drove,156,22,sing,new,null,877.3149551004171,None,877.3149551004171,None,6,2.354322800412774,877.3149551004171,None,2.354322800412774,879.707062699832,None,880.214094299823,None,880.214094299823,None,r,0.34331570006906986,880.214094299823,None,0.34331570006906986,,,84 Sing,001,2022_Nov_17_1025,ProdSingRedoBetween,2021.2.3,59.94021541117182,
,,,,22,0,22,0,,,,,,,,,,,,,,,,,,,,,,883.9346815003082,None,,,,,,,,,,,,,,,,,conference,58,23,sing,old,blue,881.0919336006045,None,881.0919336006045,None,6,2.0014388002455235,881.0919336006045,None,2.0014388002455235,883.1192228998989,None,883.638012399897,None,883.638012399897,None,r,0.271552799269557,883.638012399897,None,0.271552799269557,,,84 Sing,001,2022_Nov_17_1025,ProdSingRedoBetween,2021.2.3,59.94021541117182,
,,,,23,0,23,0,,,,,,,,,,,,,,,,,,,,,,885.8698701001704,None,,,,,,,,,,,,,,,,,worker,26,24,sing,old,yellow,884.4401555005461,None,884.4401555005461,None,6,0.6292687999084592,884.4401555005461,None,0.6292687999084592,885.0914871999994,None,885.6068917000666,None,885.6068917000666,None,r,0.24653169978410006,885.6068917000666,None,0.24653169978410006,,,84 Sing,001,2022_Nov_17_1025,ProdSingRedoBetween,2021.2.3,59.94021541117182,
,,,,24,0,24,0,,,,,,,,,,,,,,,,,,,,,,888.222259500064,None,,,,,,,,,,,,,,,,,literature,114,25,sing,new,null,886.3719081003219,None,886.3719081003219,None,6,0.9773589996621013,886.3719081003219,None,0.9773589996621013,887.376246300526,None,887.8921907003969,None,887.8921907003969,None,r,0.313128100708127,887.8921907003969,None,0.313128100708127,,,84 Sing,001,2022_Nov_17_1025,ProdSingRedoBetween,2021.2.3,59.94021541117182,
,,,,25,0,25,0,,,,,,,,,,,,,,,,,,,,,,890.8748800000176,None,,,,,,,,,,,,,,,,,agreement,68,26,sing,old,red,888.735155700706,None,888.735155700706,None,6,1.2541383998468518,888.735155700706,None,1.2541383998468518,890.0101468004286,None,890.5262502999976,None,890.5262502999976,None,r,0.31914119981229305,890.5262502999976,None,0.31914119981229305,,,84 Sing,001,2022_Nov_17_1025,ProdSingRedoBetween,2021.2.3,59.94021541117182,
,,,,26,0,26,0,,,,,,,,,,,,,,,,,,,,,,894.0780514003709,None,,,,,,,,,,,,,,,,,interior,134,27,sing,new,null,891.3761277999729,None,891.3761277999729,None,6,1.837237799540162,891.3761277999729,None,1.837237799540162,893.2446215003729,None,893.7477873004973,None,893.7477873004973,None,r,0.31358360033482313,893.7477873004973,None,0.31358360033482313,,,84 Sing,001,2022_Nov_17_1025,ProdSingRedoBetween,2021.2.3,59.94021541117182,
,,,,27,0,27,0,,,,,,,,,,,,,,,,,,,,,,896.1468536006287,None,,,,,,,,,,,,,,,,,business,106,28,sing,new,null,894.5853200005367,None,894.5853200005367,None,6,0.6359125999733806,894.5853200005367,None,0.6359125999733806,895.2514917002991,None,895.762954399921,None,895.762954399921,None,r,0.3623871998861432,895.762954399921,None,0.3623871998861432,,,84 Sing,001,2022_Nov_17_1025,ProdSingRedoBetween,2021.2.3,59.94021541117182,
,,,,28,0,28,0,,,,,,,,,,,,,,,,,,,,,,898.6493945000693,None,,,,,,,,,,,,,,,,,swift,108,29,sing,new,null,896.654178400524,None,896.654178400524,None,6,1.1754700001329184,896.654178400524,None,1.1754700001329184,897.8561382004991,None,898.3658565003425,None,898.3658565003425,None,r,0.26356569956988096,898.3658565003425,None,0.26356569956988096,,,84 Sing,001,2022_Nov_17_1025,ProdSingRedoBetween,2021.2.3,59.94021541117182,
,,,,29,0,29,0,,,,,,,,,,,,,,,,,,,,,,900.4511031005532,None,,,,,,,,,,,,,,,,,crowd,175,30,sing,new,null,899.1520445998758,None,899.1520445998758,None,6,0.4692067001014948,899.1520445998758,None,0.4692067001014948,899.6518208999187,None,900.1677504004911,None,900.1677504004911,None,r,0.25363640021532774,900.1677504004911,None,0.25363640021532774,,,84 Sing,001,2022_Nov_17_1025,ProdSingRedoBetween,2021.2.3,59.94021541117182,
,,,,30,0,30,0,,,,,,,,,,,,,,,,,,,,,,902.1861597998068,None,,,,,,,,,,,,,,,,,series,11,31,sing,old,yellow,900.9514806000516,None,900.9514806000516,None,6,0.5498575996607542,900.9514806000516,None,0.5498575996607542,901.5220992006361,None,902.0407302007079,None,902.0407302007079,None,r,0.11668820027261972,902.0407302007079,None,0.11668820027261972,,,84 Sing,001,2022_Nov_17_1025,ProdSingRedoBetween,2021.2.3,59.94021541117182,
,,,,31,0,31,0,,,,,,,,,,,,,,,,,,,,,,905.1057462003082,None,,,,,,,,,,,,,,,,,present,160,32,sing,new,null,902.7002445003018,None,902.7002445003018,None,6,1.7131067998707294,902.7002445003018,None,1.7131067998707294,904.4415001999587,None,904.9557092003524,None,904.9557092003524,None,r,0.1299211997538805,904.9557092003524,None,0.1299211997538805,,,84 Sing,001,2022_Nov_17_1025,ProdSingRedoBetween,2021.2.3,59.94021541117182,
,,,,32,0,32,0,,,,,,,,,,,,,,,,,,,,,,908.5425885999575,None,,,,,,,,,,,,,,,,,pressure,107,33,sing,new,null,905.6124849002808,None,905.6124849002808,None,6,2.2088563991710544,905.6124849002808,None,2.2088563991710544,907.8431222001091,None,908.3591189999133,None,908.3591189999133,None,r,0.15831479988992214,908.3591189999133,None,0.15831479988992214,,,84 Sing,001,2022_Nov_17_1025,ProdSingRedoBetween,2021.2.3,59.94021541117182,
,,,,33,0,33,0,,,,,,,,,,,,,,,,,,,,,,910.8114555999637,None,,,,,,,,,,,,,,,,,congress,24,34,sing,old,yellow,909.0504983998835,None,909.0504983998835,None,6,1.0827378993853927,909.0504983998835,None,1.0827378993853927,910.1607734998688,None,910.6664811000228,None,910.6664811000228,None,r,0.12283410038799047,910.6664811000228,None,0.12283410038799047,,,84 Sing,001,2022_Nov_17_1025,ProdSingRedoBetween,2021.2.3,59.94021541117182,
,,,,34,0,34,0,,,,,,,,,,,,,,,,,,,,,,913.0803412999958,None,,,,,,,,,,,,,,,,,junior,152,35,sing,new,null,911.3193712998182,None,911.3193712998182,None,6,0.9020328996703029,911.3193712998182,None,0.9020328996703029,912.2518423004076,None,912.7636377001181,None,912.7636377001181,None,r,0.2978012003004551,912.7636377001181,None,0.2978012003004551,,,84 Sing,001,2022_Nov_17_1025,ProdSingRedoBetween,2021.2.3,59.94021541117182,
,,,,35,0,35,0,,,,,,,,,,,,,,,,,,,,,,915.1323004998267,None,,,,,,,,,,,,,,,,,little,93,36,sing,new,null,913.589255400002,None,913.589255400002,None,6,0.7681296998634934,913.589255400002,None,0.7681296998634934,914.3862346000969,None,914.9024058999494,None,914.9024058999494,None,r,0.19921029917895794,914.9024058999494,None,0.19921029917895794,,,84 Sing,001,2022_Nov_17_1025,ProdSingRedoBetween,2021.2.3,59.94021541117182,
,,,,36,0,36,0,,,,,,,,,,,,,,,,,,,,,,917.1867892006412,None,,,,,,,,,,,,,,,,,portion,49,37,sing,old,blue,915.6413388000801,None,915.6413388000801,None,6,0.9640943994745612,915.6413388000801,None,0.9640943994745612,916.6399685004726,None,917.1530202003196,None,917.1530202003196,None,r,0.01266419980674982,917.1530202003196,None,0.01266419980674982,,,84 Sing,001,2022_Nov_17_1025,ProdSingRedoBetween,2021.2.3,59.94021541117182,
,,,,37,0,37,0,,,,,,,,,,,,,,,,,,,,,,919.9548201998696,None,,,,,,,,,,,,,,,,,heavy,89,38,sing,old,red,917.7047139005736,None,917.7047139005736,None,6,0.6766098001971841,917.7047139005736,None,0.6766098001971841,918.403685300611,None,918.9070466998965,None,918.9070466998965,None,r,1.0183482002466917,918.9070466998965,None,1.0183482002466917,,,84 Sing,001,2022_Nov_17_1025,ProdSingRedoBetween,2021.2.3,59.94021541117182,
,,,,38,0,38,0,,,,,,,,,,,,,,,,,,,,,,922.5561897000298,None,,,,,,,,,,,,,,,,,entrance,179,39,sing,new,null,920.4576965998858,None,920.4576965998858,None,6,1.4596872003749013,920.4576965998858,None,1.4596872003749013,921.9448637999594,None,922.4609695998952,None,922.4609695998952,None,r,0.07232759986072779,922.4609695998952,None,0.07232759986072779,,,84 Sing,001,2022_Nov_17_1025,ProdSingRedoBetween,2021.2.3,59.94021541117182,
,,,,39,0,39,0,,,,,,,,,,,,,,,,,,,,,,924.9422120004892,None,,,,,,,,,,,,,,,,,column,125,40,sing,new,null,923.0640195002779,None,923.0640195002779,None,6,0.5413373997434974,923.0640195002779,None,0.5413373997434974,923.6257805004716,None,924.1289325999096,None,924.1289325999096,None,r,0.7963343998417258,924.1289325999096,None,0.7963343998417258,,,84 Sing,001,2022_Nov_17_1025,ProdSingRedoBetween,2021.2.3,59.94021541117182,
,,,,40,0,40,0,,,,,,,,,,,,,,,,,,,,,,926.8613948998973,None,,,,,,,,,,,,,,,,,suggestion,10,41,sing,old,yellow,925.4460737006739,None,925.4460737006739,None,6,0.6233260007575154,925.4460737006739,None,0.6233260007575154,926.0946538001299,None,926.6008595004678,None,926.6008595004678,None,r,0.24443169962614775,926.6008595004678,None,0.24443169962614775,,,84 Sing,001,2022_Nov_17_1025,ProdSingRedoBetween,2021.2.3,59.94021541117182,
,,,,41,0,41,0,,,,,,,,,,,,,,,,,,,,,,928.4955003000796,None,,,,,,,,,,,,,,,,,citizen,43,42,sing,old,blue,927.3661984000355,None,927.3661984000355,None,6,0.5509694004431367,927.3661984000355,None,0.5509694004431367,927.9492648998275,None,928.4623360000551,None,928.4623360000551,None,r,0.006858400069177151,928.4623360000551,None,0.006858400069177151,,,84 Sing,001,2022_Nov_17_1025,ProdSingRedoBetween,2021.2.3,59.94021541117182,
,,,,42,0,42,0,,,,,,,,,,,,,,,,,,,,,,931.015568700619,None,,,,,,,,,,,,,,,,,master,170,43,sing,new,null,928.9962527006865,None,928.9962527006865,None,6,0.577037800103426,928.9962527006865,None,0.577037800103426,929.5984024005011,None,930.0974986003712,None,930.0974986003712,None,r,0.8997510997578502,930.0974986003712,None,0.8997510997578502,,,84 Sing,001,2022_Nov_17_1025,ProdSingRedoBetween,2021.2.3,59.94021541117182,
,,,,43,0,43,0,,,,,,,,,,,,,,,,,,,,,,933.1671079006046,None,,,,,,,,,,,,,,,,,carry,75,44,sing,old,red,931.5217690998688,None,931.5217690998688,None,6,0.49951739981770515,931.5217690998688,None,0.49951739981770515,932.0738146007061,None,932.5832608006895,None,932.5832608006895,None,r,0.5579825006425381,932.5832608006895,None,0.5579825006425381,,,84 Sing,001,2022_Nov_17_1025,ProdSingRedoBetween,2021.2.3,59.94021541117182,
,,,,44,0,44,0,,,,,,,,,,,,,,,,,,,,,,935.8378921998665,None,,,,,,,,,,,,,,,,,commercial,85,45,sing,old,red,933.6713094003499,None,933.6713094003499,None,6,0.8541523003950715,933.6713094003499,None,0.8541523003950715,934.558008399792,None,935.0691681001335,None,935.0691681001335,None,r,0.736192099750042,935.0691681001335,None,0.736192099750042,,,84 Sing,001,2022_Nov_17_1025,ProdSingRedoBetween,2021.2.3,59.94021541117182,
,,,,45,0,45,0,,,,,,,,,,,,,,,,,,,,,,937.8050857000053,None,,,,,,,,,,,,,,,,,write,126,46,sing,new,null,936.3407545005903,None,936.3407545005903,None,6,0.6325452998280525,936.3407545005903,None,0.6325452998280525,937.0103469006717,None,937.5215415004641,None,937.5215415004641,None,r,0.25974269956350327,937.5215415004641,None,0.25974269956350327,,,84 Sing,001,2022_Nov_17_1025,ProdSingRedoBetween,2021.2.3,59.94021541117182,
,,,,46,0,46,0,,,,,,,,,,,,,,,,,,,,,,939.5250530000776,None,,,,,,,,,,,,,,,,,fellow,123,47,sing,new,null,938.3135521002114,None,938.3135521002114,None,6,0.5956892995163798,938.3135521002114,None,0.5956892995163798,938.9407587004825,None,939.4398773005232,None,939.4398773005232,None,r,0.061296699568629265,939.4398773005232,None,0.061296699568629265,,,84 Sing,001,2022_Nov_17_1025,ProdSingRedoBetween,2021.2.3,59.94021541117182,
,,,,47,0,47,0,,,,,,,,,,,,,,,,,,,,,,941.3586491998285,None,,,,,,,,,,,,,,,,,century,115,48,sing,new,null,940.0411446001381,None,940.0411446001381,None,6,0.6442313995212317,940.0411446001381,None,0.6442313995212317,940.7077323002741,None,941.2085215998814,None,941.2085215998814,None,r,0.13291609939187765,941.2085215998814,None,0.13291609939187765,,,84 Sing,001,2022_Nov_17_1025,ProdSingRedoBetween,2021.2.3,59.94021541117182,
,,,,48,0,48,0,,,,,,,,,,,,,,,,,,,,,,944.2281638002023,None,,,,,,,,,,,,,,,,,birth,143,49,sing,new,null,941.8661861000583,None,941.8661861000583,None,6,1.0590113000944257,941.8661861000583,None,1.0590113000944257,942.9542861999944,None,943.4608316998929,None,943.4608316998929,None,r,0.7525145998224616,943.4608316998929,None,0.7525145998224616,,,84 Sing,001,2022_Nov_17_1025,ProdSingRedoBetween,2021.2.3,59.94021541117182,
,,,,49,0,49,0,,,,,,,,,,,,,,,,,,,,,,945.8521838001907,None,,,,,,,,,,,,,,,,,nature,7,50,sing,old,yellow,944.7315367003903,None,944.7315367003903,None,6,0.4816988995298743,944.7315367003903,None,0.4816988995298743,945.2315718000755,None,945.7554328003898,None,945.7554328003898,None,r,0.07388979941606522,945.7554328003898,None,0.07388979941606522,,,84 Sing,001,2022_Nov_17_1025,ProdSingRedoBetween,2021.2.3,59.94021541117182,
,,,,50,0,50,0,,,,,,,,,,,,,,,,,,,,,,947.4866911005229,None,,,,,,,,,,,,,,,,,message,39,51,sing,old,blue,946.3666476998478,None,946.3666476998478,None,6,0.5026516001671553,946.3666476998478,None,0.5026516001671553,946.9001871002838,None,947.4203137001023,None,947.4203137001023,None,r,0.041155499406158924,947.4203137001023,None,0.041155499406158924,,,84 Sing,001,2022_Nov_17_1025,ProdSingRedoBetween,2021.2.3,59.94021541117182,
,,,,51,0,51,0,,,,,,,,,,,,,,,,,,,,,,949.1833420004696,None,,,,,,,,,,,,,,,,,sight,20,52,sing,old,yellow,948.0051019005477,None,948.0051019005477,None,6,0.48814240004867315,948.0051019005477,None,0.48814240004867315,948.5186975002289,None,949.032686800696,None,949.032686800696,None,r,0.13251660019159317,949.032686800696,None,0.13251660019159317,,,84 Sing,001,2022_Nov_17_1025,ProdSingRedoBetween,2021.2.3,59.94021541117182,
,,,,52,0,52,0,,,,,,,,,,,,,,,,,,,,,,950.767681600526,None,,,,,,,,,,,,,,,,,court,147,53,sing,new,null,949.6886299001053,None,949.6886299001053,None,6,0.4928901996463537,949.6886299001053,None,0.4928901996463537,950.2033334001899,None,950.7246667006984,None,950.7246667006984,None,r,0.016680999659001827,950.7246667006984,None,0.016680999659001827,,,84 Sing,001,2022_Nov_17_1025,ProdSingRedoBetween,2021.2.3,59.94021541117182,
,,,,53,0,53,0,,,,,,,,,,,,,,,,,,,,,,953.120209700428,None,,,,,,,,,,,,,,,,,nation,139,54,sing,new,null,951.2714822003618,None,951.2714822003618,None,6,0.48580450005829334,951.2714822003618,None,0.48580450005829334,951.7863501003012,None,952.2905835006386,None,952.2905835006386,None,r,0.8107678005471826,952.2905835006386,None,0.8107678005471826,,,84 Sing,001,2022_Nov_17_1025,ProdSingRedoBetween,2021.2.3,59.94021541117182,
,,,,54,0,54,0,,,,,,,,,,,,,,,,,,,,,,955.9230666002259,None,,,,,,,,,,,,,,,,,scene,117,55,sing,new,null,953.6253396002576,None,953.6253396002576,None,6,0.6039683995768428,953.6253396002576,None,0.6039683995768428,954.2603422002867,None,954.7720245998353,None,954.7720245998353,None,r,1.1212107008323073,954.7720245998353,None,1.1212107008323073,,,84 Sing,001,2022_Nov_17_1025,ProdSingRedoBetween,2021.2.3,59.94021541117182,
,,,,55,0,55,0,,,,,,,,,,,,,,,,,,,,,,957.6413679001853,None,,,,,,,,,,,,,,,,,management,129,56,sing,new,null,956.4289862001315,None,956.4289862001315,None,6,0.6161803994327784,956.4289862001315,None,0.6161803994327784,957.0817018998787,None,957.591494500637,None,957.591494500637,None,r,0.029854100197553635,957.591494500637,None,0.029854100197553635,,,84 Sing,001,2022_Nov_17_1025,ProdSingRedoBetween,2021.2.3,59.94021541117182,
,,,,56,0,56,0,,,,,,,,,,,,,,,,,,,,,,960.4277006005868,None,,,,,,,,,,,,,,,,,victory,79,57,sing,old,red,958.145537099801,None,958.145537099801,None,6,0.7796831000596285,958.145537099801,None,0.7796831000596285,958.9500350002199,None,959.4601330999285,None,959.4601330999285,None,r,0.9450336005538702,959.4601330999285,None,0.9450336005538702,,,84 Sing,001,2022_Nov_17_1025,ProdSingRedoBetween,2021.2.3,59.94021541117182,
,,,,57,0,57,0,,,,,,,,,,,,,,,,,,,,,,962.4795901998878,None,,,,,,,,,,,,,,,,,direction,131,58,sing,new,null,960.934714499861,None,960.934714499861,None,6,0.6705266004428267,960.934714499861,None,0.6705266004428267,961.6326473997906,None,962.145987899974,None,962.145987899974,None,r,0.30719050019979477,962.145987899974,None,0.30719050019979477,,,84 Sing,001,2022_Nov_17_1025,ProdSingRedoBetween,2021.2.3,59.94021541117182,
,,,,58,0,58,0,,,,,,,,,,,,,,,,,,,,,,964.2147295000032,None,,,,,,,,,,,,,,,,,enemy,99,59,sing,new,null,962.9825605005026,None,962.9825605005026,None,6,0.5026653995737433,962.9825605005026,None,0.5026653995737433,963.5152598004788,None,964.014674000442,None,964.014674000442,None,r,0.1746805002912879,964.014674000442,None,0.1746805002912879,,,84 Sing,001,2022_Nov_17_1025,ProdSingRedoBetween,2021.2.3,59.94021541117182,
,,,,59,0,59,0,,,,,,,,,,,,,,,,,,,,,,966.4503094004467,None,,,,,,,,,,,,,,,,,height,166,60,sing,new,null,964.7238539000973,None,964.7238539000973,None,6,0.41738349944353104,964.7238539000973,None,0.41738349944353104,965.17102540005,None,965.6842817999423,None,965.6842817999423,None,r,0.7449353002011776,965.6842817999423,None,0.7449353002011776,,,84 Sing,001,2022_Nov_17_1025,ProdSingRedoBetween,2021.2.3,59.94021541117182,
,,,,60,0,60,0,,,,,,,,,,,,,,,,,,,,,,968.7025482002646,None,,,,,,,,,,,,,,,,,dance,74,61,sing,old,red,966.9557953001931,None,966.9557953001931,None,6,0.4894040999934077,966.9557953001931,None,0.4894040999934077,967.4677840005606,None,967.9683186002076,None,967.9683186002076,None,r,0.716852200217545,967.9683186002076,None,0.716852200217545,,,84 Sing,001,2022_Nov_17_1025,ProdSingRedoBetween,2021.2.3,59.94021541117182,
,,,,61,0,61,0,,,,,,,,,,,,,,,,,,,,,,971.2383342999965,None,,,,,,,,,,,,,,,,,beginning,100,62,sing,new,null,969.2031163005158,None,969.2031163005158,None,6,0.7859928999096155,969.2031163005158,None,0.7859928999096155,970.0244642999023,None,970.5378539003432,None,970.5378539003432,None,r,0.6753585999831557,970.5378539003432,None,0.6753585999831557,,,84 Sing,001,2022_Nov_17_1025,ProdSingRedoBetween,2021.2.3,59.94021541117182,
,,,,62,0,62,0,,,,,,,,,,,,,,,,,,,,,,972.9401031006128,None,,,,,,,,,,,,,,,,,medicine,130,63,sing,new,null,971.7388336006552,None,971.7388336006552,None,6,0.6103849997743964,971.7388336006552,None,0.6103849997743964,972.3740213001147,None,972.8735071001574,None,972.8735071001574,None,r,0.03576610051095486,972.8735071001574,None,0.03576610051095486,,,84 Sing,001,2022_Nov_17_1025,ProdSingRedoBetween,2021.2.3,59.94021541117182,
,,,,63,0,63,0,,,,,,,,,,,,,,,,,,,,,,975.5426719002426,None,,,,,,,,,,,,,,,,,burden,149,64,sing,new,null,973.4498029006645,None,973.4498029006645,None,6,0.9073453992605209,973.4498029006645,None,0.9073453992605209,974.375989000313,None,974.8753837998956,None,974.8753837998956,None,r,0.6418400993570685,974.8753837998956,None,0.6418400993570685,,,84 Sing,001,2022_Nov_17_1025,ProdSingRedoBetween,2021.2.3,59.94021541117182,
,,,,64,0,64,0,,,,,,,,,,,,,,,,,,,,,,977.9449727004394,None,,,,,,,,,,,,,,,,,place,165,65,sing,new,null,976.0501824002713,None,976.0501824002713,None,6,0.44298289995640516,976.0501824002713,None,0.44298289995640516,976.5118359001353,None,977.0109637007117,None,977.0109637007117,None,r,0.906160400249064,977.0109637007117,None,0.906160400249064,,,84 Sing,001,2022_Nov_17_1025,ProdSingRedoBetween,2021.2.3,59.94021541117182,
,,,,65,0,65,0,,,,,,,,,,,,,,,,,,,,,,980.1201701005921,None,,,,,,,,,,,,,,,,,finance,78,66,sing,old,red,978.4472746998072,None,978.4472746998072,None,6,1.0459243999794126,978.4472746998072,None,1.0459243999794126,979.529712700285,None,980.0341792004183,None,980.0341792004183,None,r,0.05118680000305176,980.0341792004183,None,0.05118680000305176,,,84 Sing,001,2022_Nov_17_1025,ProdSingRedoBetween,2021.2.3,59.94021541117182,
,,,,66,0,66,0,,,,,,,,,,,,,,,,,,,,,,981.6655003000051,None,,,,,,,,,,,,,,,,,frank,150,67,sing,new,null,980.6434084000066,None,980.6434084000066,None,6,0.39370479993522167,980.6434084000066,None,0.39370479993522167,981.0655732005835,None,981.5653773006052,None,981.5653773006052,None,r,0.07186019979417324,981.5653773006052,None,0.07186019979417324,,,84 Sing,001,2022_Nov_17_1025,ProdSingRedoBetween,2021.2.3,59.94021541117182,
,,,,67,0,67,0,,,,,,,,,,,,,,,,,,,,,,984.9020151998848,None,,,,,,,,,,,,,,,,,cousin,178,68,sing,new,null,982.1709794001654,None,982.1709794001654,None,6,1.4502189997583628,982.1709794001654,None,1.4502189997583628,983.6506043998525,None,984.1513284007087,None,984.1513284007087,None,r,0.7338437000289559,984.1513284007087,None,0.7338437000289559,,,84 Sing,001,2022_Nov_17_1025,ProdSingRedoBetween,2021.2.3,59.94021541117182,
,,,,68,0,68,0,,,,,,,,,,,,,,,,,,,,,,987.1542754005641,None,,,,,,,,,,,,,,,,,foundation,63,69,sing,old,red,985.4089545002207,None,985.4089545002207,None,6,0.5002274001017213,985.4089545002207,None,0.5002274001017213,985.9403300005943,None,986.4571558004245,None,986.4571558004245,None,r,0.6760259997099638,986.4571558004245,None,0.6760259997099638,,,84 Sing,001,2022_Nov_17_1025,ProdSingRedoBetween,2021.2.3,59.94021541117182,
,,,,69,0,69,0,,,,,,,,,,,,,,,,,,,,,,989.4064894998446,None,,,,,,,,,,,,,,,,,payment,109,70,sing,new,null,987.6605763006955,None,987.6605763006955,None,6,0.6246241992339492,987.6605763006955,None,0.6246241992339492,988.308210500516,None,988.8239257000387,None,988.8239257000387,None,r,0.5653122002258897,988.8239257000387,None,0.5653122002258897,,,84 Sing,001,2022_Nov_17_1025,ProdSingRedoBetween,2021.2.3,59.94021541117182,
,,,,70,0,70,0,,,,,,,,,,,,,,,,,,,,,,991.060633700341,None,,,,,,,,,,,,,,,,,public,161,71,sing,new,null,989.9138067997992,None,989.9138067997992,None,6,0.48332410026341677,989.9138067997992,None,0.48332410026341677,990.4242516998202,None,990.9366640001535,None,990.9366640001535,None,r,0.09261040017008781,990.9366640001535,None,0.09261040017008781,,,84 Sing,001,2022_Nov_17_1025,ProdSingRedoBetween,2021.2.3,59.94021541117182,
,,,,71,0,71,0,,,,,,,,,,,,,,,,,,,,,,992.7097487002611,None,,,,,,,,,,,,,,,,,travel,6,72,sing,old,yellow,991.5926860999316,None,991.5926860999316,None,6,0.4844967992976308,991.5926860999316,None,0.4844967992976308,992.095631999895,None,992.6098517999053,None,992.6098517999053,None,r,0.07542619947344065,992.6098517999053,None,0.07542619947344065,,,84 Sing,001,2022_Nov_17_1025,ProdSingRedoBetween,2021.2.3,59.94021541117182,
,,,,72,0,72,0,,,,,,,,,,,,,,,,,,,,,,995.0129992002621,None,,,,,,,,,,,,,,,,,blind,37,73,sing,old,blue,993.218181299977,None,993.218181299977,None,6,0.4109960002824664,993.218181299977,None,0.4109960002824664,993.6453242003918,None,994.1447307998314,None,994.1447307998314,None,r,0.8364757997915149,994.1447307998314,None,0.8364757997915149,,,84 Sing,001,2022_Nov_17_1025,ProdSingRedoBetween,2021.2.3,59.94021541117182,
,,,,73,0,73,0,,,,,,,,,,,,,,,,,,,,,,996.8973556999117,None,,,,,,,,,,,,,,,,,election,46,74,sing,old,blue,995.5250228000805,None,995.5250228000805,None,6,0.4401654005050659,995.5250228000805,None,0.4401654005050659,995.9971631001681,None,996.4970850003883,None,996.4970850003883,None,r,0.3800998004153371,996.4970850003883,None,0.3800998004153371,,,84 Sing,001,2022_Nov_17_1025,ProdSingRedoBetween,2021.2.3,59.94021541117182,
,,,,74,0,74,0,,,,,,,,,,,,,,,,,,,,,,998.4986276999116,None,,,,,,,,,,,,,,,,,benefit,151,75,sing,new,null,997.4084080001339,None,997.4084080001339,None,6,0.33270629961043596,997.4084080001339,None,0.33270629961043596,997.76596670039,None,998.2650816002861,None,998.2650816002861,None,r,0.20401829946786165,998.2650816002861,None,0.20401829946786165,,,84 Sing,001,2022_Nov_17_1025,ProdSingRedoBetween,2021.2.3,59.94021541117182,
,,,,75,0,75,0,,,,,,,,,,,,,,,,,,,,,,1000.0501335002482,None,,,,,,,,,,,,,,,,,danger,137,76,sing,new,null,998.9994691004977,None,998.9994691004977,None,6,0.3736359002068639,998.9994691004977,None,0.3736359002068639,999.4052659999579,None,999.9168289005756,None,999.9168289005756,None,r,0.10423699952661991,999.9168289005756,None,0.10423699952661991,,,84 Sing,001,2022_Nov_17_1025,ProdSingRedoBetween,2021.2.3,59.94021541117182,
,,,,76,0,76,0,,,,,,,,,,,,,,,,,,,,,,1001.68827399984,None,,,,,,,,,,,,,,,,,employment,145,77,sing,new,null,1000.5611176006496,None,1000.5611176006496,None,6,0.532116400077939,1000.5611176006496,None,0.532116400077939,1001.1261499002576,None,1001.6355610005558,None,1001.6355610005558,None,r,0.03389259986579418,1001.6355610005558,None,0.03389259986579418,,,84 Sing,001,2022_Nov_17_1025,ProdSingRedoBetween,2021.2.3,59.94021541117182,
,,,,77,0,77,0,,,,,,,,,,,,,,,,,,,,,,1003.4535036999732,None,,,,,,,,,,,,,,,,,people,172,78,sing,new,null,1002.2039192002267,None,1002.2039192002267,None,6,0.5213098004460335,1002.2039192002267,None,0.5213098004460335,1002.7576991003007,None,1003.2703154003248,None,1003.2703154003248,None,r,0.16693089995533228,1003.2703154003248,None,0.16693089995533228,,,84 Sing,001,2022_Nov_17_1025,ProdSingRedoBetween,2021.2.3,59.94021541117182,
,,,,78,0,78,0,,,,,,,,,,,,,,,,,,,,,,1005.7894895002246,None,,,,,,,,,,,,,,,,,block,34,79,sing,old,blue,1003.9627588000149,None,1003.9627588000149,None,6,0.3625708995386958,1003.9627588000149,None,0.3625708995386958,1004.3609023001045,None,1004.8720524003729,None,1004.8720524003729,None,r,0.8931526998057961,1004.8720524003729,None,0.8931526998057961,,,84 Sing,001,2022_Nov_17_1025,ProdSingRedoBetween,2021.2.3,59.94021541117182,
,,,,79,0,79,0,,,,,,,,,,,,,,,,,,,,,,1008.2584522003308,None,,,,,,,,,,,,,,,,,front,0,80,sing,old,yellow,1006.2984747001901,None,1006.2984747001901,None,6,0.5868106996640563,1006.2984747001901,None,0.5868106996640563,1006.9106605006382,None,1007.4245531000197,None,1007.4245531000197,None,r,0.8125192997977138,1007.4245531000197,None,0.8125192997977138,,,84 Sing,001,2022_Nov_17_1025,ProdSingRedoBetween,2021.2.3,59.94021541117182,
,,,,80,0,80,0,,,,,,,,,,,,,,,,,,,,,,1011.0948184002191,None,,,,,,,,,,,,,,,,,majority,173,81,sing,new,null,1008.7625183006749,None,1008.7625183006749,None,6,1.7226248998194933,1008.7625183006749,None,1.7226248998194933,1010.5133175002411,None,1011.0281437998638,None,1011.0281437998638,None,r,0.048931799829006195,1011.0281437998638,None,0.048931799829006195,,,84 Sing,001,2022_Nov_17_1025,ProdSingRedoBetween,2021.2.3,59.94021541117182,
,,,,81,0,81,0,,,,,,,,,,,,,,,,,,,,,,1014.2478865003213,None,,,,,,,,,,,,,,,,,bucket,113,82,sing,new,null,1011.5967226000503,None,1011.5967226000503,None,6,0.760334599763155,1011.5967226000503,None,0.760334599763155,1012.3812338002026,None,1012.9052128000185,None,1012.9052128000185,None,r,1.3160226000472903,1012.9052128000185,None,1.3160226000472903,,,84 Sing,001,2022_Nov_17_1025,ProdSingRedoBetween,2021.2.3,59.94021541117182,
,,,,82,0,82,0,,,,,,,,,,,,,,,,,,,,,,1016.6003916999325,None,,,,,,,,,,,,,,,,,character,141,83,sing,new,null,1014.7594362003729,None,1014.7594362003729,None,6,0.6936940997838974,1014.7594362003729,None,0.6936940997838974,1015.4838343998417,None,1015.9868510998785,None,1015.9868510998785,None,r,0.5942773995921016,1015.9868510998785,None,0.5942773995921016,,,84 Sing,001,2022_Nov_17_1025,ProdSingRedoBetween,2021.2.3,59.94021541117182,
,,,,83,0,83,0,,,,,,,,,,,,,,,,,,,,,,1018.35290500056,None,,,,,,,,,,,,,,,,,quiet,162,84,sing,new,null,1017.1010249005631,None,1017.1010249005631,None,6,0.5201714998111129,1017.1010249005631,None,0.5201714998111129,1017.6533841006458,None,1018.1687153000385,None,1018.1687153000385,None,r,0.1565912002697587,1018.1687153000385,None,0.1565912002697587,,,84 Sing,001,2022_Nov_17_1025,ProdSingRedoBetween,2021.2.3,59.94021541117182,
,,,,84,0,84,0,,,,,,,,,,,,,,,,,,,,,,1020.0871440004557,None,,,,,,,,,,,,,,,,,strength,32,85,sing,old,blue,1018.8594570001587,None,1018.8594570001587,None,6,0.609514799900353,1018.8594570001587,None,0.609514799900353,1019.4964367002249,None,1020.0038772001863,None,1020.0038772001863,None,r,0.06524769961833954,1020.0038772001863,None,0.06524769961833954,,,84 Sing,001,2022_Nov_17_1025,ProdSingRedoBetween,2021.2.3,59.94021541117182,
,,,,85,0,85,0,,,,,,,,,,,,,,,,,,,,,,1021.8555183000863,None,,,,,,,,,,,,,,,,,broke,31,86,sing,old,blue,1020.5887830005959,None,1020.5887830005959,None,6,0.5363631006330252,1020.5887830005959,None,0.5363631006330252,1021.1653586002067,None,1021.6721419002861,None,1021.6721419002861,None,r,0.1649668999016285,1021.6721419002861,None,0.1649668999016285,,,84 Sing,001,2022_Nov_17_1025,ProdSingRedoBetween,2021.2.3,59.94021541117182,
,,,,86,0,86,0,,,,,,,,,,,,,,,,,,,,,,1024.0243073003367,None,,,,,,,,,,,,,,,,,waste,51,87,sing,old,blue,1022.3560979003087,None,1022.3560979003087,None,6,0.4011268001049757,1022.3560979003087,None,0.4011268001049757,1022.7894034003839,None,1023.2903818003833,None,1023.2903818003833,None,r,0.7066772002726793,1023.2903818003833,None,0.7066772002726793,,,84 Sing,001,2022_Nov_17_1025,ProdSingRedoBetween,2021.2.3,59.94021541117182,
,,,,87,0,87,0,,,,,,,,,,,,,,,,,,,,,,1025.6759368004277,None,,,,,,,,,,,,,,,,,suspect,38,88,sing,old,blue,1024.5307694002986,None,1024.5307694002986,None,6,0.5063583999872208,1024.5307694002986,None,0.5063583999872208,1025.0609912006184,None,1025.5760980006307,None,1025.5760980006307,None,r,0.07709159981459379,1025.5760980006307,None,0.07709159981459379,,,84 Sing,001,2022_Nov_17_1025,ProdSingRedoBetween,2021.2.3,59.94021541117182,
,,,,88,0,88,0,,,,,,,,,,,,,,,,,,,,,,1027.2622258001938,None,,,,,,,,,,,,,,,,,personnel,110,89,sing,new,null,1026.1799913998693,None,1026.1799913998693,None,6,0.4012866001576185,1026.1799913998693,None,0.4012866001576185,1026.6181458998471,None,1027.1400268003345,None,1027.1400268003345,None,r,0.0972820995375514,1027.1400268003345,None,0.0972820995375514,,,84 Sing,001,2022_Nov_17_1025,ProdSingRedoBetween,2021.2.3,59.94021541117182,
,,,,89,0,89,0,,,,,,,,,,,,,,,,,,,,,,1028.8790266001597,None,,,,,,,,,,,,,,,,,error,27,90,sing,old,yellow,1027.7613243004307,None,1027.7613243004307,None,6,0.4599239993840456,1027.7613243004307,None,0.4599239993840456,1028.2478184998035,None,1028.764042899944,None,1028.764042899944,None,r,0.08908960036933422,1028.764042899944,None,0.08908960036933422,,,84 Sing,001,2022_Nov_17_1025,ProdSingRedoBetween,2021.2.3,59.94021541117182,
,,,,90,0,90,0,,,,,,,,,,,,,,,,,,,,,,1030.5141179002821,None,,,,,,,,,,,,,,,,,machinery,148,91,sing,new,null,1029.3854338005185,None,1029.3854338005185,None,6,0.5075563006103039,1029.3854338005185,None,0.5075563006103039,1029.9138005999848,None,1030.4142267005518,None,1030.4142267005518,None,r,0.07095339987426996,1030.4142267005518,None,0.07095339987426996,,,84 Sing,001,2022_Nov_17_1025,ProdSingRedoBetween,2021.2.3,59.94021541117182,
,,,,91,0,91,0,,,,,,,,,,,,,,,,,,,,,,1031.9989179000258,None,,,,,,,,,,,,,,,,,republic,112,92,sing,new,null,1031.0156592000276,None,1031.0156592000276,None,6,0.3895781999453902,1031.0156592000276,None,0.3895781999453902,1031.43265660014,None,1031.936642500572,None,1031.936642500572,None,r,0.03636389970779419,1031.936642500572,None,0.03636389970779419,,,84 Sing,001,2022_Nov_17_1025,ProdSingRedoBetween,2021.2.3,59.94021541117182,
,,,,92,0,92,0,,,,,,,,,,,,,,,,,,,,,,1033.433730499819,None,,,,,,,,,,,,,,,,,expansion,56,93,sing,old,blue,1032.509095900692,None,1032.509095900692,None,6,0.3281561005860567,1032.509095900692,None,0.3281561005860567,1032.8665676005185,None,1033.3671359000728,None,1033.3671359000728,None,r,0.045992299914360046,1033.3671359000728,None,0.045992299914360046,,,84 Sing,001,2022_Nov_17_1025,ProdSingRedoBetween,2021.2.3,59.94021541117182,
,,,,93,0,93,0,,,,,,,,,,,,,,,,,,,,,,1034.8685288000852,None,,,,,,,,,,,,,,,,,quarter,36,94,sing,old,blue,1033.9359606001526,None,1033.9359606001526,None,6,0.2932732002809644,1033.9359606001526,None,0.2932732002809644,1034.252732200548,None,1034.7519860006869,None,1034.7519860006869,None,r,0.09317369945347309,1034.7519860006869,None,0.09317369945347309,,,84 Sing,001,2022_Nov_17_1025,ProdSingRedoBetween,2021.2.3,59.94021541117182,
,,,,94,0,94,0,,,,,,,,,,,,,,,,,,,,,,1036.152938700281,None,,,,,,,,,,,,,,,,,bitter,2,95,sing,old,yellow,1035.3834938006476,None,1035.3834938006476,None,6,0.19770419970154762,1035.3834938006476,None,0.19770419970154762,1035.6040658000857,None,1036.1031415006146,None,1036.1031415006146,None,r,0.030039699748158455,1036.1031415006146,None,0.030039699748158455,,,84 Sing,001,2022_Nov_17_1025,ProdSingRedoBetween,2021.2.3,59.94021541117182,
,,,,95,0,95,0,,,,,,,,,,,,,,,,,,,,,,1038.2218396002427,None,,,,,,,,,,,,,,,,,speech,23,96,sing,old,yellow,1036.6639638002962,None,1036.6639638002962,None,6,0.1252113999798894,1036.6639638002962,None,0.1252113999798894,1036.8215078003705,None,1037.321047800593,None,1037.321047800593,None,r,0.8840885004028678,1037.321047800593,None,0.8840885004028678,,,84 Sing,001,2022_Nov_17_1025,ProdSingRedoBetween,2021.2.3,59.94021541117182,
,,,,96,0,96,0,,,,,,,,,,,,,,,,,,,,,,1040.257202600129,None,,,,,,,,,,,,,,,,,universal,35,97,sing,old,blue,1038.7304798001423,None,1038.7304798001423,None,6,0.29866879992187023,1038.7304798001423,None,0.29866879992187023,1039.0659987004474,None,1039.5796837005764,None,1039.5796837005764,None,r,0.6493729995563626,1039.5796837005764,None,0.6493729995563626,,,84 Sing,001,2022_Nov_17_1025,ProdSingRedoBetween,2021.2.3,59.94021541117182,
,,,,97,0,97,0,,,,,,,,,,,,,,,,,,,,,,1042.3092172006145,None,,,,,,,,,,,,,,,,,corner,174,98,sing,new,null,1040.757567900233,None,1040.757567900233,None,6,0.311535800807178,1040.757567900233,None,0.311535800807178,1041.0939759006724,None,1041.6086515998468,None,1041.6086515998468,None,r,0.6844874005764723,1041.6086515998468,None,0.6844874005764723,,,84 Sing,001,2022_Nov_17_1025,ProdSingRedoBetween,2021.2.3,59.94021541117182,
,,,,98,0,98,0,,,,,,,,,,,,,,,,,,,,,,1044.1944564003497,None,,,,,,,,,,,,,,,,,judge,155,99,sing,new,null,1042.8098259000108,None,1042.8098259000108,None,6,0.30734239984303713,1042.8098259000108,None,0.30734239984303713,1043.1450345003977,None,1043.660707800649,None,1043.660707800649,None,r,0.5043797995895147,1043.660707800649,None,0.5043797995895147,,,84 Sing,001,2022_Nov_17_1025,ProdSingRedoBetween,2021.2.3,59.94021541117182,
,,,,99,0,99,0,,,,,,,,,,,,,,,,,,,,,,1045.7292558001354,None,,,,,,,,,,,,,,,,,state,105,100,sing,new,null,1044.7052108002827,None,1044.7052108002827,None,6,0.363845600746572,1044.7052108002827,None,0.363845600746572,1045.096901600249,None,1045.6020018002018,None,1045.6020018002018,None,r,0.09914909955114126,1045.6020018002018,None,0.09914909955114126,,,84 Sing,001,2022_Nov_17_1025,ProdSingRedoBetween,2021.2.3,59.94021541117182,
,,,,100,0,100,0,,,,,,,,,,,,,,,,,,,,,,1047.2141431001946,None,,,,,,,,,,,,,,,,,member,13,101,sing,old,yellow,1046.2344200005755,None,1046.2344200005755,None,6,0.386782499961555,1046.2344200005755,None,0.386782499961555,1046.6534689003602,None,1047.165856800042,None,1047.165856800042,None,r,0.03117549978196621,1047.165856800042,None,0.03117549978196621,,,84 Sing,001,2022_Nov_17_1025,ProdSingRedoBetween,2021.2.3,59.94021541117182,
,,,,101,0,101,0,,,,,,,,,,,,,,,,,,,,,,1049.1019106004387,None,,,,,,,,,,,,,,,,,finish,136,102,sing,new,null,1047.7236191006377,None,1047.7236191006377,None,6,0.6334706004709005,1047.7236191006377,None,0.6334706004709005,1048.3850202001631,None,1048.8992904005572,None,1048.8992904005572,None,r,0.1701496997848153,1048.8992904005572,None,0.1701496997848153,,,84 Sing,001,2022_Nov_17_1025,ProdSingRedoBetween,2021.2.3,59.94021541117182,
,,,,102,0,102,0,,,,,,,,,,,,,,,,,,,,,,1051.3849274003878,None,,,,,,,,,,,,,,,,,tennis,159,103,sing,new,null,1049.6193805001676,None,1049.6193805001676,None,6,0.9136525001376867,1049.6193805001676,None,0.9136525001376867,1050.552749400027,None,1051.0743326004595,None,1051.0743326004595,None,r,0.2827093992382288,1051.0743326004595,None,0.2827093992382288,,,84 Sing,001,2022_Nov_17_1025,ProdSingRedoBetween,2021.2.3,59.94021541117182,
,,,,103,0,103,0,,,,,,,,,,,,,,,,,,,,,,1053.8541080001742,None,,,,,,,,,,,,,,,,,disease,55,104,sing,old,blue,1051.8900859002024,None,1051.8900859002024,None,6,1.0830245995894074,1051.8900859002024,None,1.0830245995894074,1053.0071748998016,None,1053.5364538999274,None,1053.5364538999274,None,r,0.2926718005910516,1053.5364538999274,None,0.2926718005910516,,,84 Sing,001,2022_Nov_17_1025,ProdSingRedoBetween,2021.2.3,59.94021541117182,
,,,,104,0,104,0,,,,,,,,,,,,,,,,,,,,,,1055.5890286006033,None,,,,,,,,,,,,,,,,,hearing,67,105,sing,old,red,1054.3641252005473,None,1054.3641252005473,None,6,0.5850029997527599,1054.3641252005473,None,0.5850029997527599,1054.9754626005888,None,1055.4904861999676,None,1055.4904861999676,None,r,0.08279730007052422,1055.4904861999676,None,0.08279730007052422,,,84 Sing,001,2022_Nov_17_1025,ProdSingRedoBetween,2021.2.3,59.94021541117182,
,,,,105,0,105,0,,,,,,,,,,,,,,,,,,,,,,1057.4243168001994,None,,,,,,,,,,,,,,,,,trail,29,106,sing,old,blue,1056.0909429006279,None,1056.0909429006279,None,6,0.5061511993408203,1056.0909429006279,None,0.5061511993408203,1056.625394999981,None,1057.1408152999356,None,1057.1408152999356,None,r,0.25626999977976084,1057.1408152999356,None,0.25626999977976084,,,84 Sing,001,2022_Nov_17_1025,ProdSingRedoBetween,2021.2.3,59.94021541117182,
,,,,106,0,106,0,,,,,,,,,,,,,,,,,,,,,,1059.9598691007122,None,,,,,,,,,,,,,,,,,addition,97,107,sing,new,null,1057.9267447004095,None,1057.9267447004095,None,6,1.2382078999653459,1057.9267447004095,None,1.2382078999653459,1059.203377100639,None,1059.7098082005978,None,1059.7098082005978,None,r,0.22316049970686436,1059.7098082005978,None,0.22316049970686436,,,84 Sing,001,2022_Nov_17_1025,ProdSingRedoBetween,2021.2.3,59.94021541117182,
,,,,107,0,107,0,,,,,,,,,,,,,,,,,,,,,,1061.9470277000219,None,,,,,,,,,,,,,,,,,territory,61,108,sing,old,red,1060.4605820002034,None,1060.4605820002034,None,6,0.6963745001703501,1060.4605820002034,None,0.6963745001703501,1061.1778680002317,None,1061.6863501006737,None,1061.6863501006737,None,r,0.2307922998443246,1061.6863501006737,None,0.2307922998443246,,,84 Sing,001,2022_Nov_17_1025,ProdSingRedoBetween,2021.2.3,59.94021541117182,
,,,,108,0,108,0,,,,,,,,,,,,,,,,,,,,,,1064.1320534003899,None,,,,,,,,,,,,,,,,,figure,50,109,sing,old,blue,1062.449373099953,None,1062.449373099953,None,6,0.8357650004327297,1062.449373099953,None,0.8357650004327297,1063.3198052998632,None,1063.8340312000364,None,1063.8340312000364,None,r,0.2672511003911495,1063.8340312000364,None,0.2672511003911495,,,84 Sing,001,2022_Nov_17_1025,ProdSingRedoBetween,2021.2.3,59.94021541117182,
,,,,109,0,109,0,,,,,,,,,,,,,,,,,,,,,,1066.1175017999485,None,,,,,,,,,,,,,,,,,estate,83,110,sing,old,red,1064.640762399882,None,1064.640762399882,None,6,0.6602732995525002,1064.640762399882,None,0.6602732995525002,1065.33897920046,None,1065.8495427006856,None,1065.8495427006856,None,r,0.25156120024621487,1065.8495427006856,None,0.25156120024621487,,,84 Sing,001,2022_Nov_17_1025,ProdSingRedoBetween,2021.2.3,59.94021541117182,
,,,,110,0,110,0,,,,,,,,,,,,,,,,,,,,,,1067.8514624005184,None,,,,,,,,,,,,,,,,,style,4,111,sing,old,yellow,1066.6207138001919,None,1066.6207138001919,None,6,0.5845039002597332,1066.6207138001919,None,0.5845039002597332,1067.242144100368,None,1067.7571114003658,None,1067.7571114003658,None,r,0.06401309929788113,1067.7571114003658,None,0.06401309929788113,,,84 Sing,001,2022_Nov_17_1025,ProdSingRedoBetween,2021.2.3,59.94021541117182,
,,,,111,0,111,0,,,,,,,,,,,,,,,,,,,,,,1070.4039179002866,None,,,,,,,,,,,,,,,,,industry,18,112,sing,old,yellow,1068.363380100578,None,1068.363380100578,None,6,0.64166159927845,1068.363380100578,None,0.64166159927845,1069.0378507003188,None,1069.5531772999093,None,1069.5531772999093,None,r,0.8359548998996615,1069.5531772999093,None,0.8359548998996615,,,84 Sing,001,2022_Nov_17_1025,ProdSingRedoBetween,2021.2.3,59.94021541117182,
,,,,112,0,112,0,,,,,,,,,,,,,,,,,,,,,,1072.7229342004284,None,,,,,,,,,,,,,,,,,childhood,91,113,sing,new,null,1070.9140622001141,None,1070.9140622001141,None,6,0.8830971997231245,1070.9140622001141,None,0.8830971997231245,1071.834004400298,None,1072.3415828002617,None,1072.3415828002617,None,r,0.3594955001026392,1072.3415828002617,None,0.3594955001026392,,,84 Sing,001,2022_Nov_17_1025,ProdSingRedoBetween,2021.2.3,59.94021541117182,
,,,,113,0,113,0,,,,,,,,,,,,,,,,,,,,,,1074.6414603004232,None,,,,,,,,,,,,,,,,,impact,120,114,sing,new,null,1073.234973100014,None,1073.234973100014,None,6,0.530095899477601,1073.234973100014,None,0.530095899477601,1073.7948933001608,None,1074.307984500192,None,1074.307984500192,None,r,0.30509489960968494,1074.307984500192,None,0.30509489960968494,,,84 Sing,001,2022_Nov_17_1025,ProdSingRedoBetween,2021.2.3,59.94021541117182,
,,,,114,0,114,0,,,,,,,,,,,,,,,,,,,,,,1076.4786335006356,None,,,,,,,,,,,,,,,,,center,92,115,sing,new,null,1075.1492364006117,None,1075.1492364006117,None,6,0.511714200489223,1075.1492364006117,None,0.511714200489223,1075.6925754006952,None,1076.1955206999555,None,1076.1955206999555,None,r,0.2655322998762131,1076.1955206999555,None,0.2655322998762131,,,84 Sing,001,2022_Nov_17_1025,ProdSingRedoBetween,2021.2.3,59.94021541117182,
,,,,115,0,115,0,,,,,,,,,,,,,,,,,,,,,,1078.1783854998648,None,,,,,,,,,,,,,,,,,hunger,116,116,sing,new,null,1076.9988389005885,None,1076.9988389005885,None,6,0.4062013002112508,1076.9988389005885,None,0.4062013002112508,1077.4287955006585,None,1077.9283386003226,None,1077.9283386003226,None,r,0.2287042997777462,1077.9283386003226,None,0.2287042997777462,,,84 Sing,001,2022_Nov_17_1025,ProdSingRedoBetween,2021.2.3,59.94021541117182,
,,,,116,0,116,0,,,,,,,,,,,,,,,,,,,,,,1079.646489799954,None,,,,,,,,,,,,,,,,,session,15,117,sing,old,yellow,1078.6856133006513,None,1078.6856133006513,None,6,0.23150109965354204,1078.6856133006513,None,0.23150109965354204,1078.95129000023,None,1079.4630931001157,None,1079.4630931001157,None,r,0.15806179959326982,1079.4630931001157,None,0.15806179959326982,,,84 Sing,001,2022_Nov_17_1025,ProdSingRedoBetween,2021.2.3,59.94021541117182,
,,,,117,0,117,0,,,,,,,,,,,,,,,,,,,,,,1081.1162400003523,None,,,,,,,,,,,,,,,,,taste,42,118,sing,old,blue,1080.1506762998179,None,1080.1506762998179,None,6,0.3584257001057267,1080.1506762998179,None,0.3584257001057267,1080.5376660004258,None,1081.0516197998077,None,1081.0516197998077,None,r,0.03345309942960739,1081.0516197998077,None,0.03345309942960739,,,84 Sing,001,2022_Nov_17_1025,ProdSingRedoBetween,2021.2.3,59.94021541117182,
,,,,118,0,118,0,,,,,,,,,,,,,,,,,,,,,,1082.565865800716,None,,,,,,,,,,,,,,,,,bureau,171,119,sing,new,null,1081.6225824002177,None,1081.6225824002177,None,6,0.3423601994290948,1081.6225824002177,None,0.3423601994290948,1081.98529420048,None,1082.4993687998503,None,1082.4993687998503,None,r,0.041558099910616875,1082.4993687998503,None,0.041558099910616875,,,84 Sing,001,2022_Nov_17_1025,ProdSingRedoBetween,2021.2.3,59.94021541117182,
,,,,119,0,119,0,,,,,,,,,,,,,,,,,,,,,,1084.2034376999363,None,,,,,,,,,,,,,,,,,straight,88,120,sing,old,red,1083.0664303004742,None,1083.0664303004742,None,6,0.4985827999189496,1083.0664303004742,None,0.4985827999189496,1083.5949595998973,None,1084.1092164004222,None,1084.1092164004222,None,r,0.0640513002872467,1084.1092164004222,None,0.0640513002872467,,,84 Sing,001,2022_Nov_17_1025,ProdSingRedoBetween,2021.2.3,59.94021541117182,
,,,,120,0,120,0,,,,,,,,,,,,,,,,,,,,,,1085.6533877002075,None,,,,,,,,,,,,,,,,,quantity,157,121,sing,new,null,1084.7195862000808,None,1084.7195862000808,None,6,0.31747830007225275,1084.7195862000808,None,0.31747830007225275,1085.0560135999694,None,1085.5691480999812,None,1085.5691480999812,None,r,0.059888700023293495,1085.5691480999812,None,0.059888700023293495,,,84 Sing,001,2022_Nov_17_1025,ProdSingRedoBetween,2021.2.3,59.94021541117182,
,,,,121,0,121,0,,,,,,,,,,,,,,,,,,,,,,1087.1564207999036,None,,,,,,,,,,,,,,,,,school,118,122,sing,new,null,1086.1651758998632,None,1086.1651758998632,None,6,0.31986149959266186,1086.1651758998632,None,0.31986149959266186,1086.5086024003103,None,1087.0210158005357,None,1087.0210158005357,None,r,0.10409319959580898,1087.0210158005357,None,0.10409319959580898,,,84 Sing,001,2022_Nov_17_1025,ProdSingRedoBetween,2021.2.3,59.94021541117182,
,,,,122,0,122,0,,,,,,,,,,,,,,,,,,,,,,1088.8222941001877,None,,,,,,,,,,,,,,,,,background,59,123,sing,old,yellow,1087.6757265999913,None,1087.6757265999913,None,6,0.2973082000389695,1087.6757265999913,None,0.2973082000389695,1087.989911600016,None,1088.5054181003943,None,1088.5054181003943,None,r,0.2995565002784133,1088.5054181003943,None,0.2995565002784133,,,84 Sing,001,2022_Nov_17_1025,ProdSingRedoBetween,2021.2.3,59.94021541117182,
,,,,123,0,123,0,,,,,,,,,,,,,,,,,,,,,,1090.590520400554,None,,,,,,,,,,,,,,,,,thing,122,124,sing,new,null,1089.3240528004244,None,1089.3240528004244,None,6,0.5448687002062798,1089.3240528004244,None,0.5448687002062798,1089.889852900058,None,1090.3905653003603,None,1090.3905653003603,None,r,0.1824906999245286,1090.3905653003603,None,0.1824906999245286,,,84 Sing,001,2022_Nov_17_1025,ProdSingRedoBetween,2021.2.3,59.94021541117182,
,,,,124,0,124,0,,,,,,,,,,,,,,,,,,,,,,1092.2089944006875,None,,,,,,,,,,,,,,,,,symbol,5,125,sing,old,yellow,1091.0913375997916,None,1091.0913375997916,None,6,0.4016426997259259,1091.0913375997916,None,0.4016426997259259,1091.508167900145,None,1092.0089402003214,None,1092.0089402003214,None,r,0.1721312003210187,1092.0089402003214,None,0.1721312003210187,,,84 Sing,001,2022_Nov_17_1025,ProdSingRedoBetween,2021.2.3,59.94021541117182,
,,,,125,0,125,0,,,,,,,,,,,,,,,,,,,,,,1093.6963996998966,None,,,,,,,,,,,,,,,,,generation,28,126,sing,old,yellow,1092.7178704002872,None,1092.7178704002872,None,6,0.3110897997394204,1092.7178704002872,None,0.3110897997394204,1093.0611629998311,None,1093.5621800003573,None,1093.5621800003573,None,r,0.10702760051935911,1093.5621800003573,None,0.10702760051935911,,,84 Sing,001,2022_Nov_17_1025,ProdSingRedoBetween,2021.2.3,59.94021541117182,
,,,,126,0,126,0,,,,,,,,,,,,,,,,,,,,,,1095.4177450006828,None,,,,,,,,,,,,,,,,,owner,98,127,sing,new,null,1094.2170633003116,None,1094.2170633003116,None,6,0.4678459009155631,1094.2170633003116,None,0.4678459009155631,1094.7126091001555,None,1095.21822720021,None,1095.21822720021,None,r,0.17893840000033379,1095.21822720021,None,0.17893840000033379,,,84 Sing,001,2022_Nov_17_1025,ProdSingRedoBetween,2021.2.3,59.94021541117182,
,,,,127,0,127,0,,,,,,,,,,,,,,,,,,,,,,1097.0472265006974,None,,,,,,,,,,,,,,,,,audience,21,128,sing,old,yellow,1095.9331509005278,None,1095.9331509005278,None,6,0.34396199975162745,1095.9331509005278,None,0.34396199975162745,1096.297504500486,None,1096.7996343998238,None,1096.7996343998238,None,r,0.22930470015853643,1096.7996343998238,None,0.22930470015853643,,,84 Sing,001,2022_Nov_17_1025,ProdSingRedoBetween,2021.2.3,59.94021541117182,
,,,,128,0,128,0,,,,,,,,,,,,,,,,,,,,,,1098.4151824004948,None,,,,,,,,,,,,,,,,,display,72,129,sing,old,red,1097.5563411004841,None,1097.5563411004841,None,6,0.240356900729239,1097.5563411004841,None,0.240356900729239,1097.8177060000598,None,1098.3341302005574,None,1098.3341302005574,None,r,0.05499560013413429,1098.3341302005574,None,0.05499560013413429,,,84 Sing,001,2022_Nov_17_1025,ProdSingRedoBetween,2021.2.3,59.94021541117182,
,,,,129,0,129,0,,,,,,,,,,,,,,,,,,,,,,1100.6507451999933,None,,,,,,,,,,,,,,,,,resistance,104,130,sing,new,null,1098.9224153002724,None,1098.9224153002724,None,6,0.3146128002554178,1098.9224153002724,None,0.3146128002554178,1099.2694257004187,None,1099.7832308001816,None,1099.7832308001816,None,r,0.8377775000408292,1099.7832308001816,None,0.8377775000408292,,,84 Sing,001,2022_Nov_17_1025,ProdSingRedoBetween,2021.2.3,59.94021541117182,
,,,,130,0,130,0,,,,,,,,,,,,,,,,,,,,,,1102.8701052004471,None,,,,,,,,,,,,,,,,,service,3,131,sing,old,yellow,1101.1633772002533,None,1101.1633772002533,None,6,0.5776853002607822,1101.1633772002533,None,0.5776853002607822,1101.7802632004023,None,1102.2914955001324,None,1102.2914955001324,None,r,0.5534025998786092,1102.2914955001324,None,0.5534025998786092,,,84 Sing,001,2022_Nov_17_1025,ProdSingRedoBetween,2021.2.3,59.94021541117182,
,,,,131,0,131,0,,,,,,,,,,,,,,,,,,,,,,1104.588036400266,None,,,,,,,,,,,,,,,,,notice,144,132,sing,new,null,1103.3707878002897,None,1103.3707878002897,None,6,0.3622198002412915,1103.3707878002897,None,0.3622198002412915,1103.7564408006147,None,1104.2754063000903,None,1104.2754063000903,None,r,0.28167560044676065,1104.2754063000903,None,0.28167560044676065,,,84 Sing,001,2022_Nov_17_1025,ProdSingRedoBetween,2021.2.3,59.94021541117182,
,,,,132,0,132,0,,,,,,,,,,,,,,,,,,,,,,1106.375262000598,None,,,,,,,,,,,,,,,,,threat,133,133,sing,new,null,1105.0892860004678,None,1105.0892860004678,None,6,0.499626100063324,1105.0892860004678,None,0.499626100063324,1105.605773200281,None,1106.1120541999117,None,1106.1120541999117,None,r,0.24483320023864508,1106.1120541999117,None,0.24483320023864508,,,84 Sing,001,2022_Nov_17_1025,ProdSingRedoBetween,2021.2.3,59.94021541117182,
,,,,133,0,133,0,,,,,,,,,,,,,,,,,,,,,,1108.2917619999498,None,,,,,,,,,,,,,,,,,provision,101,134,sing,new,null,1106.9044960997999,None,1106.9044960997999,None,6,0.3005194002762437,1106.9044960997999,None,0.3005194002762437,1107.2307502003387,None,1107.7413006005809,None,1107.7413006005809,None,r,0.5196413993835449,1107.7413006005809,None,0.5196413993835449,,,84 Sing,001,2022_Nov_17_1025,ProdSingRedoBetween,2021.2.3,59.94021541117182,
,,,,134,0,134,0,,,,,,,,,,,,,,,,,,,,,,1112.4291358999908,None,,,,,,,,,,,,,,,,,executive,47,135,sing,old,blue,1108.8004841003567,None,1108.8004841003567,None,6,2.8284339997917414,1108.8004841003567,None,2.8284339997917414,1111.6499011004344,None,1112.162315200083,None,1112.162315200083,None,r,0.2506154999136925,1112.162315200083,None,0.2506154999136925,,,84 Sing,001,2022_Nov_17_1025,ProdSingRedoBetween,2021.2.3,59.94021541117182,
,,,,135,0,135,0,,,,,,,,,,,,,,,,,,,,,,1115.9331071004272,None,,,,,,,,,,,,,,,,,native,41,136,sing,old,blue,1112.937937100418,None,1112.937937100418,None,6,1.6270636999979615,1112.937937100418,None,1.6270636999979615,1114.5845234999433,None,1115.099428200163,None,1115.099428200163,None,r,0.8175211995840073,1115.099428200163,None,0.8175211995840073,,,84 Sing,001,2022_Nov_17_1025,ProdSingRedoBetween,2021.2.3,59.94021541117182,
,,,,136,0,136,0,,,,,,,,,,,,,,,,,,,,,,1117.8938543004915,None,,,,,,,,,,,,,,,,,balance,14,137,sing,old,yellow,1116.4393278006464,None,1116.4393278006464,None,6,0.9015493998304009,1116.4393278006464,None,0.9015493998304009,1117.3684050999582,None,1117.8733942005783,None,1117.8733942005783,None,r,0.0038385000079870224,1117.8733942005783,None,0.0038385000079870224,,,84 Sing,001,2022_Nov_17_1025,ProdSingRedoBetween,2021.2.3,59.94021541117182,
,,,,137,0,137,0,,,,,,,,,,,,,,,,,,,,,,1119.5719778006896,None,,,,,,,,,,,,,,,,,comfort,87,138,sing,old,red,1118.4050904000178,None,1118.4050904000178,None,6,0.5598835004493594,1118.4050904000178,None,0.5598835004493594,1118.987448000349,None,1119.5028964001685,None,1119.5028964001685,None,r,0.045999099500477314,1119.5028964001685,None,0.045999099500477314,,,84 Sing,001,2022_Nov_17_1025,ProdSingRedoBetween,2021.2.3,59.94021541117182,
,,,,138,0,138,0,,,,,,,,,,,,,,,,,,,,,,1122.1722819004208,None,,,,,,,,,,,,,,,,,interview,76,139,sing,old,red,1120.0867400001734,None,1120.0867400001734,None,6,0.54227240011096,1120.0867400001734,None,0.54227240011096,1120.6543498001993,None,1121.161423300393,None,1121.161423300393,None,r,0.9956168998032808,1121.161423300393,None,0.9956168998032808,,,84 Sing,001,2022_Nov_17_1025,ProdSingRedoBetween,2021.2.3,59.94021541117182,
,,,,139,0,139,0,,,,,,,,,,,,,,,,,,,,,,1124.3578860005364,None,,,,,,,,,,,,,,,,,subject,119,140,sing,new,null,1122.6812379006296,None,1122.6812379006296,None,6,0.5158273996785283,1122.6812379006296,None,0.5158273996785283,1123.2382379006594,None,1123.74063950032,None,1123.74063950032,None,r,0.5923858005553484,1123.74063950032,None,0.5923858005553484,,,84 Sing,001,2022_Nov_17_1025,ProdSingRedoBetween,2021.2.3,59.94021541117182,
,,,,140,0,140,0,,,,,,,,,,,,,,,,,,,,,,1126.1428618002683,None,,,,,,,,,,,,,,,,,mayor,44,141,sing,old,blue,1124.8582722004503,None,1124.8582722004503,None,6,0.48264880012720823,1124.8582722004503,None,0.48264880012720823,1125.3595767002553,None,1125.8689684998244,None,1125.8689684998244,None,r,0.2480726996436715,1125.8689684998244,None,0.2480726996436715,,,84 Sing,001,2022_Nov_17_1025,ProdSingRedoBetween,2021.2.3,59.94021541117182,
,,,,141,0,141,0,,,,,,,,,,,,,,,,,,,,,,1127.7778734005988,None,,,,,,,,,,,,,,,,,brief,22,142,sing,old,yellow,1126.6468398002908,None,1126.6468398002908,None,6,0.5021454999223351,1126.6468398002908,None,0.5021454999223351,1127.1791992001235,None,1127.6945487000048,None,1127.6945487000048,None,r,0.06240200065076351,1127.6945487000048,None,0.06240200065076351,,,84 Sing,001,2022_Nov_17_1025,ProdSingRedoBetween,2021.2.3,59.94021541117182,
,,,,142,0,142,0,,,,,,,,,,,,,,,,,,,,,,1129.8799625001848,None,,,,,,,,,,,,,,,,,discussion,65,143,sing,old,red,1128.2828707005829,None,1128.2828707005829,None,6,0.746118700131774,1128.2828707005829,None,0.746118700131774,1129.0477907005697,None,1129.5630598003045,None,1129.5630598003045,None,r,0.2898086002096534,1129.5630598003045,None,0.2898086002096534,,,84 Sing,001,2022_Nov_17_1025,ProdSingRedoBetween,2021.2.3,59.94021541117182,
,,,,143,0,143,0,,,,,,,,,,,,,,,,,,,,,,1131.6176839005202,None,,,,,,,,,,,,,,,,,population,52,144,sing,old,blue,1130.3950396999717,None,1130.3950396999717,None,6,0.48197720013558865,1130.3950396999717,None,0.48197720013558865,1130.8990516001359,None,1131.4024296002463,None,1131.4024296002463,None,r,0.19458059966564178,1131.4024296002463,None,0.19458059966564178,,,84 Sing,001,2022_Nov_17_1025,ProdSingRedoBetween,2021.2.3,59.94021541117182,
,,,,144,0,144,0,,,,,,,,,,,,,,,,,,,,,,1133.2667284999043,None,,,,,,,,,,,,,,,,,device,86,145,sing,old,red,1132.1370494998991,None,1132.1370494998991,None,6,0.5079001998528838,1132.1370494998991,None,0.5079001998528838,1132.6701827999204,None,1133.1833051005378,None,1133.1833051005378,None,r,0.061702500097453594,1133.1833051005378,None,0.061702500097453594,,,84 Sing,001,2022_Nov_17_1025,ProdSingRedoBetween,2021.2.3,59.94021541117182,
,,,,145,0,145,0,,,,,,,,,,,,,,,,,,,,,,1134.9183867005631,None,,,,,,,,,,,,,,,,,religion,121,146,sing,new,null,1133.7704100003466,None,1133.7704100003466,None,6,0.5464627994224429,1133.7704100003466,None,0.5464627994224429,1134.335340199992,None,1134.840613500215,None,1134.840613500215,None,r,0.05236450023949146,1134.840613500215,None,0.05236450023949146,,,84 Sing,001,2022_Nov_17_1025,ProdSingRedoBetween,2021.2.3,59.94021541117182,
,,,,146,0,146,0,,,,,,,,,,,,,,,,,,,,,,1136.6200211998075,None,,,,,,,,,,,,,,,,,military,30,147,sing,old,blue,1135.4218148998916,None,1135.4218148998916,None,6,0.47103080060333014,1135.4218148998916,None,0.47103080060333014,1135.9201139006764,None,1136.4268428003415,None,1136.4268428003415,None,r,0.17008459940552711,1136.4268428003415,None,0.17008459940552711,,,84 Sing,001,2022_Nov_17_1025,ProdSingRedoBetween,2021.2.3,59.94021541117182,
,,,,147,0,147,0,,,,,,,,,,,,,,,,,,,,,,1138.9721594005823,None,,,,,,,,,,,,,,,,,thick,127,148,sing,new,null,1137.1312167001888,None,1137.1312167001888,None,6,0.9858275996521115,1137.1312167001888,None,0.9858275996521115,1138.1411330001429,None,1138.6560070998967,None,1138.6560070998967,None,r,0.2849494004622102,1138.6560070998967,None,0.2849494004622102,,,84 Sing,001,2022_Nov_17_1025,ProdSingRedoBetween,2021.2.3,59.94021541117182,
,,,,148,0,148,0,,,,,,,,,,,,,,,,,,,,,,1140.8408797997981,None,,,,,,,,,,,,,,,,,relation,103,149,sing,new,null,1139.4774222001433,None,1139.4774222001433,None,6,0.535534399561584,1139.4774222001433,None,0.535534399561584,1140.0483918003738,None,1140.5573407998309,None,1140.5573407998309,None,r,0.2555384002625942,1140.5573407998309,None,0.2555384002625942,,,84 Sing,001,2022_Nov_17_1025,ProdSingRedoBetween,2021.2.3,59.94021541117182,
,,,,149,0,149,0,,,,,,,,,,,,,,,,,,,,,,1142.5926314005628,None,,,,,,,,,,,,,,,,,poetry,8,150,sing,old,yellow,1141.3491185000166,None,1141.3491185000166,None,6,0.39986429922282696,1141.3491185000166,None,0.39986429922282696,1141.777519600466,None,1142.2924674004316,None,1142.2924674004316,None,r,0.2804992999881506,1142.2924674004316,None,0.2804992999881506,,,84 Sing,001,2022_Nov_17_1025,ProdSingRedoBetween,2021.2.3,59.94021541117182,
,,,,150,0,150,0,,,,,,,,,,,,,,,,,,,,,,1144.328979300335,None,,,,,,,,,,,,,,,,,course,16,151,sing,old,yellow,1143.1027458999306,None,1143.1027458999306,None,6,0.422137800604105,1143.1027458999306,None,0.422137800604105,1143.5458105001599,None,1144.0606542006135,None,1144.0606542006135,None,r,0.24015089962631464,1144.0606542006135,None,0.24015089962631464,,,84 Sing,001,2022_Nov_17_1025,ProdSingRedoBetween,2021.2.3,59.94021541117182,
,,,,151,0,151,0,,,,,,,,,,,,,,,,,,,,,,1146.296420100145,None,,,,,,,,,,,,,,,,,second,53,152,sing,old,blue,1144.8454999998212,None,1144.8454999998212,None,6,0.4233202002942562,1144.8454999998212,None,0.4233202002942562,1145.2970646005124,None,1145.7959572002292,None,1145.7959572002292,None,r,0.481071500107646,1145.7959572002292,None,0.481071500107646,,,84 Sing,001,2022_Nov_17_1025,ProdSingRedoBetween,2021.2.3,59.94021541117182,
,,,,152,0,152,0,,,,,,,,,,,,,,,,,,,,,,1148.231564800255,None,,,,,,,,,,,,,,,,,chief,135,153,sing,new,null,1146.8056824002415,None,1146.8056824002415,None,6,0.5672495998442173,1146.8056824002415,None,0.5672495998442173,1147.3977716006339,None,1147.8980625998229,None,1147.8980625998229,None,r,0.314907499589026,1147.8980625998229,None,0.314907499589026,,,84 Sing,001,2022_Nov_17_1025,ProdSingRedoBetween,2021.2.3,59.94021541117182,
,,,,153,0,153,0,,,,,,,,,,,,,,,,,,,,,,1150.1167988004163,None,,,,,,,,,,,,,,,,,broad,94,154,sing,new,null,1148.7369686998427,None,1148.7369686998427,None,6,0.5318248998373747,1148.7369686998427,None,0.5318248998373747,1149.2991019003093,None,1149.7997986003757,None,1149.7997986003757,None,r,0.30101099982857704,1149.7997986003757,None,0.30101099982857704,,,84 Sing,001,2022_Nov_17_1025,ProdSingRedoBetween,2021.2.3,59.94021541117182,
,,,,154,0,154,0,,,,,,,,,,,,,,,,,,,,,,1152.2522675003856,None,,,,,,,,,,,,,,,,,stranger,95,155,sing,new,null,1150.6171644004062,None,1150.6171644004062,None,6,0.43571409955620766,1150.6171644004062,None,0.43571409955620766,1151.0852673007175,None,1151.5902233999223,None,1151.5902233999223,None,r,0.6307707000523806,1151.5902233999223,None,0.6307707000523806,,,84 Sing,001,2022_Nov_17_1025,ProdSingRedoBetween,2021.2.3,59.94021541117182,
,,,,155,0,155,0,,,,,,,,,,,,,,,,,,,,,,1154.4377038003877,None,,,,,,,,,,,,,,,,,murder,111,156,sing,new,null,1152.7612391998991,None,1152.7612391998991,None,6,0.7398846996948123,1152.7612391998991,None,0.7398846996948123,1153.5283968001604,None,1154.0372494002804,None,1154.0372494002804,None,r,0.3836294999346137,1154.0372494002804,None,0.3836294999346137,,,84 Sing,001,2022_Nov_17_1025,ProdSingRedoBetween,2021.2.3,59.94021541117182,
,,,,156,0,156,0,,,,,,,,,,,,,,,,,,,,,,1156.4230692004785,None,,,,,,,,,,,,,,,,,level,60,157,sing,old,red,1154.9455297999084,None,1154.9455297999084,None,6,0.5394253004342318,1154.9455297999084,None,0.5394253004342318,1155.509885800071,None,1156.022876800038,None,1156.022876800038,None,r,0.3820048002526164,1156.022876800038,None,0.3820048002526164,,,84 Sing,001,2022_Nov_17_1025,ProdSingRedoBetween,2021.2.3,59.94021541117182,
,,,,157,0,157,0,,,,,,,,,,,,,,,,,,,,,,1158.3416084004566,None,,,,,,,,,,,,,,,,,music,62,158,sing,old,red,1156.9348031003028,None,1156.9348031003028,None,6,0.47013270016759634,1156.9348031003028,None,0.47013270016759634,1157.4289922006428,None,1157.9413745999336,None,1157.9413745999336,None,r,0.37568429950624704,1157.9413745999336,None,0.37568429950624704,,,84 Sing,001,2022_Nov_17_1025,ProdSingRedoBetween,2021.2.3,59.94021541117182,
,,,,158,0,158,0,,,,,,,,,,,,,,,,,,,,,,1161.0276429001242,None,,,,,,,,,,,,,,,,,mechanical,142,159,sing,new,null,1158.846176000312,None,1158.846176000312,None,6,1.3427520003169775,1158.846176000312,None,1.3427520003169775,1160.2132500000298,None,1160.732842899859,None,1160.732842899859,None,r,0.2720729000866413,1160.732842899859,None,0.2720729000866413,,,84 Sing,001,2022_Nov_17_1025,ProdSingRedoBetween,2021.2.3,59.94021541117182,
,,,,159,0,159,0,,,,,,,,,,,,,,,,,,,,,,1163.0296523002908,None,,,,,,,,,,,,,,,,,group,84,160,sing,old,red,1161.541679999791,None,1161.541679999791,None,6,0.5191856995224953,1161.541679999791,None,0.5191856995224953,1162.0792148001492,None,1162.5824186000973,None,1162.5824186000973,None,r,0.42245110031217337,1162.5824186000973,None,0.42245110031217337,,,84 Sing,001,2022_Nov_17_1025,ProdSingRedoBetween,2021.2.3,59.94021541117182,
,,,,160,0,160,0,,,,,,,,,,,,,,,,,,,,,,1164.9187449999154,None,,,,,,,,,,,,,,,,,search,17,161,sing,old,yellow,1163.5364757003263,None,1163.5364757003263,None,6,0.4204128999263048,1163.5364757003263,None,0.4204128999263048,1163.981967200525,None,1164.4853675998747,None,1164.4853675998747,None,r,0.407668299973011,1164.4853675998747,None,0.407668299973011,,,84 Sing,001,2022_Nov_17_1025,ProdSingRedoBetween,2021.2.3,59.94021541117182,
,,,,161,0,161,0,,,,,,,,,,,,,,,,,,,,,,1167.3672519000247,None,,,,,,,,,,,,,,,,,solution,153,162,sing,new,null,1165.437362600118,None,1165.437362600118,None,6,0.7356281001120806,1165.437362600118,None,0.7356281001120806,1166.2073881998658,None,1166.7256300002337,None,1166.7256300002337,None,r,0.6151640005409718,1166.7256300002337,None,0.6151640005409718,,,84 Sing,001,2022_Nov_17_1025,ProdSingRedoBetween,2021.2.3,59.94021541117182,
,,,,162,0,162,0,,,,,,,,,,,,,,,,,,,,,,1169.2195226000622,None,,,,,,,,,,,,,,,,,shape,102,163,sing,new,null,1167.8753665005788,None,1167.8753665005788,None,6,0.5295225000008941,1167.8753665005788,None,0.5295225000008941,1168.4361052000895,None,1168.9411356002092,None,1168.9411356002092,None,r,0.2557209003716707,1168.9411356002092,None,0.2557209003716707,,,84 Sing,001,2022_Nov_17_1025,ProdSingRedoBetween,2021.2.3,59.94021541117182,
,,,,163,0,163,0,,,,,,,,,,,,,,,,,,,,,,1171.0710711004212,None,,,,,,,,,,,,,,,,,emergency,73,164,sing,old,red,1169.7207304006442,None,1169.7207304006442,None,6,0.516105399467051,1169.7207304006442,None,0.516105399467051,1170.2553978003561,None,1170.77679659985,None,1170.77679659985,None,r,0.27606549952179193,1170.77679659985,None,0.27606549952179193,,,84 Sing,001,2022_Nov_17_1025,ProdSingRedoBetween,2021.2.3,59.94021541117182,
,,,,164,0,164,0,,,,,,,,,,,,,,,,,,,,,,1172.9061294998974,None,,,,,,,,,,,,,,,,,voice,81,165,sing,old,red,1171.581915100105,None,1171.581915100105,None,6,0.38305249996483326,1171.581915100105,None,0.38305249996483326,1171.9897268004715,None,1172.4940232001245,None,1172.4940232001245,None,r,0.3909448003396392,1172.4940232001245,None,0.3909448003396392,,,84 Sing,001,2022_Nov_17_1025,ProdSingRedoBetween,2021.2.3,59.94021541117182,
,,,,165,0,165,0,,,,,,,,,,,,,,,,,,,,,,1174.7747905002907,None,,,,,,,,,,,,,,,,,alert,70,166,sing,old,red,1173.4171126000583,None,1173.4171126000583,None,6,0.4997449992224574,1173.4171126000583,None,0.4997449992224574,1173.940318199806,None,1174.4411411006004,None,1174.4411411006004,None,r,0.30780860036611557,1174.4411411006004,None,0.30780860036611557,,,84 Sing,001,2022_Nov_17_1025,ProdSingRedoBetween,2021.2.3,59.94021541117182,
,,,,166,0,166,0,,,,,,,,,,,,,,,,,,,,,,1177.1271219002083,None,,,,,,,,,,,,,,,,,sound,177,167,sing,new,null,1175.2833210006356,None,1175.2833210006356,None,6,0.3856118004769087,1175.2833210006356,None,0.3856118004769087,1175.7006227001548,None,1176.2097420003265,None,1176.2097420003265,None,r,0.8990812003612518,1176.2097420003265,None,0.8990812003612518,,,84 Sing,001,2022_Nov_17_1025,ProdSingRedoBetween,2021.2.3,59.94021541117182,
,,,,167,0,167,0,,,,,,,,,,,,,,,,,,,,,,1178.962196700275,None,,,,,,,,,,,,,,,,,defeat,71,168,sing,old,red,1177.63032440003,None,1177.63032440003,None,6,0.5505573004484177,1177.63032440003,None,0.5505573004484177,1178.2123520998284,None,1178.7182084005326,None,1178.7182084005326,None,r,0.22265820018947124,1178.7182084005326,None,0.22265820018947124,,,84 Sing,001,2022_Nov_17_1025,ProdSingRedoBetween,2021.2.3,59.94021541117182,
,,,,168,0,168,0,,,,,,,,,,,,,,,,,,,,,,1181.0309095000848,None,,,,,,,,,,,,,,,,,atmosphere,77,169,sing,old,red,1179.469371800311,None,1179.469371800311,None,6,0.6633827006444335,1179.469371800311,None,0.6633827006444335,1180.1697204001248,None,1180.680765800178,None,1180.680765800178,None,r,0.3321850001811981,1180.680765800178,None,0.3321850001811981,,,84 Sing,001,2022_Nov_17_1025,ProdSingRedoBetween,2021.2.3,59.94021541117182,
,,,,169,0,169,0,,,,,,,,,,,,,,,,,,,,,,1182.8661476001143,None,,,,,,,,,,,,,,,,,agency,124,170,sing,new,null,1181.5494394004345,None,1181.5494394004345,None,6,0.47945400048047304,1181.5494394004345,None,0.47945400048047304,1182.0500458003953,None,1182.549225400202,None,1182.549225400202,None,r,0.287686500698328,1182.549225400202,None,0.287686500698328,,,84 Sing,001,2022_Nov_17_1025,ProdSingRedoBetween,2021.2.3,59.94021541117182,
,,,,170,0,170,0,,,,,,,,,,,,,,,,,,,,,,1185.0015249000862,None,,,,,,,,,,,,,,,,,breath,176,171,sing,new,null,1183.3760045003146,None,1183.3760045003146,None,6,0.7089542001485825,1183.3760045003146,None,0.7089542001485825,1184.100411400199,None,1184.610590800643,None,1184.610590800643,None,r,0.37029309943318367,1184.610590800643,None,0.37029309943318367,,,84 Sing,001,2022_Nov_17_1025,ProdSingRedoBetween,2021.2.3,59.94021541117182,
,,,,171,0,171,0,,,,,,,,,,,,,,,,,,,,,,1187.1371090002358,None,,,,,,,,,,,,,,,,,minute,164,172,sing,new,null,1185.5065745003521,None,1185.5065745003521,None,6,0.7622549002990127,1185.5065745003521,None,0.7622549002990127,1186.2885565999895,None,1186.8035302003846,None,1186.8035302003846,None,r,0.3132277000695467,1186.8035302003846,None,0.3132277000695467,,,84 Sing,001,2022_Nov_17_1025,ProdSingRedoBetween,2021.2.3,59.94021541117182,
,,,,172,0,172,0,,,,,,,,,,,,,,,,,,,,,,1189.5060841003433,None,,,,,,,,,,,,,,,,,attack,163,173,sing,new,null,1187.6464529000223,None,1187.6464529000223,None,6,0.8703883001580834,1187.6464529000223,None,0.8703883001580834,1188.5397200006992,None,1189.0391335999593,None,1189.0391335999593,None,r,0.43774399999529123,1189.0391335999593,None,0.43774399999529123,,,84 Sing,001,2022_Nov_17_1025,ProdSingRedoBetween,2021.2.3,59.94021541117182,
,,,,173,0,173,0,,,,,,,,,,,,,,,,,,,,,,1191.541471700184,None,,,,,,,,,,,,,,,,,country,66,174,sing,old,red,1190.0104055004194,None,1190.0104055004194,None,6,0.6985748996958137,1190.0104055004194,None,0.6985748996958137,1190.73321400024,None,1191.243277899921,None,1191.243277899921,None,r,0.27356410026550293,1191.243277899921,None,0.27356410026550293,,,84 Sing,001,2022_Nov_17_1025,ProdSingRedoBetween,2021.2.3,59.94021541117182,
,,,,174,0,174,0,,,,,,,,,,,,,,,,,,,,,,1193.8661195999011,None,,,,,,,,,,,,,,,,,couch,80,175,sing,old,red,1192.0446120006964,None,1192.0446120006964,None,6,0.9762263996526599,1192.0446120006964,None,0.9762263996526599,1193.045121400617,None,1193.5601826002821,None,1193.5601826002821,None,r,0.28479270078241825,1193.5601826002821,None,0.28479270078241825,,,84 Sing,001,2022_Nov_17_1025,ProdSingRedoBetween,2021.2.3,59.94021541117182,
,,,,175,0,175,0,,,,,,,,,,,,,,,,,,,,,,1195.831908499822,None,,,,,,,,,,,,,,,,,incident,48,176,sing,old,blue,1194.3808197006583,None,1194.3808197006583,None,6,0.6401426000520587,1194.3808197006583,None,0.6401426000520587,1195.04731670022,None,1195.5622797003016,None,1195.5622797003016,None,r,0.2505412995815277,1195.5622797003016,None,0.2505412995815277,,,84 Sing,001,2022_Nov_17_1025,ProdSingRedoBetween,2021.2.3,59.94021541117182,
,,,,176,0,176,0,,,,,,,,,,,,,,,,,,,,,,1197.6642254004255,None,,,,,,,,,,,,,,,,,reach,146,177,sing,new,null,1196.351785200648,None,1196.351785200648,None,6,0.5009906999766827,1196.351785200648,None,0.5009906999766827,1196.880759300664,None,1197.3844731999561,None,1197.3844731999561,None,r,0.25228390004485846,1197.3844731999561,None,0.25228390004485846,,,84 Sing,001,2022_Nov_17_1025,ProdSingRedoBetween,2021.2.3,59.94021541117182,
