StudyLoop.thisRepN,StudyLoop.thisTrialN,StudyLoop.thisN,StudyLoop.thisIndex,TestLoop.thisRepN,TestLoop.thisTrialN,TestLoop.thisN,TestLoop.thisIndex,textCondition.started,textCondition.stopped,keyCondition.keys,keyCondition.rt,keyCondition.started,keyCondition.stopped,Condition,textWelcome.started,textWelcome.stopped,keyWelcome.keys,keyWelcome.rt,keyWelcome.started,keyWelcome.stopped,textAloud.started,textAloud.stopped,textSilent.started,textSilent.stopped,textSing.started,textSing.stopped,conditional_text.started,conditional_text.stopped,textBlank500.started,textBlank500.stopped,study_word,study_num,study_order,study_type,word_color,textStudy.started,textStudy.stopped,keyStudy.keys,keyStudy.started,keyStudy.stopped,textTestInstructions.started,textTestInstructions.stopped,key_resp_3.keys,key_resp_3.rt,key_resp_3.started,key_resp_3.stopped,test_word,test_num,test_order,test_condition,old_new_test,test_word_original_color,textConf.started,textConf.stopped,textConfScale.started,textConfScale.stopped,keyConf.keys,keyConf.rt,keyConf.started,keyConf.stopped,confidence response time,textTestBlank.started,textTestBlank.stopped,textRKN.started,textRKN.stopped,textRKNScale.started,textRKNScale.stopped,keyRKN.keys,keyRKN.rt,keyRKN.started,keyRKN.stopped,rkn response time,textEnd.started,textEnd.stopped,participant,session,date,expName,psychopyVersion,frameRate,
,,,,,,,,22.65832579974085,None,a,3.0287394002079964,22.65832579974085,None,,,,,,,,,,,,,,,,,,,,,,,,,,,,,,,,,,,,,,,,,,,,,,,,,,,,,,,,,,,,,,85 Silent,001,2022_Nov_17_1047,ProdSingRedoBetween,2021.2.3,60.40226702924166,
,,,,,,,,,,,,,,SilentTest,25.7651920998469,None,space,1068.6076817000285,25.7651920998469,None,,,,,,,,,,,,,,,,,,,,,,,,,,,,,,,,,,,,,,,,,,,,,,,,,,,,,,,85 Silent,001,2022_Nov_17_1047,ProdSingRedoBetween,2021.2.3,60.40226702924166,
0,0,0,0,,,,,,,,,,,,,,,,,,25.7651920998469,None,25.7651920998469,None,25.7651920998469,None,25.7651920998469,None,1096.9169584996998,None,crime,87,1,silent,red,1094.9025338003412,None,None,1094.9025338003412,None,,,,,,,,,,,,,,,,,,,,,,,,,,,,,,,,,,,85 Silent,001,2022_Nov_17_1047,ProdSingRedoBetween,2021.2.3,60.40226702924166,
1,0,1,0,,,,,,,,,,,,,,,,,,,,,,,,,,1099.4194318000227,None,audience,77,2,silent,red,1097.4198562996462,None,None,1097.4198562996462,None,,,,,,,,,,,,,,,,,,,,,,,,,,,,,,,,,,,85 Silent,001,2022_Nov_17_1047,ProdSingRedoBetween,2021.2.3,60.40226702924166,
2,0,2,0,,,,,,,,,,,,,,,,,,,,,,,,,,1101.938515899703,None,society,56,3,silent,blue,1099.9239822998643,None,None,1099.9239822998643,None,,,,,,,,,,,,,,,,,,,,,,,,,,,,,,,,,,,85 Silent,001,2022_Nov_17_1047,ProdSingRedoBetween,2021.2.3,60.40226702924166,
3,0,3,0,,,,,,,,,,,,,,,,,,,,,,,,,,1104.4578559994698,None,point,21,4,silent,yellow,1102.454067800194,None,None,1102.454067800194,None,,,,,,,,,,,,,,,,,,,,,,,,,,,,,,,,,,,85 Silent,001,2022_Nov_17_1047,ProdSingRedoBetween,2021.2.3,60.40226702924166,
4,0,4,0,,,,,,,,,,,,,,,,,,,,,,,,,,1106.9768211003393,None,ground,23,5,silent,yellow,1104.9620123002678,None,None,1104.9620123002678,None,,,,,,,,,,,,,,,,,,,,,,,,,,,,,,,,,,,85 Silent,001,2022_Nov_17_1047,ProdSingRedoBetween,2021.2.3,60.40226702924166,
5,0,5,0,,,,,,,,,,,,,,,,,,,,,,,,,,1109.4792638001963,None,disease,64,6,silent,red,1107.4798946995288,None,None,1107.4798946995288,None,,,,,,,,,,,,,,,,,,,,,,,,,,,,,,,,,,,85 Silent,001,2022_Nov_17_1047,ProdSingRedoBetween,2021.2.3,60.40226702924166,
6,0,6,0,,,,,,,,,,,,,,,,,,,,,,,,,,1111.981579899788,None,agency,17,7,silent,yellow,1109.9807363003492,None,None,1109.9807363003492,None,,,,,,,,,,,,,,,,,,,,,,,,,,,,,,,,,,,85 Silent,001,2022_Nov_17_1047,ProdSingRedoBetween,2021.2.3,60.40226702924166,
7,0,7,0,,,,,,,,,,,,,,,,,,,,,,,,,,1114.4844329003245,None,message,58,8,silent,blue,1112.4834436001256,None,None,1112.4834436001256,None,,,,,,,,,,,,,,,,,,,,,,,,,,,,,,,,,,,85 Silent,001,2022_Nov_17_1047,ProdSingRedoBetween,2021.2.3,60.40226702924166,
8,0,8,0,,,,,,,,,,,,,,,,,,,,,,,,,,1117.0035985996947,None,measure,10,9,silent,yellow,1114.9882730999961,None,None,1114.9882730999961,None,,,,,,,,,,,,,,,,,,,,,,,,,,,,,,,,,,,85 Silent,001,2022_Nov_17_1047,ProdSingRedoBetween,2021.2.3,60.40226702924166,
9,0,9,0,,,,,,,,,,,,,,,,,,,,,,,,,,1119.5060601001605,None,force,68,10,silent,red,1117.5041562998667,None,None,1117.5041562998667,None,,,,,,,,,,,,,,,,,,,,,,,,,,,,,,,,,,,85 Silent,001,2022_Nov_17_1047,ProdSingRedoBetween,2021.2.3,60.40226702924166,
10,0,10,0,,,,,,,,,,,,,,,,,,,,,,,,,,1122.0084282997996,None,vision,34,11,silent,blue,1120.006540399976,None,None,1120.006540399976,None,,,,,,,,,,,,,,,,,,,,,,,,,,,,,,,,,,,85 Silent,001,2022_Nov_17_1047,ProdSingRedoBetween,2021.2.3,60.40226702924166,
11,0,11,0,,,,,,,,,,,,,,,,,,,,,,,,,,1124.5111490003765,None,guest,69,12,silent,red,1122.512267800048,None,None,1122.512267800048,None,,,,,,,,,,,,,,,,,,,,,,,,,,,,,,,,,,,85 Silent,001,2022_Nov_17_1047,ProdSingRedoBetween,2021.2.3,60.40226702924166,
12,0,12,0,,,,,,,,,,,,,,,,,,,,,,,,,,1127.030207999982,None,accident,81,13,silent,red,1125.0155822997913,None,None,1125.0155822997913,None,,,,,,,,,,,,,,,,,,,,,,,,,,,,,,,,,,,85 Silent,001,2022_Nov_17_1047,ProdSingRedoBetween,2021.2.3,60.40226702924166,
13,0,13,0,,,,,,,,,,,,,,,,,,,,,,,,,,1129.549229199998,None,personnel,51,14,silent,blue,1127.5417798003182,None,None,1127.5417798003182,None,,,,,,,,,,,,,,,,,,,,,,,,,,,,,,,,,,,85 Silent,001,2022_Nov_17_1047,ProdSingRedoBetween,2021.2.3,60.40226702924166,
14,0,14,0,,,,,,,,,,,,,,,,,,,,,,,,,,1132.0519409999251,None,population,83,15,silent,red,1130.0496856998652,None,None,1130.0496856998652,None,,,,,,,,,,,,,,,,,,,,,,,,,,,,,,,,,,,85 Silent,001,2022_Nov_17_1047,ProdSingRedoBetween,2021.2.3,60.40226702924166,
15,0,15,0,,,,,,,,,,,,,,,,,,,,,,,,,,1134.5547259002924,None,style,74,16,silent,red,1132.5538296001032,None,None,1132.5538296001032,None,,,,,,,,,,,,,,,,,,,,,,,,,,,,,,,,,,,85 Silent,001,2022_Nov_17_1047,ProdSingRedoBetween,2021.2.3,60.40226702924166,
16,0,16,0,,,,,,,,,,,,,,,,,,,,,,,,,,1137.0734941000119,None,portion,84,17,silent,red,1135.0704956995323,None,None,1135.0704956995323,None,,,,,,,,,,,,,,,,,,,,,,,,,,,,,,,,,,,85 Silent,001,2022_Nov_17_1047,ProdSingRedoBetween,2021.2.3,60.40226702924166,
17,0,17,0,,,,,,,,,,,,,,,,,,,,,,,,,,1139.5760490000248,None,husband,9,18,silent,yellow,1137.5769966999069,None,None,1137.5769966999069,None,,,,,,,,,,,,,,,,,,,,,,,,,,,,,,,,,,,85 Silent,001,2022_Nov_17_1047,ProdSingRedoBetween,2021.2.3,60.40226702924166,
18,0,18,0,,,,,,,,,,,,,,,,,,,,,,,,,,1142.0949445003644,None,region,72,19,silent,red,1140.0811433997005,None,None,1140.0811433997005,None,,,,,,,,,,,,,,,,,,,,,,,,,,,,,,,,,,,85 Silent,001,2022_Nov_17_1047,ProdSingRedoBetween,2021.2.3,60.40226702924166,
19,0,19,0,,,,,,,,,,,,,,,,,,,,,,,,,,1144.5978081002831,None,background,42,20,silent,blue,1142.5954820998013,None,None,1142.5954820998013,None,,,,,,,,,,,,,,,,,,,,,,,,,,,,,,,,,,,85 Silent,001,2022_Nov_17_1047,ProdSingRedoBetween,2021.2.3,60.40226702924166,
20,0,20,0,,,,,,,,,,,,,,,,,,,,,,,,,,1147.1167548000813,None,thick,71,21,silent,red,1145.1126929996535,None,None,1145.1126929996535,None,,,,,,,,,,,,,,,,,,,,,,,,,,,,,,,,,,,85 Silent,001,2022_Nov_17_1047,ProdSingRedoBetween,2021.2.3,60.40226702924166,
21,0,21,0,,,,,,,,,,,,,,,,,,,,,,,,,,1149.6194887999445,None,tough,29,22,silent,blue,1147.6173841999844,None,None,1147.6173841999844,None,,,,,,,,,,,,,,,,,,,,,,,,,,,,,,,,,,,85 Silent,001,2022_Nov_17_1047,ProdSingRedoBetween,2021.2.3,60.40226702924166,
22,0,22,0,,,,,,,,,,,,,,,,,,,,,,,,,,1152.1384407002479,None,sound,43,23,silent,blue,1150.1241461001337,None,None,1150.1241461001337,None,,,,,,,,,,,,,,,,,,,,,,,,,,,,,,,,,,,85 Silent,001,2022_Nov_17_1047,ProdSingRedoBetween,2021.2.3,60.40226702924166,
23,0,23,0,,,,,,,,,,,,,,,,,,,,,,,,,,1154.6410940000787,None,school,80,24,silent,red,1152.6390722002834,None,None,1152.6390722002834,None,,,,,,,,,,,,,,,,,,,,,,,,,,,,,,,,,,,85 Silent,001,2022_Nov_17_1047,ProdSingRedoBetween,2021.2.3,60.40226702924166,
24,0,24,0,,,,,,,,,,,,,,,,,,,,,,,,,,1157.160318300128,None,stranger,66,25,silent,red,1155.1535593001172,None,None,1155.1535593001172,None,,,,,,,,,,,,,,,,,,,,,,,,,,,,,,,,,,,85 Silent,001,2022_Nov_17_1047,ProdSingRedoBetween,2021.2.3,60.40226702924166,
25,0,25,0,,,,,,,,,,,,,,,,,,,,,,,,,,1159.6624526996166,None,direction,39,26,silent,blue,1157.6623026002198,None,None,1157.6623026002198,None,,,,,,,,,,,,,,,,,,,,,,,,,,,,,,,,,,,85 Silent,001,2022_Nov_17_1047,ProdSingRedoBetween,2021.2.3,60.40226702924166,
26,0,26,0,,,,,,,,,,,,,,,,,,,,,,,,,,1162.181980700232,None,poetry,85,27,silent,red,1160.173000799492,None,None,1160.173000799492,None,,,,,,,,,,,,,,,,,,,,,,,,,,,,,,,,,,,85 Silent,001,2022_Nov_17_1047,ProdSingRedoBetween,2021.2.3,60.40226702924166,
27,0,27,0,,,,,,,,,,,,,,,,,,,,,,,,,,1164.6891200002283,None,frank,27,28,silent,yellow,1162.6847826000303,None,None,1162.6847826000303,None,,,,,,,,,,,,,,,,,,,,,,,,,,,,,,,,,,,85 Silent,001,2022_Nov_17_1047,ProdSingRedoBetween,2021.2.3,60.40226702924166,
28,0,28,0,,,,,,,,,,,,,,,,,,,,,,,,,,1167.220445299521,None,broad,4,29,silent,yellow,1165.210830600001,None,None,1165.210830600001,None,,,,,,,,,,,,,,,,,,,,,,,,,,,,,,,,,,,85 Silent,001,2022_Nov_17_1047,ProdSingRedoBetween,2021.2.3,60.40226702924166,
29,0,29,0,,,,,,,,,,,,,,,,,,,,,,,,,,1169.739470699802,None,candidate,24,30,silent,yellow,1167.727882400155,None,None,1167.727882400155,None,,,,,,,,,,,,,,,,,,,,,,,,,,,,,,,,,,,85 Silent,001,2022_Nov_17_1047,ProdSingRedoBetween,2021.2.3,60.40226702924166,
30,0,30,0,,,,,,,,,,,,,,,,,,,,,,,,,,1172.2584908995777,None,front,14,31,silent,yellow,1170.2506063999608,None,None,1170.2506063999608,None,,,,,,,,,,,,,,,,,,,,,,,,,,,,,,,,,,,85 Silent,001,2022_Nov_17_1047,ProdSingRedoBetween,2021.2.3,60.40226702924166,
31,0,31,0,,,,,,,,,,,,,,,,,,,,,,,,,,1174.7620304999873,None,industry,57,32,silent,blue,1172.7592131001875,None,None,1172.7592131001875,None,,,,,,,,,,,,,,,,,,,,,,,,,,,,,,,,,,,85 Silent,001,2022_Nov_17_1047,ProdSingRedoBetween,2021.2.3,60.40226702924166,
32,0,32,0,,,,,,,,,,,,,,,,,,,,,,,,,,1177.2635025996715,None,track,25,33,silent,yellow,1175.2642483003438,None,None,1175.2642483003438,None,,,,,,,,,,,,,,,,,,,,,,,,,,,,,,,,,,,85 Silent,001,2022_Nov_17_1047,ProdSingRedoBetween,2021.2.3,60.40226702924166,
33,0,33,0,,,,,,,,,,,,,,,,,,,,,,,,,,1179.7660018000752,None,private,63,34,silent,red,1177.7667873995379,None,None,1177.7667873995379,None,,,,,,,,,,,,,,,,,,,,,,,,,,,,,,,,,,,85 Silent,001,2022_Nov_17_1047,ProdSingRedoBetween,2021.2.3,60.40226702924166,
34,0,34,0,,,,,,,,,,,,,,,,,,,,,,,,,,1182.268656999804,None,detective,41,35,silent,blue,1180.2675478998572,None,None,1180.2675478998572,None,,,,,,,,,,,,,,,,,,,,,,,,,,,,,,,,,,,85 Silent,001,2022_Nov_17_1047,ProdSingRedoBetween,2021.2.3,60.40226702924166,
35,0,35,0,,,,,,,,,,,,,,,,,,,,,,,,,,1184.7710160994902,None,search,28,36,silent,yellow,1182.7715392000973,None,None,1182.7715392000973,None,,,,,,,,,,,,,,,,,,,,,,,,,,,,,,,,,,,85 Silent,001,2022_Nov_17_1047,ProdSingRedoBetween,2021.2.3,60.40226702924166,
36,0,36,0,,,,,,,,,,,,,,,,,,,,,,,,,,1187.27336489968,None,sweet,53,37,silent,blue,1185.2716624997556,None,None,1185.2716624997556,None,,,,,,,,,,,,,,,,,,,,,,,,,,,,,,,,,,,85 Silent,001,2022_Nov_17_1047,ProdSingRedoBetween,2021.2.3,60.40226702924166,
37,0,37,0,,,,,,,,,,,,,,,,,,,,,,,,,,1189.775994000025,None,income,11,38,silent,yellow,1187.7754089003429,None,None,1187.7754089003429,None,,,,,,,,,,,,,,,,,,,,,,,,,,,,,,,,,,,85 Silent,001,2022_Nov_17_1047,ProdSingRedoBetween,2021.2.3,60.40226702924166,
38,0,38,0,,,,,,,,,,,,,,,,,,,,,,,,,,1192.27854700014,None,dream,6,39,silent,yellow,1190.277664899826,None,None,1190.277664899826,None,,,,,,,,,,,,,,,,,,,,,,,,,,,,,,,,,,,85 Silent,001,2022_Nov_17_1047,ProdSingRedoBetween,2021.2.3,60.40226702924166,
39,0,39,0,,,,,,,,,,,,,,,,,,,,,,,,,,1194.7811436001211,None,blind,62,40,silent,red,1192.7811840996146,None,None,1192.7811840996146,None,,,,,,,,,,,,,,,,,,,,,,,,,,,,,,,,,,,85 Silent,001,2022_Nov_17_1047,ProdSingRedoBetween,2021.2.3,60.40226702924166,
40,0,40,0,,,,,,,,,,,,,,,,,,,,,,,,,,1197.2836520997807,None,raise,20,41,silent,yellow,1195.2817540001124,None,None,1195.2817540001124,None,,,,,,,,,,,,,,,,,,,,,,,,,,,,,,,,,,,85 Silent,001,2022_Nov_17_1047,ProdSingRedoBetween,2021.2.3,60.40226702924166,
41,0,41,0,,,,,,,,,,,,,,,,,,,,,,,,,,1199.8028437998146,None,symbol,70,42,silent,red,1197.787675499916,None,None,1197.787675499916,None,,,,,,,,,,,,,,,,,,,,,,,,,,,,,,,,,,,85 Silent,001,2022_Nov_17_1047,ProdSingRedoBetween,2021.2.3,60.40226702924166,
42,0,42,0,,,,,,,,,,,,,,,,,,,,,,,,,,1202.3220023000613,None,equipment,30,43,silent,blue,1200.3185409996659,None,None,1200.3185409996659,None,,,,,,,,,,,,,,,,,,,,,,,,,,,,,,,,,,,85 Silent,001,2022_Nov_17_1047,ProdSingRedoBetween,2021.2.3,60.40226702924166,
43,0,43,0,,,,,,,,,,,,,,,,,,,,,,,,,,1204.8241673000157,None,addition,40,44,silent,blue,1202.8236958999187,None,None,1202.8236958999187,None,,,,,,,,,,,,,,,,,,,,,,,,,,,,,,,,,,,85 Silent,001,2022_Nov_17_1047,ProdSingRedoBetween,2021.2.3,60.40226702924166,
44,0,44,0,,,,,,,,,,,,,,,,,,,,,,,,,,1207.3271473003551,None,owner,35,45,silent,blue,1205.3247034996748,None,None,1205.3247034996748,None,,,,,,,,,,,,,,,,,,,,,,,,,,,,,,,,,,,85 Silent,001,2022_Nov_17_1047,ProdSingRedoBetween,2021.2.3,60.40226702924166,
45,0,45,0,,,,,,,,,,,,,,,,,,,,,,,,,,1209.8292635995895,None,design,73,46,silent,red,1207.829903899692,None,None,1207.829903899692,None,,,,,,,,,,,,,,,,,,,,,,,,,,,,,,,,,,,85 Silent,001,2022_Nov_17_1047,ProdSingRedoBetween,2021.2.3,60.40226702924166,
46,0,46,0,,,,,,,,,,,,,,,,,,,,,,,,,,1212.348815199919,None,impact,7,47,silent,yellow,1210.334556499496,None,None,1210.334556499496,None,,,,,,,,,,,,,,,,,,,,,,,,,,,,,,,,,,,85 Silent,001,2022_Nov_17_1047,ProdSingRedoBetween,2021.2.3,60.40226702924166,
47,0,47,0,,,,,,,,,,,,,,,,,,,,,,,,,,1214.851158999838,None,department,65,48,silent,red,1212.851246099919,None,None,1212.851246099919,None,,,,,,,,,,,,,,,,,,,,,,,,,,,,,,,,,,,85 Silent,001,2022_Nov_17_1047,ProdSingRedoBetween,2021.2.3,60.40226702924166,
48,0,48,0,,,,,,,,,,,,,,,,,,,,,,,,,,1217.3536139000207,None,master,45,49,silent,blue,1215.351600700058,None,None,1215.351600700058,None,,,,,,,,,,,,,,,,,,,,,,,,,,,,,,,,,,,85 Silent,001,2022_Nov_17_1047,ProdSingRedoBetween,2021.2.3,60.40226702924166,
49,0,49,0,,,,,,,,,,,,,,,,,,,,,,,,,,1219.8561894996092,None,build,49,50,silent,blue,1217.855309500359,None,None,1217.855309500359,None,,,,,,,,,,,,,,,,,,,,,,,,,,,,,,,,,,,85 Silent,001,2022_Nov_17_1047,ProdSingRedoBetween,2021.2.3,60.40226702924166,
50,0,50,0,,,,,,,,,,,,,,,,,,,,,,,,,,1222.3587569994852,None,edition,75,51,silent,red,1220.3583140997216,None,None,1220.3583140997216,None,,,,,,,,,,,,,,,,,,,,,,,,,,,,,,,,,,,85 Silent,001,2022_Nov_17_1047,ProdSingRedoBetween,2021.2.3,60.40226702924166,
51,0,51,0,,,,,,,,,,,,,,,,,,,,,,,,,,1224.877724500373,None,shear,47,52,silent,blue,1222.8659757003188,None,None,1222.8659757003188,None,,,,,,,,,,,,,,,,,,,,,,,,,,,,,,,,,,,85 Silent,001,2022_Nov_17_1047,ProdSingRedoBetween,2021.2.3,60.40226702924166,
52,0,52,0,,,,,,,,,,,,,,,,,,,,,,,,,,1227.3803345002234,None,agreement,88,53,silent,red,1225.3814516002312,None,None,1225.3814516002312,None,,,,,,,,,,,,,,,,,,,,,,,,,,,,,,,,,,,85 Silent,001,2022_Nov_17_1047,ProdSingRedoBetween,2021.2.3,60.40226702924166,
53,0,53,0,,,,,,,,,,,,,,,,,,,,,,,,,,1229.8827825002372,None,quick,86,54,silent,red,1227.883103299886,None,None,1227.883103299886,None,,,,,,,,,,,,,,,,,,,,,,,,,,,,,,,,,,,85 Silent,001,2022_Nov_17_1047,ProdSingRedoBetween,2021.2.3,60.40226702924166,
54,0,54,0,,,,,,,,,,,,,,,,,,,,,,,,,,1232.3853091998026,None,oxygen,50,55,silent,blue,1230.3852289998904,None,None,1230.3852289998904,None,,,,,,,,,,,,,,,,,,,,,,,,,,,,,,,,,,,85 Silent,001,2022_Nov_17_1047,ProdSingRedoBetween,2021.2.3,60.40226702924166,
55,0,55,0,,,,,,,,,,,,,,,,,,,,,,,,,,1234.9045059997588,None,executive,8,56,silent,yellow,1232.890456800349,None,None,1232.890456800349,None,,,,,,,,,,,,,,,,,,,,,,,,,,,,,,,,,,,85 Silent,001,2022_Nov_17_1047,ProdSingRedoBetween,2021.2.3,60.40226702924166,
56,0,56,0,,,,,,,,,,,,,,,,,,,,,,,,,,1237.4069710997865,None,solution,48,57,silent,blue,1235.4063015999272,None,None,1235.4063015999272,None,,,,,,,,,,,,,,,,,,,,,,,,,,,,,,,,,,,85 Silent,001,2022_Nov_17_1047,ProdSingRedoBetween,2021.2.3,60.40226702924166,
57,0,57,0,,,,,,,,,,,,,,,,,,,,,,,,,,1239.9094583997503,None,month,46,58,silent,blue,1237.90814569965,None,None,1237.90814569965,None,,,,,,,,,,,,,,,,,,,,,,,,,,,,,,,,,,,85 Silent,001,2022_Nov_17_1047,ProdSingRedoBetween,2021.2.3,60.40226702924166,
58,0,58,0,,,,,,,,,,,,,,,,,,,,,,,,,,1242.4119849000126,None,harmony,33,59,silent,blue,1240.4107510996982,None,None,1240.4107510996982,None,,,,,,,,,,,,,,,,,,,,,,,,,,,,,,,,,,,85 Silent,001,2022_Nov_17_1047,ProdSingRedoBetween,2021.2.3,60.40226702924166,
59,0,59,0,,,,,,,,,,,,,,,,,,,,,,,,,,1244.9144297996536,None,review,67,60,silent,red,1242.9127339003608,None,None,1242.9127339003608,None,,,,,,,,,,,,,,,,,,,,,,,,,,,,,,,,,,,85 Silent,001,2022_Nov_17_1047,ProdSingRedoBetween,2021.2.3,60.40226702924166,
60,0,60,0,,,,,,,,,,,,,,,,,,,,,,,,,,1247.4169485000893,None,beginning,26,61,silent,yellow,1245.416564299725,None,None,1245.416564299725,None,,,,,,,,,,,,,,,,,,,,,,,,,,,,,,,,,,,85 Silent,001,2022_Nov_17_1047,ProdSingRedoBetween,2021.2.3,60.40226702924166,
61,0,61,0,,,,,,,,,,,,,,,,,,,,,,,,,,1249.9195261001587,None,group,79,62,silent,red,1247.9201605003327,None,None,1247.9201605003327,None,,,,,,,,,,,,,,,,,,,,,,,,,,,,,,,,,,,85 Silent,001,2022_Nov_17_1047,ProdSingRedoBetween,2021.2.3,60.40226702924166,
62,0,62,0,,,,,,,,,,,,,,,,,,,,,,,,,,1252.4385585999116,None,childhood,15,63,silent,yellow,1250.4236652003601,None,None,1250.4236652003601,None,,,,,,,,,,,,,,,,,,,,,,,,,,,,,,,,,,,85 Silent,001,2022_Nov_17_1047,ProdSingRedoBetween,2021.2.3,60.40226702924166,
63,0,63,0,,,,,,,,,,,,,,,,,,,,,,,,,,1254.9411827996373,None,second,13,64,silent,yellow,1252.9412631001323,None,None,1252.9412631001323,None,,,,,,,,,,,,,,,,,,,,,,,,,,,,,,,,,,,85 Silent,001,2022_Nov_17_1047,ProdSingRedoBetween,2021.2.3,60.40226702924166,
64,0,64,0,,,,,,,,,,,,,,,,,,,,,,,,,,1257.4602758996189,None,republic,31,65,silent,blue,1255.445374400355,None,None,1255.445374400355,None,,,,,,,,,,,,,,,,,,,,,,,,,,,,,,,,,,,85 Silent,001,2022_Nov_17_1047,ProdSingRedoBetween,2021.2.3,60.40226702924166,
65,0,65,0,,,,,,,,,,,,,,,,,,,,,,,,,,1259.9794835997745,None,discussion,37,66,silent,blue,1257.9642981998622,None,None,1257.9642981998622,None,,,,,,,,,,,,,,,,,,,,,,,,,,,,,,,,,,,85 Silent,001,2022_Nov_17_1047,ProdSingRedoBetween,2021.2.3,60.40226702924166,
66,0,66,0,,,,,,,,,,,,,,,,,,,,,,,,,,1262.4987452002242,None,problem,44,67,silent,blue,1260.4917930997908,None,None,1260.4917930997908,None,,,,,,,,,,,,,,,,,,,,,,,,,,,,,,,,,,,85 Silent,001,2022_Nov_17_1047,ProdSingRedoBetween,2021.2.3,60.40226702924166,
67,0,67,0,,,,,,,,,,,,,,,,,,,,,,,,,,1265.0012263003737,None,instrument,32,68,silent,blue,1262.9991514002904,None,None,1262.9991514002904,None,,,,,,,,,,,,,,,,,,,,,,,,,,,,,,,,,,,85 Silent,001,2022_Nov_17_1047,ProdSingRedoBetween,2021.2.3,60.40226702924166,
68,0,68,0,,,,,,,,,,,,,,,,,,,,,,,,,,1267.5033459002152,None,passage,1,69,silent,yellow,1265.5031008999795,None,None,1265.5031008999795,None,,,,,,,,,,,,,,,,,,,,,,,,,,,,,,,,,,,85 Silent,001,2022_Nov_17_1047,ProdSingRedoBetween,2021.2.3,60.40226702924166,
69,0,69,0,,,,,,,,,,,,,,,,,,,,,,,,,,1270.0060229999945,None,opening,60,70,silent,red,1268.0041776001453,None,None,1268.0041776001453,None,,,,,,,,,,,,,,,,,,,,,,,,,,,,,,,,,,,85 Silent,001,2022_Nov_17_1047,ProdSingRedoBetween,2021.2.3,60.40226702924166,
70,0,70,0,,,,,,,,,,,,,,,,,,,,,,,,,,1272.525355500169,None,working,22,71,silent,yellow,1270.511581200175,None,None,1270.511581200175,None,,,,,,,,,,,,,,,,,,,,,,,,,,,,,,,,,,,85 Silent,001,2022_Nov_17_1047,ProdSingRedoBetween,2021.2.3,60.40226702924166,
71,0,71,0,,,,,,,,,,,,,,,,,,,,,,,,,,1275.0278321998194,None,watch,12,72,silent,yellow,1273.025902500376,None,None,1273.025902500376,None,,,,,,,,,,,,,,,,,,,,,,,,,,,,,,,,,,,85 Silent,001,2022_Nov_17_1047,ProdSingRedoBetween,2021.2.3,60.40226702924166,
72,0,72,0,,,,,,,,,,,,,,,,,,,,,,,,,,1277.5303900996223,None,grade,5,73,silent,yellow,1275.5300533995032,None,None,1275.5300533995032,None,,,,,,,,,,,,,,,,,,,,,,,,,,,,,,,,,,,85 Silent,001,2022_Nov_17_1047,ProdSingRedoBetween,2021.2.3,60.40226702924166,
73,0,73,0,,,,,,,,,,,,,,,,,,,,,,,,,,1280.033821400255,None,meeting,18,74,silent,yellow,1278.0308929001912,None,None,1278.0308929001912,None,,,,,,,,,,,,,,,,,,,,,,,,,,,,,,,,,,,85 Silent,001,2022_Nov_17_1047,ProdSingRedoBetween,2021.2.3,60.40226702924166,
74,0,74,0,,,,,,,,,,,,,,,,,,,,,,,,,,1282.5352587001398,None,election,55,75,silent,blue,1280.5336836995557,None,None,1280.5336836995557,None,,,,,,,,,,,,,,,,,,,,,,,,,,,,,,,,,,,85 Silent,001,2022_Nov_17_1047,ProdSingRedoBetween,2021.2.3,60.40226702924166,
75,0,75,0,,,,,,,,,,,,,,,,,,,,,,,,,,1285.0542163997889,None,couch,54,76,silent,blue,1283.0406973995268,None,None,1283.0406973995268,None,,,,,,,,,,,,,,,,,,,,,,,,,,,,,,,,,,,85 Silent,001,2022_Nov_17_1047,ProdSingRedoBetween,2021.2.3,60.40226702924166,
76,0,76,0,,,,,,,,,,,,,,,,,,,,,,,,,,1287.556808100082,None,fashion,3,77,silent,yellow,1285.5579735003412,None,None,1285.5579735003412,None,,,,,,,,,,,,,,,,,,,,,,,,,,,,,,,,,,,85 Silent,001,2022_Nov_17_1047,ProdSingRedoBetween,2021.2.3,60.40226702924166,
77,0,77,0,,,,,,,,,,,,,,,,,,,,,,,,,,1290.059460000135,None,order,52,78,silent,blue,1288.059703799896,None,None,1288.059703799896,None,,,,,,,,,,,,,,,,,,,,,,,,,,,,,,,,,,,85 Silent,001,2022_Nov_17_1047,ProdSingRedoBetween,2021.2.3,60.40226702924166,
78,0,78,0,,,,,,,,,,,,,,,,,,,,,,,,,,1292.5786084001884,None,quantity,38,79,silent,blue,1290.5729940002784,None,None,1290.5729940002784,None,,,,,,,,,,,,,,,,,,,,,,,,,,,,,,,,,,,85 Silent,001,2022_Nov_17_1047,ProdSingRedoBetween,2021.2.3,60.40226702924166,
79,0,79,0,,,,,,,,,,,,,,,,,,,,,,,,,,1295.081192200072,None,expansion,89,80,silent,red,1293.0792993996292,None,None,1293.0792993996292,None,,,,,,,,,,,,,,,,,,,,,,,,,,,,,,,,,,,85 Silent,001,2022_Nov_17_1047,ProdSingRedoBetween,2021.2.3,60.40226702924166,
80,0,80,0,,,,,,,,,,,,,,,,,,,,,,,,,,1297.5837115002796,None,route,59,81,silent,yellow,1295.5813478995115,None,None,1295.5813478995115,None,,,,,,,,,,,,,,,,,,,,,,,,,,,,,,,,,,,85 Silent,001,2022_Nov_17_1047,ProdSingRedoBetween,2021.2.3,60.40226702924166,
81,0,81,0,,,,,,,,,,,,,,,,,,,,,,,,,,1300.0861615994945,None,drama,82,82,silent,red,1298.0841597002,None,None,1298.0841597002,None,,,,,,,,,,,,,,,,,,,,,,,,,,,,,,,,,,,85 Silent,001,2022_Nov_17_1047,ProdSingRedoBetween,2021.2.3,60.40226702924166,
82,0,82,0,,,,,,,,,,,,,,,,,,,,,,,,,,1302.6052609002218,None,error,19,83,silent,yellow,1300.594655700028,None,None,1300.594655700028,None,,,,,,,,,,,,,,,,,,,,,,,,,,,,,,,,,,,85 Silent,001,2022_Nov_17_1047,ProdSingRedoBetween,2021.2.3,60.40226702924166,
83,0,83,0,,,,,,,,,,,,,,,,,,,,,,,,,,1305.107855499722,None,attack,2,84,silent,yellow,1303.1065459996462,None,None,1303.1065459996462,None,,,,,,,,,,,,,,,,,,,,,,,,,,,,,,,,,,,85 Silent,001,2022_Nov_17_1047,ProdSingRedoBetween,2021.2.3,60.40226702924166,
84,0,84,0,,,,,,,,,,,,,,,,,,,,,,,,,,1307.6103449994698,None,block,78,85,silent,red,1305.6083343001083,None,None,1305.6083343001083,None,,,,,,,,,,,,,,,,,,,,,,,,,,,,,,,,,,,85 Silent,001,2022_Nov_17_1047,ProdSingRedoBetween,2021.2.3,60.40226702924166,
85,0,85,0,,,,,,,,,,,,,,,,,,,,,,,,,,1310.1293994002044,None,citizen,61,86,silent,red,1308.1210746001452,None,None,1308.1210746001452,None,,,,,,,,,,,,,,,,,,,,,,,,,,,,,,,,,,,85 Silent,001,2022_Nov_17_1047,ProdSingRedoBetween,2021.2.3,60.40226702924166,
86,0,86,0,,,,,,,,,,,,,,,,,,,,,,,,,,1312.6320206997916,None,mechanical,16,87,silent,yellow,1310.6327061001211,None,None,1310.6327061001211,None,,,,,,,,,,,,,,,,,,,,,,,,,,,,,,,,,,,85 Silent,001,2022_Nov_17_1047,ProdSingRedoBetween,2021.2.3,60.40226702924166,
87,0,87,0,,,,,,,,,,,,,,,,,,,,,,,,,,1315.1344090998173,None,territory,36,88,silent,blue,1313.1336254999042,None,None,1313.1336254999042,None,,,,,,,,,,,,,,,,,,,,,,,,,,,,,,,,,,,85 Silent,001,2022_Nov_17_1047,ProdSingRedoBetween,2021.2.3,60.40226702924166,
88,0,88,0,,,,,,,,,,,,,,,,,,,,,,,,,,1317.6536232996732,None,management,76,89,silent,red,1315.6384918997064,None,None,1315.6384918997064,None,,,,,,,,,,,,,,,,,,,,,,,,,,,,,,,,,,,85 Silent,001,2022_Nov_17_1047,ProdSingRedoBetween,2021.2.3,60.40226702924166,
89,0,89,0,,,,,,,,,,,,,,,,,,,,,,,,,,1320.1727945003659,None,shape,0,90,silent,yellow,1318.1604570001364,None,None,1318.1604570001364,None,,,,,,,,,,,,,,,,,,,,,,,,,,,,,,,,,,,85 Silent,001,2022_Nov_17_1047,ProdSingRedoBetween,2021.2.3,60.40226702924166,
,,,,,,,,,,,,,,,,,,,,,,,,,,,,,,,,,,,,,,,,,1320.6736203003675,None,k,235.93055909965187,1320.6736203003675,None,,,,,,,,,,,,,,,,,,,,,,,,,,,,,85 Silent,001,2022_Nov_17_1047,ProdSingRedoBetween,2021.2.3,60.40226702924166,
,,,,0,0,0,0,,,,,,,,,,,,,,,,,,,,,,1575.6276083998382,None,,,,,,,,,,,,,,,,,private,63,1,silent,old,red,1557.1329694995657,None,1557.1329694995657,None,6,10.86316140089184,1557.1329694995657,None,10.86316140089184,1568.0225668000057,None,1568.5373478997499,None,1568.5373478997499,None,r,7.066786199808121,1568.5373478997499,None,7.066786199808121,,,85 Silent,001,2022_Nov_17_1047,ProdSingRedoBetween,2021.2.3,60.40226702924166,
,,,,1,0,1,0,,,,,,,,,,,,,,,,,,,,,,1581.183105699718,None,,,,,,,,,,,,,,,,,instrument,32,2,silent,old,blue,1576.1323689995334,None,1576.1323689995334,None,6,2.511865899898112,1576.1323689995334,None,2.511865899898112,1578.6644828999415,None,1579.164309100248,None,1579.164309100248,None,r,1.9917552005499601,1579.164309100248,None,1.9917552005499601,,,85 Silent,001,2022_Nov_17_1047,ProdSingRedoBetween,2021.2.3,60.40226702924166,
,,,,2,0,2,0,,,,,,,,,,,,,,,,,,,,,,1584.4031988000497,None,,,,,,,,,,,,,,,,,direction,39,3,silent,old,blue,1581.6918681999668,None,1581.6918681999668,None,6,1.7202643007040024,1581.6918681999668,None,1.7202643007040024,1583.4373893002048,None,1583.9526875000447,None,1583.9526875000447,None,r,0.4277055002748966,1583.9526875000447,None,0.4277055002748966,,,85 Silent,001,2022_Nov_17_1047,ProdSingRedoBetween,2021.2.3,60.40226702924166,
,,,,3,0,3,0,,,,,,,,,,,,,,,,,,,,,,1587.6729782000184,None,,,,,,,,,,,,,,,,,angle,127,4,silent,new,null,1584.9131656996906,None,1584.9131656996906,None,6,1.3229649001732469,1584.9131656996906,None,1.3229649001732469,1586.2561935996637,None,1586.7561254994944,None,1586.7561254994944,None,r,0.8879639003425837,1586.7561254994944,None,0.8879639003425837,,,85 Silent,001,2022_Nov_17_1047,ProdSingRedoBetween,2021.2.3,60.40226702924166,
,,,,4,0,4,0,,,,,,,,,,,,,,,,,,,,,,1589.8916887994856,None,,,,,,,,,,,,,,,,,figure,167,5,silent,new,null,1588.177699400112,None,1588.177699400112,None,6,0.8985207006335258,1588.177699400112,None,0.8985207006335258,1589.0935217998922,None,1589.608184300363,None,1589.608184300363,None,r,0.26786020025610924,1589.608184300363,None,0.26786020025610924,,,85 Silent,001,2022_Nov_17_1047,ProdSingRedoBetween,2021.2.3,60.40226702924166,
,,,,5,0,5,0,,,,,,,,,,,,,,,,,,,,,,1591.9605235001072,None,,,,,,,,,,,,,,,,,crisis,140,6,silent,new,null,1590.403554099612,None,1590.403554099612,None,6,0.7445455994457006,1590.403554099612,None,0.7445455994457006,1591.1774121997878,None,1591.677099100314,None,1591.677099100314,None,r,0.25500370003283024,1591.677099100314,None,0.25500370003283024,,,85 Silent,001,2022_Nov_17_1047,ProdSingRedoBetween,2021.2.3,60.40226702924166,
,,,,6,0,6,0,,,,,,,,,,,,,,,,,,,,,,1593.9625075999647,None,,,,,,,,,,,,,,,,,design,73,7,silent,old,red,1592.471841700375,None,1592.471841700375,None,6,0.6842246996238828,1592.471841700375,None,0.6842246996238828,1593.1802040999755,None,1593.6957098999992,None,1593.6957098999992,None,r,0.23646279983222485,1593.6957098999992,None,0.23646279983222485,,,85 Silent,001,2022_Nov_17_1047,ProdSingRedoBetween,2021.2.3,60.40226702924166,
,,,,7,0,7,0,,,,,,,,,,,,,,,,,,,,,,1596.0475289998576,None,,,,,,,,,,,,,,,,,course,134,8,silent,new,null,1594.480464199558,None,1594.480464199558,None,6,0.7877620998769999,1594.480464199558,None,0.7877620998769999,1595.305284800008,None,1595.8142451997846,None,1595.8142451997846,None,r,0.20576100051403046,1595.8142451997846,None,0.20576100051403046,,,85 Silent,001,2022_Nov_17_1047,ProdSingRedoBetween,2021.2.3,60.40226702924166,
,,,,8,0,8,0,,,,,,,,,,,,,,,,,,,,,,1598.0665975995362,None,,,,,,,,,,,,,,,,,generation,176,9,silent,new,null,1596.5484512997791,None,1596.5484512997791,None,6,0.7276335004717112,1596.5484512997791,None,0.7276335004717112,1597.300589799881,None,1597.8049675002694,None,1597.8049675002694,None,r,0.23912139981985092,1597.8049675002694,None,0.23912139981985092,,,85 Silent,001,2022_Nov_17_1047,ProdSingRedoBetween,2021.2.3,60.40226702924166,
,,,,9,0,9,0,,,,,,,,,,,,,,,,,,,,,,1600.3355607995763,None,,,,,,,,,,,,,,,,,personnel,51,10,silent,old,blue,1598.567201900296,None,1598.567201900296,None,6,0.9728888003155589,1598.567201900296,None,0.9728888003155589,1599.5691954996437,None,1600.0735449995846,None,1600.0735449995846,None,r,0.2344908006489277,1600.0735449995846,None,0.2344908006489277,,,85 Silent,001,2022_Nov_17_1047,ProdSingRedoBetween,2021.2.3,60.40226702924166,
,,,,10,0,10,0,,,,,,,,,,,,,,,,,,,,,,1602.223443100229,None,,,,,,,,,,,,,,,,,attack,2,11,silent,old,yellow,1600.8512888001278,None,1600.8512888001278,None,6,0.5689118998125196,1600.8512888001278,None,0.5689118998125196,1601.4410592000932,None,1601.9557491000742,None,1601.9557491000742,None,r,0.24028120003640652,1601.9557491000742,None,0.24028120003640652,,,85 Silent,001,2022_Nov_17_1047,ProdSingRedoBetween,2021.2.3,60.40226702924166,
,,,,11,0,11,0,,,,,,,,,,,,,,,,,,,,,,1604.2767608994618,None,,,,,,,,,,,,,,,,,raise,20,12,silent,old,yellow,1602.7489716000855,None,1602.7489716000855,None,6,0.7191510004922748,1602.7489716000855,None,0.7191510004922748,1603.4997637001798,None,1604.0100157000124,None,1604.0100157000124,None,r,0.24219160061329603,1604.0100157000124,None,0.24219160061329603,,,85 Silent,001,2022_Nov_17_1047,ProdSingRedoBetween,2021.2.3,60.40226702924166,
,,,,12,0,12,0,,,,,,,,,,,,,,,,,,,,,,1606.1246964000165,None,,,,,,,,,,,,,,,,,measure,10,13,silent,old,yellow,1604.8006429998204,None,1604.8006429998204,None,6,0.5153241008520126,1604.8006429998204,None,0.5153241008520126,1605.3420310998335,None,1605.8467504996806,None,1605.8467504996806,None,r,0.2612844994291663,1605.8467504996806,None,0.2612844994291663,,,85 Silent,001,2022_Nov_17_1047,ProdSingRedoBetween,2021.2.3,60.40226702924166,
,,,,13,0,13,0,,,,,,,,,,,,,,,,,,,,,,1609.2139052003622,None,,,,,,,,,,,,,,,,,chief,155,14,silent,new,null,1606.6298572998494,None,1606.6298572998494,None,6,0.502271800301969,1606.6298572998494,None,0.502271800301969,1607.1665156995878,None,1607.683420700021,None,1607.683420700021,None,r,1.4964993000030518,1607.683420700021,None,1.4964993000030518,,,85 Silent,001,2022_Nov_17_1047,ProdSingRedoBetween,2021.2.3,60.40226702924166,
,,,,14,0,14,0,,,,,,,,,,,,,,,,,,,,,,1611.6134617999196,None,,,,,,,,,,,,,,,,,question,152,15,silent,new,null,1609.7310172999278,None,1609.7310172999278,None,6,1.073029300197959,1609.7310172999278,None,1.073029300197959,1610.8317037001252,None,1611.3505015997216,None,1611.3505015997216,None,r,0.23757589980959892,1611.3505015997216,None,0.23757589980959892,,,85 Silent,001,2022_Nov_17_1047,ProdSingRedoBetween,2021.2.3,60.40226702924166,
,,,,15,0,15,0,,,,,,,,,,,,,,,,,,,,,,1613.6488517001271,None,,,,,,,,,,,,,,,,,straight,122,16,silent,new,null,1612.1234352998435,None,1612.1234352998435,None,6,0.8085575001314282,1612.1234352998435,None,0.8085575001314282,1612.9495786000043,None,1613.448748299852,None,1613.448748299852,None,r,0.17135890014469624,1613.448748299852,None,0.17135890014469624,,,85 Silent,001,2022_Nov_17_1047,ProdSingRedoBetween,2021.2.3,60.40226702924166,
,,,,16,0,16,0,,,,,,,,,,,,,,,,,,,,,,1615.4172686003149,None,,,,,,,,,,,,,,,,,research,131,17,silent,new,null,1614.1611599996686,None,1614.1611599996686,None,6,0.44299260061234236,1614.1611599996686,None,0.44299260061234236,1614.6363651994616,None,1615.15032720007,None,1615.15032720007,None,r,0.2377054998651147,1615.15032720007,None,0.2377054998651147,,,85 Silent,001,2022_Nov_17_1047,ProdSingRedoBetween,2021.2.3,60.40226702924166,
,,,,17,0,17,0,,,,,,,,,,,,,,,,,,,,,,1617.0022411998361,None,,,,,,,,,,,,,,,,,relation,112,18,silent,new,null,1615.9177693994716,None,1615.9177693994716,None,6,0.3504666006192565,1615.9177693994716,None,0.3504666006192565,1616.2868862003088,None,1616.803677099757,None,1616.803677099757,None,r,0.16854159999638796,1616.803677099757,None,0.16854159999638796,,,85 Silent,001,2022_Nov_17_1047,ProdSingRedoBetween,2021.2.3,60.40226702924166,
,,,,18,0,18,0,,,,,,,,,,,,,,,,,,,,,,1618.6904910001904,None,,,,,,,,,,,,,,,,,order,52,19,silent,old,blue,1617.505571000278,None,1617.505571000278,None,6,0.44237919989973307,1617.505571000278,None,0.44237919989973307,1617.974679400213,None,1618.4907488003373,None,1618.4907488003373,None,r,0.16938249953091145,1618.4907488003373,None,0.16938249953091145,,,85 Silent,001,2022_Nov_17_1047,ProdSingRedoBetween,2021.2.3,60.40226702924166,
,,,,19,0,19,0,,,,,,,,,,,,,,,,,,,,,,1620.3722783997655,None,,,,,,,,,,,,,,,,,route,59,20,silent,old,yellow,1619.2086159996688,None,1619.2086159996688,None,6,0.45949599985033274,1619.2086159996688,None,0.45949599985033274,1619.6938878996298,None,1620.2055364996195,None,1620.2055364996195,None,r,0.14248550031334162,1620.2055364996195,None,0.14248550031334162,,,85 Silent,001,2022_Nov_17_1047,ProdSingRedoBetween,2021.2.3,60.40226702924166,
,,,,20,0,20,0,,,,,,,,,,,,,,,,,,,,,,1621.9738368000835,None,,,,,,,,,,,,,,,,,department,65,21,silent,old,red,1620.8765819994733,None,1620.8765819994733,None,6,0.41555240005254745,1620.8765819994733,None,0.41555240005254745,1621.32741419971,None,1621.8436446003616,None,1621.8436446003616,None,r,0.11233099922537804,1621.8436446003616,None,0.11233099922537804,,,85 Silent,001,2022_Nov_17_1047,ProdSingRedoBetween,2021.2.3,60.40226702924166,
,,,,21,0,21,0,,,,,,,,,,,,,,,,,,,,,,1623.3918974995613,None,,,,,,,,,,,,,,,,,symbol,70,22,silent,old,red,1622.480968600139,None,1622.480968600139,None,6,0.22703840024769306,1622.480968600139,None,0.22703840024769306,1622.72608199995,None,1623.2281050998718,None,1623.2281050998718,None,r,0.14401249960064888,1623.2281050998718,None,0.14401249960064888,,,85 Silent,001,2022_Nov_17_1047,ProdSingRedoBetween,2021.2.3,60.40226702924166,
,,,,22,0,22,0,,,,,,,,,,,,,,,,,,,,,,1625.0617142999545,None,,,,,,,,,,,,,,,,,watch,12,23,silent,old,yellow,1623.9070784999058,None,1623.9070784999058,None,6,0.3850949006155133,1623.9070784999058,None,0.3850949006155133,1624.3115135002881,None,1624.8267818000168,None,1624.8267818000168,None,r,0.2093810997903347,1624.8267818000168,None,0.2093810997903347,,,85 Silent,001,2022_Nov_17_1047,ProdSingRedoBetween,2021.2.3,60.40226702924166,
,,,,23,0,23,0,,,,,,,,,,,,,,,,,,,,,,1628.9827608000487,None,,,,,,,,,,,,,,,,,edition,75,24,silent,old,red,1625.5845210002735,None,1625.5845210002735,None,6,2.2915040999650955,1625.5845210002735,None,2.2915040999650955,1627.8975943997502,None,1628.401366399601,None,1628.401366399601,None,r,0.5627555996179581,1628.401366399601,None,0.5627555996179581,,,85 Silent,001,2022_Nov_17_1047,ProdSingRedoBetween,2021.2.3,60.40226702924166,
,,,,24,0,24,0,,,,,,,,,,,,,,,,,,,,,,1630.9010910000652,None,,,,,,,,,,,,,,,,,comfort,158,25,silent,new,null,1629.5050537995994,None,1629.5050537995994,None,6,0.5869311997666955,1629.5050537995994,None,0.5869311997666955,1630.1150276996195,None,1630.6202943995595,None,1630.6202943995595,None,r,0.25581919960677624,1630.6202943995595,None,0.25581919960677624,,,85 Silent,001,2022_Nov_17_1047,ProdSingRedoBetween,2021.2.3,60.40226702924166,
,,,,25,0,25,0,,,,,,,,,,,,,,,,,,,,,,1633.1349973995239,None,,,,,,,,,,,,,,,,,orchestra,106,26,silent,new,null,1631.424798199907,None,1631.424798199907,None,6,0.6032135002315044,1631.424798199907,None,0.6032135002315044,1632.0524957003072,None,1632.5709402002394,None,1632.5709402002394,None,r,0.5451221996918321,1632.5709402002394,None,0.5451221996918321,,,85 Silent,001,2022_Nov_17_1047,ProdSingRedoBetween,2021.2.3,60.40226702924166,
,,,,26,0,26,0,,,,,,,,,,,,,,,,,,,,,,1634.9215620001778,None,,,,,,,,,,,,,,,,,vision,34,27,silent,old,blue,1633.6432996001095,None,1633.6432996001095,None,6,0.49681640043854713,1633.6432996001095,None,0.49681640043854713,1634.1712469998747,None,1634.689600999467,None,1634.689600999467,None,r,0.20246019959449768,1634.689600999467,None,0.20246019959449768,,,85 Silent,001,2022_Nov_17_1047,ProdSingRedoBetween,2021.2.3,60.40226702924166,
,,,,27,0,27,0,,,,,,,,,,,,,,,,,,,,,,1636.5550683997571,None,,,,,,,,,,,,,,,,,harmony,33,28,silent,old,blue,1635.4240038003772,None,1635.4240038003772,None,6,0.4841445004567504,1635.4240038003772,None,0.4841445004567504,1635.940437699668,None,1636.4548794999719,None,1636.4548794999719,None,r,0.0771324997767806,1636.4548794999719,None,0.0771324997767806,,,85 Silent,001,2022_Nov_17_1047,ProdSingRedoBetween,2021.2.3,60.40226702924166,
,,,,28,0,28,0,,,,,,,,,,,,,,,,,,,,,,1638.0255004996434,None,,,,,,,,,,,,,,,,,crime,87,29,silent,old,red,1637.0643116002902,None,1637.0643116002902,None,6,0.3637619996443391,1637.0643116002902,None,0.3637619996443391,1637.457810900174,None,1637.9732924001291,None,1637.9732924001291,None,r,0.022828799672424793,1637.9732924001291,None,0.022828799672424793,,,85 Silent,001,2022_Nov_17_1047,ProdSingRedoBetween,2021.2.3,60.40226702924166,
,,,,29,0,29,0,,,,,,,,,,,,,,,,,,,,,,1645.3170077996328,None,,,,,,,,,,,,,,,,,republic,31,30,silent,old,blue,1638.5415445994586,None,1638.5415445994586,None,6,0.3904752004891634,1638.5415445994586,None,0.3904752004891634,1638.9590509999543,None,1639.460849300027,None,1639.460849300027,None,r,5.823233000002801,1639.460849300027,None,5.823233000002801,,,85 Silent,001,2022_Nov_17_1047,ProdSingRedoBetween,2021.2.3,60.40226702924166,
,,,,30,0,30,0,,,,,,,,,,,,,,,,,,,,,,1646.9840188995004,None,,,,,,,,,,,,,,,,,school,80,31,silent,old,red,1645.8316989000887,None,1645.8316989000887,None,6,0.5482475003227592,1645.8316989000887,None,0.5482475003227592,1646.397987799719,None,1646.9029161995277,None,1646.9029161995277,None,r,0.053151500411331654,1646.9029161995277,None,0.053151500411331654,,,85 Silent,001,2022_Nov_17_1047,ProdSingRedoBetween,2021.2.3,60.40226702924166,
,,,,31,0,31,0,,,,,,,,,,,,,,,,,,,,,,1648.4501317003742,None,,,,,,,,,,,,,,,,,stranger,66,32,silent,old,red,1647.5153147997335,None,1647.5153147997335,None,6,0.2806877000257373,1647.5153147997335,None,0.2806877000257373,1647.8177778003737,None,1648.317578099668,None,1648.317578099668,None,r,0.11040419992059469,1648.317578099668,None,0.11040419992059469,,,85 Silent,001,2022_Nov_17_1047,ProdSingRedoBetween,2021.2.3,60.40226702924166,
,,,,32,0,32,0,,,,,,,,,,,,,,,,,,,,,,1650.5689984997734,None,,,,,,,,,,,,,,,,,alert,148,33,silent,new,null,1648.9685488995165,None,1648.9685488995165,None,6,0.17997500021010637,1648.9685488995165,None,0.17997500021010637,1649.1674669003114,None,1649.6775179002434,None,1649.6775179002434,None,r,0.8624563002958894,1649.6775179002434,None,0.8624563002958894,,,85 Silent,001,2022_Nov_17_1047,ProdSingRedoBetween,2021.2.3,60.40226702924166,
,,,,33,0,33,0,,,,,,,,,,,,,,,,,,,,,,1653.3384357001632,None,,,,,,,,,,,,,,,,,background,42,34,silent,old,blue,1651.0820327000692,None,1651.0820327000692,None,6,1.505898299627006,1651.0820327000692,None,1.505898299627006,1652.6058112997562,None,1653.1053162002936,None,1653.1053162002936,None,r,0.21057619992643595,1653.1053162002936,None,0.21057619992643595,,,85 Silent,001,2022_Nov_17_1047,ProdSingRedoBetween,2021.2.3,60.40226702924166,
,,,,34,0,34,0,,,,,,,,,,,,,,,,,,,,,,1655.2738319998607,None,,,,,,,,,,,,,,,,,notice,109,35,silent,new,null,1653.850602899678,None,1653.850602899678,None,6,0.657477299682796,1653.850602899678,None,0.657477299682796,1654.5304421000183,None,1655.040252099745,None,1655.040252099745,None,r,0.21180739998817444,1655.040252099745,None,0.21180739998817444,,,85 Silent,001,2022_Nov_17_1047,ProdSingRedoBetween,2021.2.3,60.40226702924166,
,,,,35,0,35,0,,,,,,,,,,,,,,,,,,,,,,1657.0538649000227,None,,,,,,,,,,,,,,,,,nation,92,36,silent,new,null,1655.7774229999632,None,1655.7774229999632,None,6,0.42649680003523827,1655.7774229999632,None,0.42649680003523827,1656.2246171003208,None,1656.7290784996003,None,1656.7290784996003,None,r,0.2830103002488613,1656.7290784996003,None,0.2830103002488613,,,85 Silent,001,2022_Nov_17_1047,ProdSingRedoBetween,2021.2.3,60.40226702924166,
,,,,36,0,36,0,,,,,,,,,,,,,,,,,,,,,,1658.977229299955,None,,,,,,,,,,,,,,,,,fashion,3,37,silent,old,yellow,1657.570918499492,None,1657.570918499492,None,6,0.7850430002436042,1657.570918499492,None,0.7850430002436042,1658.3810654003173,None,1658.8993536001071,None,1658.8993536001071,None,r,0.05677200015634298,1658.8993536001071,None,0.05677200015634298,,,85 Silent,001,2022_Nov_17_1047,ProdSingRedoBetween,2021.2.3,60.40226702924166,
,,,,37,0,37,0,,,,,,,,,,,,,,,,,,,,,,1660.8792642001063,None,,,,,,,,,,,,,,,,,month,46,38,silent,old,blue,1659.4822674999014,None,1659.4822674999014,None,6,0.8417277997359633,1659.4822674999014,None,0.8417277997359633,1660.3452653000131,None,1660.846072100103,None,1660.846072100103,None,r,0.005924300290644169,1660.846072100103,None,0.005924300290644169,,,85 Silent,001,2022_Nov_17_1047,ProdSingRedoBetween,2021.2.3,60.40226702924166,
,,,,38,0,38,0,,,,,,,,,,,,,,,,,,,,,,1662.4476372003555,None,,,,,,,,,,,,,,,,,south,151,39,silent,new,null,1661.3797752000391,None,1661.3797752000391,None,6,0.44009390007704496,1661.3797752000391,None,0.44009390007704496,1661.8470684997737,None,1662.3475492997095,None,1662.3475492997095,None,r,0.07233200035989285,1662.3475492997095,None,0.07233200035989285,,,85 Silent,001,2022_Nov_17_1047,ProdSingRedoBetween,2021.2.3,60.40226702924166,
,,,,39,0,39,0,,,,,,,,,,,,,,,,,,,,,,1664.3191376002505,None,,,,,,,,,,,,,,,,,power,145,40,silent,new,null,1662.951394699514,None,1662.951394699514,None,6,0.7885749004781246,1662.951394699514,None,0.7885749004781246,1663.7669452996925,None,1664.2702751001343,None,1664.2702751001343,None,r,0.029939400032162666,1664.2702751001343,None,0.029939400032162666,,,85 Silent,001,2022_Nov_17_1047,ProdSingRedoBetween,2021.2.3,60.40226702924166,
,,,,40,0,40,0,,,,,,,,,,,,,,,,,,,,,,1666.5013432996348,None,,,,,,,,,,,,,,,,,drama,82,41,silent,old,red,1664.8388970997185,None,1664.8388970997185,None,6,0.5491939000785351,1664.8388970997185,None,0.5491939000785351,1665.4201616998762,None,1665.937339199707,None,1665.937339199707,None,r,0.5465893996879458,1665.937339199707,None,0.5465893996879458,,,85 Silent,001,2022_Nov_17_1047,ProdSingRedoBetween,2021.2.3,60.40226702924166,
,,,,41,0,41,0,,,,,,,,,,,,,,,,,,,,,,1668.0722241997719,None,,,,,,,,,,,,,,,,,emergency,91,42,silent,new,null,1667.0208433996886,None,1667.0208433996886,None,6,0.2711409004405141,1667.0208433996886,None,0.2711409004405141,1667.3235280998051,None,1667.8363242000341,None,1667.8363242000341,None,r,0.207621899433434,1667.8363242000341,None,0.207621899433434,,,85 Silent,001,2022_Nov_17_1047,ProdSingRedoBetween,2021.2.3,60.40226702924166,
,,,,42,0,42,0,,,,,,,,,,,,,,,,,,,,,,1670.0063221994787,None,,,,,,,,,,,,,,,,,touch,128,43,silent,new,null,1668.6037683999166,None,1668.6037683999166,None,6,0.5281528998166323,1668.6037683999166,None,0.5281528998166323,1669.1539642997086,None,1669.6546868998557,None,1669.6546868998557,None,r,0.3331677997484803,1669.6546868998557,None,0.3331677997484803,,,85 Silent,001,2022_Nov_17_1047,ProdSingRedoBetween,2021.2.3,60.40226702924166,
,,,,43,0,43,0,,,,,,,,,,,,,,,,,,,,,,1671.806905100122,None,,,,,,,,,,,,,,,,,character,161,44,silent,new,null,1670.5153067996725,None,1670.5153067996725,None,6,0.5767505001276731,1670.5153067996725,None,0.5767505001276731,1671.1299026003107,None,1671.6399991996586,None,1671.6399991996586,None,r,0.14800000004470348,1671.6399991996586,None,0.14800000004470348,,,85 Silent,001,2022_Nov_17_1047,ProdSingRedoBetween,2021.2.3,60.40226702924166,
,,,,44,0,44,0,,,,,,,,,,,,,,,,,,,,,,1673.3584485994652,None,,,,,,,,,,,,,,,,,audience,77,45,silent,old,red,1672.313284999691,None,1672.313284999691,None,6,0.33064720034599304,1672.313284999691,None,0.33064720034599304,1672.6750256996602,None,1673.180147900246,None,1673.180147900246,None,r,0.15199500042945147,1673.180147900246,None,0.15199500042945147,,,85 Silent,001,2022_Nov_17_1047,ProdSingRedoBetween,2021.2.3,60.40226702924166,
,,,,45,0,45,0,,,,,,,,,,,,,,,,,,,,,,1675.5447738002986,None,,,,,,,,,,,,,,,,,engineer,141,46,silent,new,null,1673.866943099536,None,1673.866943099536,None,6,0.43294949922710657,1673.866943099536,None,0.43294949922710657,1674.327289399691,None,1674.8323953999206,None,1674.8323953999206,None,r,0.6836091997101903,1674.8323953999206,None,0.6836091997101903,,,85 Silent,001,2022_Nov_17_1047,ProdSingRedoBetween,2021.2.3,60.40226702924166,
,,,,46,0,46,0,,,,,,,,,,,,,,,,,,,,,,1677.0954929003492,None,,,,,,,,,,,,,,,,,build,49,47,silent,old,blue,1676.05169450026,None,1676.05169450026,None,6,0.4323690002784133,1676.05169450026,None,0.4323690002784133,1676.5215031001717,None,1677.0306593002751,None,1677.0306593002751,None,r,0.045345100574195385,1677.0306593002751,None,0.045345100574195385,,,85 Silent,001,2022_Nov_17_1047,ProdSingRedoBetween,2021.2.3,60.40226702924166,
,,,,47,0,47,0,,,,,,,,,,,,,,,,,,,,,,1678.8809131002054,None,,,,,,,,,,,,,,,,,story,162,48,silent,new,null,1677.613428699784,None,1677.613428699784,None,6,0.5746550001204014,1677.613428699784,None,0.5746550001204014,1678.2228720001876,None,1678.7341713998467,None,1678.7341713998467,None,r,0.11780539993196726,1678.7341713998467,None,0.11780539993196726,,,85 Silent,001,2022_Nov_17_1047,ProdSingRedoBetween,2021.2.3,60.40226702924166,
,,,,48,0,48,0,,,,,,,,,,,,,,,,,,,,,,1680.4320964999497,None,,,,,,,,,,,,,,,,,smell,95,49,silent,new,null,1679.3984059998766,None,1679.3984059998766,None,6,0.4375587999820709,1679.3984059998766,None,0.4375587999820709,1679.8660399001092,None,1680.3654803996906,None,1680.3654803996906,None,r,0.03846680000424385,1680.3654803996906,None,0.03846680000424385,,,85 Silent,001,2022_Nov_17_1047,ProdSingRedoBetween,2021.2.3,60.40226702924166,
,,,,49,0,49,0,,,,,,,,,,,,,,,,,,,,,,1681.9359240997583,None,,,,,,,,,,,,,,,,,community,100,50,silent,new,null,1680.9446449996904,None,1680.9446449996904,None,6,0.28335809987038374,1680.9446449996904,None,0.28335809987038374,1681.2559164995328,None,1681.7717850999907,None,1681.7717850999907,None,r,0.13627769984304905,1681.7717850999907,None,0.13627769984304905,,,85 Silent,001,2022_Nov_17_1047,ProdSingRedoBetween,2021.2.3,60.40226702924166,
,,,,50,0,50,0,,,,,,,,,,,,,,,,,,,,,,1684.0691195996478,None,,,,,,,,,,,,,,,,,minute,165,51,silent,new,null,1682.457309199497,None,1682.457309199497,None,6,0.8987555000931025,1682.457309199497,None,0.8987555000931025,1683.392077899538,None,1683.9056364996359,None,1683.9056364996359,None,r,0.1462496006861329,1683.9056364996359,None,0.1462496006861329,,,85 Silent,001,2022_Nov_17_1047,ProdSingRedoBetween,2021.2.3,60.40226702924166,
,,,,51,0,51,0,,,,,,,,,,,,,,,,,,,,,,1685.5905663995072,None,,,,,,,,,,,,,,,,,store,124,52,silent,new,null,1684.5774256000295,None,1684.5774256000295,None,6,0.4184099994599819,1684.5774256000295,None,0.4184099994599819,1685.025246099569,None,1685.5372369000688,None,1685.5372369000688,None,r,0.018569699488580227,1685.5372369000688,None,0.018569699488580227,,,85 Silent,001,2022_Nov_17_1047,ProdSingRedoBetween,2021.2.3,60.40226702924166,
,,,,52,0,52,0,,,,,,,,,,,,,,,,,,,,,,1686.9553118003532,None,,,,,,,,,,,,,,,,,problem,44,53,silent,old,blue,1686.1095222001895,None,1686.1095222001895,None,6,0.2543199993669987,1686.1095222001895,None,0.2543199993669987,1686.4053905997425,None,1686.9054140001535,None,1686.9054140001535,None,r,0.026592499576509,1686.9054140001535,None,0.026592499576509,,,85 Silent,001,2022_Nov_17_1047,ProdSingRedoBetween,2021.2.3,60.40226702924166,
,,,,53,0,53,0,,,,,,,,,,,,,,,,,,,,,,1688.3270538002253,None,,,,,,,,,,,,,,,,,career,177,54,silent,new,null,1687.4589609997347,None,1687.4589609997347,None,6,0.24103480018675327,1687.4589609997347,None,0.24103480018675327,1687.7292146002874,None,1688.2399966996163,None,1688.2399966996163,None,r,0.06005659978836775,1688.2399966996163,None,0.06005659978836775,,,85 Silent,001,2022_Nov_17_1047,ProdSingRedoBetween,2021.2.3,60.40226702924166,
,,,,54,0,54,0,,,,,,,,,,,,,,,,,,,,,,1690.2418668000028,None,,,,,,,,,,,,,,,,,judge,120,55,silent,new,null,1688.848671699874,None,1688.848671699874,None,6,0.32363149989396334,1688.848671699874,None,0.32363149989396334,1689.2038794001564,None,1689.7107916995883,None,1689.7107916995883,None,r,0.5011325003579259,1689.7107916995883,None,0.5011325003579259,,,85 Silent,001,2022_Nov_17_1047,ProdSingRedoBetween,2021.2.3,60.40226702924166,
,,,,55,0,55,0,,,,,,,,,,,,,,,,,,,,,,1692.4605802996084,None,,,,,,,,,,,,,,,,,object,110,56,silent,new,null,1690.7545521995053,None,1690.7545521995053,None,6,0.9133730996400118,1690.7545521995053,None,0.9133730996400118,1691.6945949001238,None,1692.193941500038,None,1692.193941500038,None,r,0.24195150006562471,1692.193941500038,None,0.24195150006562471,,,85 Silent,001,2022_Nov_17_1047,ProdSingRedoBetween,2021.2.3,60.40226702924166,
,,,,56,0,56,0,,,,,,,,,,,,,,,,,,,,,,1694.1625974001363,None,,,,,,,,,,,,,,,,,grade,5,57,silent,old,yellow,1692.9626548998058,None,1692.9626548998058,None,6,0.5132638998329639,1692.9626548998058,None,0.5132638998329639,1693.4951615994796,None,1693.9958870997652,None,1693.9958870997652,None,r,0.1441087992861867,1693.9958870997652,None,0.1441087992861867,,,85 Silent,001,2022_Nov_17_1047,ProdSingRedoBetween,2021.2.3,60.40226702924166,
,,,,57,0,57,0,,,,,,,,,,,,,,,,,,,,,,1695.764138000086,None,,,,,,,,,,,,,,,,,collection,175,58,silent,new,null,1694.6660086996853,None,1694.6660086996853,None,6,0.4578957995399833,1694.6660086996853,None,0.4578957995399833,1695.1469272002578,None,1695.6510916994885,None,1695.6510916994885,None,r,0.08877149969339371,1695.6510916994885,None,0.08877149969339371,,,85 Silent,001,2022_Nov_17_1047,ProdSingRedoBetween,2021.2.3,60.40226702924166,
,,,,58,0,58,0,,,,,,,,,,,,,,,,,,,,,,1697.7496220003814,None,,,,,,,,,,,,,,,,,guest,69,59,silent,old,red,1696.272448300384,None,1696.272448300384,None,6,0.6913488004356623,1696.272448300384,None,0.6913488004356623,1696.9836497996002,None,1697.4992207996547,None,1697.4992207996547,None,r,0.22457020077854395,1697.4992207996547,None,0.22457020077854395,,,85 Silent,001,2022_Nov_17_1047,ProdSingRedoBetween,2021.2.3,60.40226702924166,
,,,,59,0,59,0,,,,,,,,,,,,,,,,,,,,,,1703.3550351997837,None,,,,,,,,,,,,,,,,,platform,168,60,silent,new,null,1698.2595485001802,None,1698.2595485001802,None,6,4.120230900123715,1698.2595485001802,None,4.120230900123715,1702.4049615999684,None,1702.904358400032,None,1702.904358400032,None,r,0.4355283994227648,1702.904358400032,None,0.4355283994227648,,,85 Silent,001,2022_Nov_17_1047,ProdSingRedoBetween,2021.2.3,60.40226702924166,
,,,,60,0,60,0,,,,,,,,,,,,,,,,,,,,,,1706.431823999621,None,,,,,,,,,,,,,,,,,skill,159,61,silent,new,null,1703.8629935001954,None,1703.8629935001954,None,6,1.9249050999060273,1703.8629935001954,None,1.9249050999060273,1705.812042299658,None,1706.3271479997784,None,1706.3271479997784,None,r,0.07709799986332655,1706.3271479997784,None,0.07709799986332655,,,85 Silent,001,2022_Nov_17_1047,ProdSingRedoBetween,2021.2.3,60.40226702924166,
,,,,61,0,61,0,,,,,,,,,,,,,,,,,,,,,,1708.3599418997765,None,,,,,,,,,,,,,,,,,message,58,62,silent,old,blue,1706.9507010998204,None,1706.9507010998204,None,6,0.8131717005744576,1706.9507010998204,None,0.8131717005744576,1707.7930576996878,None,1708.293370200321,None,1708.293370200321,None,r,0.03852539975196123,1708.293370200321,None,0.03852539975196123,,,85 Silent,001,2022_Nov_17_1047,ProdSingRedoBetween,2021.2.3,60.40226702924166,
,,,,62,0,62,0,,,,,,,,,,,,,,,,,,,,,,1711.9970073997974,None,,,,,,,,,,,,,,,,,addition,40,63,silent,old,blue,1708.870549700223,None,1708.870549700223,None,6,1.7575676999986172,1708.870549700223,None,1.7575676999986172,1710.656414099969,None,1711.1628235001117,None,1711.1628235001117,None,r,0.8169478001073003,1711.1628235001117,None,0.8169478001073003,,,85 Silent,001,2022_Nov_17_1047,ProdSingRedoBetween,2021.2.3,60.40226702924166,
,,,,63,0,63,0,,,,,,,,,,,,,,,,,,,,,,1714.649588899687,None,,,,,,,,,,,,,,,,,shape,0,64,silent,old,yellow,1712.5049877995625,None,1712.5049877995625,None,6,1.1309711001813412,1712.5049877995625,None,1.1309711001813412,1713.6716596996412,None,1714.183134299703,None,1714.183134299703,None,r,0.4447489995509386,1714.183134299703,None,0.4447489995509386,,,85 Silent,001,2022_Nov_17_1047,ProdSingRedoBetween,2021.2.3,60.40226702924166,
,,,,64,0,64,0,,,,,,,,,,,,,,,,,,,,,,1717.287259399891,None,,,,,,,,,,,,,,,,,cover,173,65,silent,new,null,1715.1534840995446,None,1715.1534840995446,None,6,1.474349900148809,1715.1534840995446,None,1.474349900148809,1716.6524392003193,None,1717.1521729994565,None,1717.1521729994565,None,r,0.10780460014939308,1717.1521729994565,None,0.10780460014939308,,,85 Silent,001,2022_Nov_17_1047,ProdSingRedoBetween,2021.2.3,60.40226702924166,
,,,,65,0,65,0,,,,,,,,,,,,,,,,,,,,,,1719.206659800373,None,,,,,,,,,,,,,,,,,quantity,38,66,silent,old,blue,1717.8109969003126,None,1717.8109969003126,None,6,0.6088213007897139,1717.8109969003126,None,0.6088213007897139,1718.4385869000107,None,1718.957708899863,None,1718.957708899863,None,r,0.22221210040152073,1718.957708899863,None,0.22221210040152073,,,85 Silent,001,2022_Nov_17_1047,ProdSingRedoBetween,2021.2.3,60.40226702924166,
,,,,66,0,66,0,,,,,,,,,,,,,,,,,,,,,,1721.1727082999423,None,,,,,,,,,,,,,,,,,childhood,15,67,silent,old,yellow,1719.7283637998626,None,1719.7283637998626,None,6,0.7315076999366283,1719.7283637998626,None,0.7315076999366283,1720.4887809995562,None,1720.9958731997758,None,1720.9958731997758,None,r,0.1520658005028963,1720.9958731997758,None,0.1520658005028963,,,85 Silent,001,2022_Nov_17_1047,ProdSingRedoBetween,2021.2.3,60.40226702924166,
,,,,67,0,67,0,,,,,,,,,,,,,,,,,,,,,,1723.259834899567,None,,,,,,,,,,,,,,,,,husband,9,68,silent,old,yellow,1721.6831058003008,None,1721.6831058003008,None,6,1.0086882002651691,1721.6831058003008,None,1.0086882002651691,1722.7107702000067,None,1723.2294199001044,None,1723.2294199001044,None,r,0.00664759986102581,1723.2294199001044,None,0.00664759986102581,,,85 Silent,001,2022_Nov_17_1047,ProdSingRedoBetween,2021.2.3,60.40226702924166,
,,,,68,0,68,0,,,,,,,,,,,,,,,,,,,,,,1725.212342900224,None,,,,,,,,,,,,,,,,,passage,1,69,silent,old,yellow,1723.7778802001849,None,1723.7778802001849,None,6,0.6420257994905114,1723.7778802001849,None,0.6420257994905114,1724.4446690995246,None,1724.9627245999873,None,1724.9627245999873,None,r,0.21741420030593872,1724.9627245999873,None,0.21741420030593872,,,85 Silent,001,2022_Nov_17_1047,ProdSingRedoBetween,2021.2.3,60.40226702924166,
,,,,69,0,69,0,,,,,,,,,,,,,,,,,,,,,,1726.795057600364,None,,,,,,,,,,,,,,,,,election,55,70,silent,old,blue,1725.730468600057,None,1725.730468600057,None,6,0.39339849911630154,1725.730468600057,None,0.39339849911630154,1726.1442873002961,None,1726.651328300126,None,1726.651328300126,None,r,0.11277069989591837,1726.651328300126,None,0.11277069989591837,,,85 Silent,001,2022_Nov_17_1047,ProdSingRedoBetween,2021.2.3,60.40226702924166,
,,,,70,0,70,0,,,,,,,,,,,,,,,,,,,,,,1728.380778499879,None,,,,,,,,,,,,,,,,,public,169,71,silent,new,null,1727.2988996999338,None,1727.2988996999338,None,6,0.3609535004943609,1727.2988996999338,None,0.3609535004943609,1727.6838408000767,None,1728.196492999792,None,1728.196492999792,None,r,0.159438400529325,1728.196492999792,None,0.159438400529325,,,85 Silent,001,2022_Nov_17_1047,ProdSingRedoBetween,2021.2.3,60.40226702924166,
,,,,71,0,71,0,,,,,,,,,,,,,,,,,,,,,,1730.3998550996184,None,,,,,,,,,,,,,,,,,provision,101,72,silent,new,null,1728.8887147996575,None,1728.8887147996575,None,6,0.6591093996539712,1728.8887147996575,None,0.6591093996539712,1729.567068000324,None,1730.0883240001276,None,1730.0883240001276,None,r,0.2916480004787445,1730.0883240001276,None,0.2916480004787445,,,85 Silent,001,2022_Nov_17_1047,ProdSingRedoBetween,2021.2.3,60.40226702924166,
,,,,72,0,72,0,,,,,,,,,,,,,,,,,,,,,,1732.0669085998088,None,,,,,,,,,,,,,,,,,society,56,73,silent,old,blue,1730.9039559997618,None,1730.9039559997618,None,6,0.46778650023043156,1730.9039559997618,None,0.46778650023043156,1731.4007088001817,None,1731.9002598999068,None,1731.9002598999068,None,r,0.13566080015152693,1731.9002598999068,None,0.13566080015152693,,,85 Silent,001,2022_Nov_17_1047,ProdSingRedoBetween,2021.2.3,60.40226702924166,
,,,,73,0,73,0,,,,,,,,,,,,,,,,,,,,,,1733.701936500147,None,,,,,,,,,,,,,,,,,tennis,119,74,silent,new,null,1732.5745727000758,None,1732.5745727000758,None,6,0.43726509995758533,1732.5745727000758,None,0.43726509995758533,1733.036018700339,None,1733.5349925002083,None,1733.5349925002083,None,r,0.14878250006586313,1733.5349925002083,None,0.14878250006586313,,,85 Silent,001,2022_Nov_17_1047,ProdSingRedoBetween,2021.2.3,60.40226702924166,
,,,,74,0,74,0,,,,,,,,,,,,,,,,,,,,,,1735.3536337995902,None,,,,,,,,,,,,,,,,,guard,171,75,silent,new,null,1734.2105029998347,None,1734.2105029998347,None,6,0.39336370024830103,1734.2105029998347,None,0.39336370024830103,1734.6238697003573,None,1735.1412164000794,None,1735.1412164000794,None,r,0.1826945999637246,1735.1412164000794,None,0.1826945999637246,,,85 Silent,001,2022_Nov_17_1047,ProdSingRedoBetween,2021.2.3,60.40226702924166,
,,,,75,0,75,0,,,,,,,,,,,,,,,,,,,,,,1737.205294500105,None,,,,,,,,,,,,,,,,,portion,84,76,silent,old,red,1735.8577380999923,None,1735.8577380999923,None,6,0.7220708997920156,1735.8577380999923,None,0.7220708997920156,1736.6056669000536,None,1737.1058160001412,None,1737.1058160001412,None,r,0.08198780007660389,1737.1058160001412,None,0.08198780007660389,,,85 Silent,001,2022_Nov_17_1047,ProdSingRedoBetween,2021.2.3,60.40226702924166,
,,,,76,0,76,0,,,,,,,,,,,,,,,,,,,,,,1738.8413324002177,None,,,,,,,,,,,,,,,,,growth,150,77,silent,new,null,1737.7100237999111,None,1737.7100237999111,None,6,0.4058320000767708,1737.7100237999111,None,0.4058320000767708,1738.1428531995043,None,1738.6601941995323,None,1738.6601941995323,None,r,0.1517874002456665,1738.6601941995323,None,0.1517874002456665,,,85 Silent,001,2022_Nov_17_1047,ProdSingRedoBetween,2021.2.3,60.40226702924166,
,,,,77,0,77,0,,,,,,,,,,,,,,,,,,,,,,1740.2585092997178,None,,,,,,,,,,,,,,,,,sound,43,78,silent,old,blue,1739.350971199572,None,1739.350971199572,None,6,0.30093609914183617,1739.350971199572,None,0.30093609914183617,1739.6765991002321,None,1740.197783799842,None,1740.197783799842,None,r,0.03803099971264601,1740.197783799842,None,0.03803099971264601,,,85 Silent,001,2022_Nov_17_1047,ProdSingRedoBetween,2021.2.3,60.40226702924166,
,,,,78,0,78,0,,,,,,,,,,,,,,,,,,,,,,1741.4760907003656,None,,,,,,,,,,,,,,,,,disease,64,79,silent,old,red,1740.7753063002601,None,1740.7753063002601,None,6,0.11666239984333515,1740.7753063002601,None,0.11666239984333515,1740.919430599548,None,1741.4287729002535,None,1741.4287729002535,None,r,0.03102090023458004,1741.4287729002535,None,0.03102090023458004,,,85 Silent,001,2022_Nov_17_1047,ProdSingRedoBetween,2021.2.3,60.40226702924166,
,,,,79,0,79,0,,,,,,,,,,,,,,,,,,,,,,1742.777596999891,None,,,,,,,,,,,,,,,,,curve,115,80,silent,new,null,1741.9950422002003,None,1741.9950422002003,None,6,0.17669080011546612,1741.9950422002003,None,0.17669080011546612,1742.1950848000124,None,1742.6969159999862,None,1742.6969159999862,None,r,0.05889880005270243,1742.6969159999862,None,0.05889880005270243,,,85 Silent,001,2022_Nov_17_1047,ProdSingRedoBetween,2021.2.3,60.40226702924166,
,,,,80,0,80,0,,,,,,,,,,,,,,,,,,,,,,1744.1288294997066,None,,,,,,,,,,,,,,,,,column,147,81,silent,new,null,1743.285213300027,None,1743.285213300027,None,6,0.2226981995627284,1743.285213300027,None,0.2226981995627284,1743.529471599497,None,1744.0288006002083,None,1744.0288006002083,None,r,0.07112660072743893,1744.0288006002083,None,0.07112660072743893,,,85 Silent,001,2022_Nov_17_1047,ProdSingRedoBetween,2021.2.3,60.40226702924166,
,,,,81,0,81,0,,,,,,,,,,,,,,,,,,,,,,1745.697749699466,None,,,,,,,,,,,,,,,,,court,160,82,silent,new,null,1744.6322242002934,None,1744.6322242002934,None,6,0.4035251000896096,1744.6322242002934,None,0.4035251000896096,1745.0630446998402,None,1745.5637237997726,None,1745.5637237997726,None,r,0.11196610052138567,1745.5637237997726,None,0.11196610052138567,,,85 Silent,001,2022_Nov_17_1047,ProdSingRedoBetween,2021.2.3,60.40226702924166,
,,,,82,0,82,0,,,,,,,,,,,,,,,,,,,,,,1747.834808900021,None,,,,,,,,,,,,,,,,,little,136,83,silent,new,null,1746.2009664997458,None,1746.2009664997458,None,6,0.6988375997170806,1746.2009664997458,None,0.6988375997170806,1746.916325699538,None,1747.415629199706,None,1747.415629199706,None,r,0.39628230035305023,1747.415629199706,None,0.39628230035305023,,,85 Silent,001,2022_Nov_17_1047,ProdSingRedoBetween,2021.2.3,60.40226702924166,
,,,,83,0,83,0,,,,,,,,,,,,,,,,,,,,,,1749.318281499669,None,,,,,,,,,,,,,,,,,error,19,84,silent,old,yellow,1748.349968499504,None,1748.349968499504,None,6,0.3018422992900014,1748.349968499504,None,0.3018422992900014,1748.6694299001247,None,1749.1940353997052,None,1749.1940353997052,None,r,0.09784279949963093,1749.1940353997052,None,0.09784279949963093,,,85 Silent,001,2022_Nov_17_1047,ProdSingRedoBetween,2021.2.3,60.40226702924166,
,,,,84,0,84,0,,,,,,,,,,,,,,,,,,,,,,1751.0380469998345,None,,,,,,,,,,,,,,,,,charter,138,85,silent,new,null,1749.822883600369,None,1749.822883600369,None,6,0.3249299004673958,1749.822883600369,None,0.3249299004673958,1750.1700705997646,None,1750.676234100014,None,1750.676234100014,None,r,0.33560899924486876,1750.676234100014,None,0.33560899924486876,,,85 Silent,001,2022_Nov_17_1047,ProdSingRedoBetween,2021.2.3,60.40226702924166,
,,,,85,0,85,0,,,,,,,,,,,,,,,,,,,,,,1752.6372395996004,None,,,,,,,,,,,,,,,,,shock,143,86,silent,new,null,1751.556648899801,None,1751.556648899801,None,6,0.35121320001780987,1751.556648899801,None,0.35121320001780987,1751.9388480996713,None,1752.458089900203,None,1752.458089900203,None,r,0.16167689952999353,1752.458089900203,None,0.16167689952999353,,,85 Silent,001,2022_Nov_17_1047,ProdSingRedoBetween,2021.2.3,60.40226702924166,
,,,,86,0,86,0,,,,,,,,,,,,,,,,,,,,,,1754.7229388998821,None,,,,,,,,,,,,,,,,,mechanical,16,87,silent,old,yellow,1753.1467479998246,None,1753.1467479998246,None,6,0.8090629996731877,1753.1467479998246,None,0.8090629996731877,1753.9720093999058,None,1754.4737381003797,None,1754.4737381003797,None,r,0.21804559975862503,1754.4737381003797,None,0.21804559975862503,,,85 Silent,001,2022_Nov_17_1047,ProdSingRedoBetween,2021.2.3,60.40226702924166,
,,,,87,0,87,0,,,,,,,,,,,,,,,,,,,,,,1756.608040000312,None,,,,,,,,,,,,,,,,,crowd,114,88,silent,new,null,1755.2327720997855,None,1755.2327720997855,None,6,0.5871173003688455,1755.2327720997855,None,0.5871173003688455,1755.842209099792,None,1756.3411699002609,None,1756.3411699002609,None,r,0.24662030022591352,1756.3411699002609,None,0.24662030022591352,,,85 Silent,001,2022_Nov_17_1047,ProdSingRedoBetween,2021.2.3,60.40226702924166,
,,,,88,0,88,0,,,,,,,,,,,,,,,,,,,,,,1758.6432079998776,None,,,,,,,,,,,,,,,,,style,74,89,silent,old,red,1757.111067599617,None,1757.111067599617,None,6,0.6767218997702003,1757.111067599617,None,0.6767218997702003,1757.8106945995241,None,1758.313615899533,None,1758.313615899533,None,r,0.30643470026552677,1758.313615899533,None,0.30643470026552677,,,85 Silent,001,2022_Nov_17_1047,ProdSingRedoBetween,2021.2.3,60.40226702924166,
,,,,89,0,89,0,,,,,,,,,,,,,,,,,,,,,,1760.41166790016,None,,,,,,,,,,,,,,,,,travel,126,90,silent,new,null,1759.1572700003162,None,1759.1572700003162,None,6,0.4463990004733205,1759.1572700003162,None,0.4463990004733205,1759.6314198998734,None,1760.1448485003784,None,1760.1448485003784,None,r,0.24287519976496696,1760.1448485003784,None,0.24287519976496696,,,85 Silent,001,2022_Nov_17_1047,ProdSingRedoBetween,2021.2.3,60.40226702924166,
,,,,90,0,90,0,,,,,,,,,,,,,,,,,,,,,,1762.046894500032,None,,,,,,,,,,,,,,,,,native,116,91,silent,new,null,1760.9261868996546,None,1760.9261868996546,None,6,0.34167400002479553,1760.9261868996546,None,0.34167400002479553,1761.2962127998471,None,1761.8029809994623,None,1761.8029809994623,None,r,0.21672589983791113,1761.8029809994623,None,0.21672589983791113,,,85 Silent,001,2022_Nov_17_1047,ProdSingRedoBetween,2021.2.3,60.40226702924166,
,,,,91,0,91,0,,,,,,,,,,,,,,,,,,,,,,1763.5483328998089,None,,,,,,,,,,,,,,,,,sweet,53,92,silent,old,blue,1762.5550247002393,None,1762.5550247002393,None,6,0.3208194002509117,1762.5550247002393,None,0.3208194002509117,1762.9079860001802,None,1763.4151392998174,None,1763.4151392998174,None,r,0.10876830015331507,1763.4151392998174,None,0.10876830015331507,,,85 Silent,001,2022_Nov_17_1047,ProdSingRedoBetween,2021.2.3,60.40226702924166,
,,,,92,0,92,0,,,,,,,,,,,,,,,,,,,,,,1765.1496264999732,None,,,,,,,,,,,,,,,,,point,21,93,silent,old,yellow,1764.065475399606,None,1764.065475399606,None,6,0.3622487001121044,1764.065475399606,None,0.3622487001121044,1764.4593356996775,None,1764.9679332002997,None,1764.9679332002997,None,r,0.1557649001479149,1764.9679332002997,None,0.1557649001479149,,,85 Silent,001,2022_Nov_17_1047,ProdSingRedoBetween,2021.2.3,60.40226702924166,
,,,,93,0,93,0,,,,,,,,,,,,,,,,,,,,,,1766.9348686002195,None,,,,,,,,,,,,,,,,,capital,132,94,silent,new,null,1765.6536595001817,None,1765.6536595001817,None,6,0.23008709959685802,1765.6536595001817,None,0.23008709959685802,1765.902964499779,None,1766.4179111998528,None,1766.4179111998528,None,r,0.4978723991662264,1766.4179111998528,None,0.4978723991662264,,,85 Silent,001,2022_Nov_17_1047,ProdSingRedoBetween,2021.2.3,60.40226702924166,
,,,,94,0,94,0,,,,,,,,,,,,,,,,,,,,,,1770.021482899785,None,,,,,,,,,,,,,,,,,trail,135,95,silent,new,null,1767.4372296994552,None,1767.4372296994552,None,6,1.8625344997271895,1767.4372296994552,None,1.8625344997271895,1769.3225354002789,None,1769.8380910996348,None,1769.8380910996348,None,r,0.1656649000942707,1769.8380910996348,None,0.1656649000942707,,,85 Silent,001,2022_Nov_17_1047,ProdSingRedoBetween,2021.2.3,60.40226702924166,
,,,,95,0,95,0,,,,,,,,,,,,,,,,,,,,,,1772.0081775002182,None,,,,,,,,,,,,,,,,,front,14,96,silent,old,yellow,1770.5217803996056,None,1770.5217803996056,None,6,0.7779450006783009,1770.5217803996056,None,0.7779450006783009,1771.3229748997837,None,1771.826190999709,None,1771.826190999709,None,r,0.15354449953883886,1771.826190999709,None,0.15354449953883886,,,85 Silent,001,2022_Nov_17_1047,ProdSingRedoBetween,2021.2.3,60.40226702924166,
,,,,96,0,96,0,,,,,,,,,,,,,,,,,,,,,,1774.6297073997557,None,,,,,,,,,,,,,,,,,beginning,26,97,silent,old,yellow,1772.5087144998834,None,1772.5087144998834,None,6,1.2389844004064798,1772.5087144998834,None,1.2389844004064798,1773.7761107003316,None,1774.2804471999407,None,1774.2804471999407,None,r,0.3153636008501053,1774.2804471999407,None,0.3153636008501053,,,85 Silent,001,2022_Nov_17_1047,ProdSingRedoBetween,2021.2.3,60.40226702924166,
,,,,97,0,97,0,,,,,,,,,,,,,,,,,,,,,,1777.779176400043,None,,,,,,,,,,,,,,,,,history,102,98,silent,new,null,1775.154134299606,None,1775.154134299606,None,6,1.8336212001740932,1775.154134299606,None,1.8336212001740932,1777.014612100087,None,1777.5310490000993,None,1777.5310490000993,None,r,0.22479839995503426,1777.5310490000993,None,0.22479839995503426,,,85 Silent,001,2022_Nov_17_1047,ProdSingRedoBetween,2021.2.3,60.40226702924166,
,,,,98,0,98,0,,,,,,,,,,,,,,,,,,,,,,1780.615403899923,None,,,,,,,,,,,,,,,,,dream,6,99,silent,old,yellow,1778.2873812001199,None,1778.2873812001199,None,6,0.9883672008290887,1778.2873812001199,None,0.9883672008290887,1779.2990483995527,None,1779.8146516997367,None,1779.8146516997367,None,r,0.7811096999794245,1779.8146516997367,None,0.7811096999794245,,,85 Silent,001,2022_Nov_17_1047,ProdSingRedoBetween,2021.2.3,60.40226702924166,
,,,,99,0,99,0,,,,,,,,,,,,,,,,,,,,,,1783.7851708000526,None,,,,,,,,,,,,,,,,,appearance,157,100,silent,new,null,1781.1297639999539,None,1781.1297639999539,None,6,1.617973799817264,1781.1297639999539,None,1.617973799817264,1782.7713385000825,None,1783.2863282002509,None,1783.2863282002509,None,r,0.46940779965370893,1783.2863282002509,None,0.46940779965370893,,,85 Silent,001,2022_Nov_17_1047,ProdSingRedoBetween,2021.2.3,60.40226702924166,
,,,,100,0,100,0,,,,,,,,,,,,,,,,,,,,,,1786.2213337998837,None,,,,,,,,,,,,,,,,,second,13,101,silent,old,yellow,1784.302982199937,None,1784.302982199937,None,6,1.0529158003628254,1784.302982199937,None,1.0529158003628254,1785.3943620994687,None,1785.9084777003154,None,1785.9084777003154,None,r,0.29525529965758324,1785.9084777003154,None,0.29525529965758324,,,85 Silent,001,2022_Nov_17_1047,ProdSingRedoBetween,2021.2.3,60.40226702924166,
,,,,101,0,101,0,,,,,,,,,,,,,,,,,,,,,,1788.8070107996464,None,,,,,,,,,,,,,,,,,weight,94,102,silent,new,null,1786.7304747998714,None,1786.7304747998714,None,6,1.3294486999511719,1786.7304747998714,None,1.3294486999511719,1788.0894384998828,None,1788.5910968994722,None,1788.5910968994722,None,r,0.19655680004507303,1788.5910968994722,None,0.19655680004507303,,,85 Silent,001,2022_Nov_17_1047,ProdSingRedoBetween,2021.2.3,60.40226702924166,
,,,,102,0,102,0,,,,,,,,,,,,,,,,,,,,,,1791.4632527995855,None,,,,,,,,,,,,,,,,,industry,57,103,silent,old,blue,1789.3103467999026,None,1789.3103467999026,None,6,1.3253287998959422,1789.3103467999026,None,1.3253287998959422,1790.6599274994805,None,1791.1718061994761,None,1791.1718061994761,None,r,0.26397319976240396,1791.1718061994761,None,0.26397319976240396,,,85 Silent,001,2022_Nov_17_1047,ProdSingRedoBetween,2021.2.3,60.40226702924166,
,,,,103,0,103,0,,,,,,,,,,,,,,,,,,,,,,1792.9505616994575,None,,,,,,,,,,,,,,,,,leader,137,104,silent,new,null,1791.9809205997735,None,1791.9809205997735,None,6,0.2949641002342105,1791.9809205997735,None,0.2949641002342105,1792.2933986997232,None,1792.7942965999246,None,1792.7942965999246,None,r,0.1297422992065549,1792.7942965999246,None,0.1297422992065549,,,85 Silent,001,2022_Nov_17_1047,ProdSingRedoBetween,2021.2.3,60.40226702924166,
,,,,104,0,104,0,,,,,,,,,,,,,,,,,,,,,,1794.4125435994938,None,,,,,,,,,,,,,,,,,reading,139,105,silent,new,null,1793.4681580998003,None,1793.4681580998003,None,6,0.05549169983714819,1793.4681580998003,None,0.05549169983714819,1793.54492210038,None,1794.045541100204,None,1794.045541100204,None,r,0.34243550058454275,1794.045541100204,None,0.34243550058454275,,,85 Silent,001,2022_Nov_17_1047,ProdSingRedoBetween,2021.2.3,60.40226702924166,
,,,,105,0,105,0,,,,,,,,,,,,,,,,,,,,,,1795.8805534997955,None,,,,,,,,,,,,,,,,,opening,60,106,silent,old,red,1794.917919400148,None,1794.917919400148,None,6,0.30992009956389666,1794.917919400148,None,0.30992009956389666,1795.2501940997317,None,1795.7638940000907,None,1795.7638940000907,None,r,0.08790179993957281,1795.7638940000907,None,0.08790179993957281,,,85 Silent,001,2022_Nov_17_1047,ProdSingRedoBetween,2021.2.3,60.40226702924166,
,,,,106,0,106,0,,,,,,,,,,,,,,,,,,,,,,1797.582209000364,None,,,,,,,,,,,,,,,,,display,97,107,silent,new,null,1796.3951177001,None,1796.3951177001,None,6,0.2806140994653106,1796.3951177001,None,0.2806140994653106,1796.7010468998924,None,1797.2220679996535,None,1797.2220679996535,None,r,0.34161460027098656,1797.2220679996535,None,0.34161460027098656,,,85 Silent,001,2022_Nov_17_1047,ProdSingRedoBetween,2021.2.3,60.40226702924166,
,,,,107,0,107,0,,,,,,,,,,,,,,,,,,,,,,1799.6509886002168,None,,,,,,,,,,,,,,,,,incident,103,108,silent,new,null,1798.0967696001753,None,1798.0967696001753,None,6,0.6109442003071308,1798.0967696001753,None,0.6109442003071308,1798.7360308999196,None,1799.2507429001853,None,1799.2507429001853,None,r,0.36913489922881126,1799.2507429001853,None,0.36913489922881126,,,85 Silent,001,2022_Nov_17_1047,ProdSingRedoBetween,2021.2.3,60.40226702924166,
,,,,108,0,108,0,,,,,,,,,,,,,,,,,,,,,,1802.503694999963,None,,,,,,,,,,,,,,,,,discovery,104,109,silent,new,null,1800.1639590002596,None,1800.1639590002596,None,6,1.4637778997421265,1800.1639590002596,None,1.4637778997421265,1801.6552267996594,None,1802.176346000284,None,1802.176346000284,None,r,0.3074626997113228,1802.176346000284,None,0.3074626997113228,,,85 Silent,001,2022_Nov_17_1047,ProdSingRedoBetween,2021.2.3,60.40226702924166,
,,,,109,0,109,0,,,,,,,,,,,,,,,,,,,,,,1804.6391529003158,None,,,,,,,,,,,,,,,,,master,45,110,silent,old,blue,1803.0123853003606,None,1803.0123853003606,None,6,0.647354799322784,1803.0123853003606,None,0.647354799322784,1803.6896238001063,None,1804.1903000995517,None,1804.1903000995517,None,r,0.4295022999867797,1804.1903000995517,None,0.4295022999867797,,,85 Silent,001,2022_Nov_17_1047,ProdSingRedoBetween,2021.2.3,60.40226702924166,
,,,,110,0,110,0,,,,,,,,,,,,,,,,,,,,,,1807.0749399997294,None,,,,,,,,,,,,,,,,,congress,154,111,silent,new,null,1805.1491930000484,None,1805.1491930000484,None,6,1.0064639002084732,1805.1491930000484,None,1.0064639002084732,1806.1804659999907,None,1806.6915456000715,None,1806.6915456000715,None,r,0.35207580029964447,1806.6915456000715,None,0.35207580029964447,,,85 Silent,001,2022_Nov_17_1047,ProdSingRedoBetween,2021.2.3,60.40226702924166,
,,,,111,0,111,0,,,,,,,,,,,,,,,,,,,,,,1808.593208000064,None,,,,,,,,,,,,,,,,,spoke,93,112,silent,new,null,1807.5764437001199,None,1807.5764437001199,None,6,0.31525509990751743,1807.5764437001199,None,0.31525509990751743,1807.9176660999656,None,1808.43028340023,None,1808.43028340023,None,r,0.13341069966554642,1808.43028340023,None,0.13341069966554642,,,85 Silent,001,2022_Nov_17_1047,ProdSingRedoBetween,2021.2.3,60.40226702924166,
,,,,112,0,112,0,,,,,,,,,,,,,,,,,,,,,,1810.1783171994612,None,,,,,,,,,,,,,,,,,employment,149,113,silent,new,null,1809.104699799791,None,1809.104699799791,None,6,0.29101539961993694,1809.104699799791,None,0.29101539961993694,1809.4120786003768,None,1809.915477000177,None,1809.915477000177,None,r,0.23227460030466318,1809.915477000177,None,0.23227460030466318,,,85 Silent,001,2022_Nov_17_1047,ProdSingRedoBetween,2021.2.3,60.40226702924166,
,,,,113,0,113,0,,,,,,,,,,,,,,,,,,,,,,1812.287931700237,None,,,,,,,,,,,,,,,,,executive,8,114,silent,old,yellow,1810.6916955001652,None,1810.6916955001652,None,6,0.936014199629426,1810.6916955001652,None,0.936014199629426,1811.652664899826,None,1812.1723515000194,None,1812.1723515000194,None,r,0.07969160005450249,1812.1723515000194,None,0.07969160005450249,,,85 Silent,001,2022_Nov_17_1047,ProdSingRedoBetween,2021.2.3,60.40226702924166,
,,,,114,0,114,0,,,,,,,,,,,,,,,,,,,,,,1814.5825552996248,None,,,,,,,,,,,,,,,,,couch,54,115,silent,old,blue,1812.8028053995222,None,1812.8028053995222,None,6,0.9208824997767806,1812.8028053995222,None,0.9208824997767806,1813.7484119003639,None,1814.2490048995242,None,1814.2490048995242,None,r,0.3066166006028652,1814.2490048995242,None,0.3066166006028652,,,85 Silent,001,2022_Nov_17_1047,ProdSingRedoBetween,2021.2.3,60.40226702924166,
,,,,115,0,115,0,,,,,,,,,,,,,,,,,,,,,,1817.4020819002762,None,,,,,,,,,,,,,,,,,country,121,116,silent,new,null,1815.0913006998599,None,1815.0913006998599,None,6,0.3204375999048352,1815.0913006998599,None,0.3204375999048352,1815.4348520999774,None,1815.9390981998295,None,1815.9390981998295,None,r,1.4325340995565057,1815.9390981998295,None,1.4325340995565057,,,85 Silent,001,2022_Nov_17_1047,ProdSingRedoBetween,2021.2.3,60.40226702924166,
,,,,116,0,116,0,,,,,,,,,,,,,,,,,,,,,,1820.2215048996732,None,,,,,,,,,,,,,,,,,scene,125,117,silent,new,null,1817.9025157997385,None,1817.9025157997385,None,6,1.5331800002604723,1817.9025157997385,None,1.5331800002604723,1819.4642802001908,None,1819.9712373996153,None,1819.9712373996153,None,r,0.22449939977377653,1819.9712373996153,None,0.22449939977377653,,,85 Silent,001,2022_Nov_17_1047,ProdSingRedoBetween,2021.2.3,60.40226702924166,
,,,,117,0,117,0,,,,,,,,,,,,,,,,,,,,,,1822.3266338994727,None,,,,,,,,,,,,,,,,,express,164,118,silent,new,null,1820.7432073000818,None,1820.7432073000818,None,6,0.46054149977862835,1820.7432073000818,None,0.46054149977862835,1821.2255710000172,None,1821.7398846000433,None,1821.7398846000433,None,r,0.5678178993985057,1821.7398846000433,None,0.5678178993985057,,,85 Silent,001,2022_Nov_17_1047,ProdSingRedoBetween,2021.2.3,60.40226702924166,
,,,,118,0,118,0,,,,,,,,,,,,,,,,,,,,,,1827.5621482999995,None,,,,,,,,,,,,,,,,,review,67,119,silent,old,red,1822.8504841001704,None,1822.8504841001704,None,6,3.6490780003368855,1822.8504841001704,None,3.6490780003368855,1826.5304952003062,None,1827.0450091995299,None,1827.0450091995299,None,r,0.48655289970338345,1827.0450091995299,None,0.48655289970338345,,,85 Silent,001,2022_Nov_17_1047,ProdSingRedoBetween,2021.2.3,60.40226702924166,
,,,,119,0,119,0,,,,,,,,,,,,,,,,,,,,,,1829.0970825999975,None,,,,,,,,,,,,,,,,,working,22,120,silent,old,yellow,1828.0656329998747,None,1828.0656329998747,None,6,0.40192379988729954,1828.0656329998747,None,0.40192379988729954,1828.5044325999916,None,1829.0189669998363,None,1829.0189669998363,None,r,0.05674740020185709,1829.0189669998363,None,0.05674740020185709,,,85 Silent,001,2022_Nov_17_1047,ProdSingRedoBetween,2021.2.3,60.40226702924166,
,,,,120,0,120,0,,,,,,,,,,,,,,,,,,,,,,1830.548530199565,None,,,,,,,,,,,,,,,,,thick,71,121,silent,old,red,1829.6068748999387,None,1829.6068748999387,None,6,0.31684570014476776,1829.6068748999387,None,0.31684570014476776,1829.9535536998883,None,1830.465242399834,None,1830.465242399834,None,r,0.06668889988213778,1830.465242399834,None,0.06668889988213778,,,85 Silent,001,2022_Nov_17_1047,ProdSingRedoBetween,2021.2.3,60.40226702924166,
,,,,121,0,121,0,,,,,,,,,,,,,,,,,,,,,,1831.9007722996175,None,,,,,,,,,,,,,,,,,answer,130,122,silent,new,null,1831.0542839001864,None,1831.0542839001864,None,6,0.18156810011714697,1831.0542839001864,None,0.18156810011714697,1831.2710283994675,None,1831.7864423999563,None,1831.7864423999563,None,r,0.09716750029474497,1831.7864423999563,None,0.09716750029474497,,,85 Silent,001,2022_Nov_17_1047,ProdSingRedoBetween,2021.2.3,60.40226702924166,
,,,,122,0,122,0,,,,,,,,,,,,,,,,,,,,,,1833.4347719000652,None,,,,,,,,,,,,,,,,,bureau,178,123,silent,new,null,1832.4003660995513,None,1832.4003660995513,None,6,0.24333269987255335,1832.4003660995513,None,0.24333269987255335,1832.6722916001454,None,1833.186150399968,None,1833.186150399968,None,r,0.23350810073316097,1833.186150399968,None,0.23350810073316097,,,85 Silent,001,2022_Nov_17_1047,ProdSingRedoBetween,2021.2.3,60.40226702924166,
,,,,123,0,123,0,,,,,,,,,,,,,,,,,,,,,,1835.0028977999464,None,,,,,,,,,,,,,,,,,fellow,113,124,silent,new,null,1833.9352542003617,None,1833.9352542003617,None,6,0.42859099991619587,1833.9352542003617,None,0.42859099991619587,1834.385633500293,None,1834.8862399002537,None,1834.8862399002537,None,r,0.09342539962381124,1834.8862399002537,None,0.09342539962381124,,,85 Silent,001,2022_Nov_17_1047,ProdSingRedoBetween,2021.2.3,60.40226702924166,
,,,,124,0,124,0,,,,,,,,,,,,,,,,,,,,,,1836.4712356999516,None,,,,,,,,,,,,,,,,,religion,129,125,silent,new,null,1835.5110039999709,None,1835.5110039999709,None,6,0.3485615001991391,1835.5110039999709,None,0.3485615001991391,1835.892171899788,None,1836.4041818995029,None,1836.4041818995029,None,r,0.04740109946578741,1836.4041818995029,None,0.04740109946578741,,,85 Silent,001,2022_Nov_17_1047,ProdSingRedoBetween,2021.2.3,60.40226702924166,
,,,,125,0,125,0,,,,,,,,,,,,,,,,,,,,,,1837.8224149998277,None,,,,,,,,,,,,,,,,,present,99,126,silent,new,null,1836.9831360997632,None,1836.9831360997632,None,6,0.21255929954349995,1836.9831360997632,None,0.21255929954349995,1837.2234463999048,None,1837.739149699919,None,1837.739149699919,None,r,0.06451139971613884,1837.739149699919,None,0.06451139971613884,,,85 Silent,001,2022_Nov_17_1047,ProdSingRedoBetween,2021.2.3,60.40226702924166,
,,,,126,0,126,0,,,,,,,,,,,,,,,,,,,,,,1839.307268699631,None,,,,,,,,,,,,,,,,,oxygen,50,127,silent,old,blue,1838.3280961001292,None,1838.3280961001292,None,6,0.2195755997672677,1838.3280961001292,None,0.2195755997672677,1838.575340599753,None,1839.093966100365,None,1839.093966100365,None,r,0.19777049962431192,1839.093966100365,None,0.19777049962431192,,,85 Silent,001,2022_Nov_17_1047,ProdSingRedoBetween,2021.2.3,60.40226702924166,
,,,,127,0,127,0,,,,,,,,,,,,,,,,,,,,,,1841.377211799845,None,,,,,,,,,,,,,,,,,tough,29,128,silent,old,blue,1839.8126568999141,None,1839.8126568999141,None,6,0.26294609997421503,1839.8126568999141,None,0.26294609997421503,1840.093984699808,None,1840.609638299793,None,1840.609638299793,None,r,0.746204299852252,1840.609638299793,None,0.746204299852252,,,85 Silent,001,2022_Nov_17_1047,ProdSingRedoBetween,2021.2.3,60.40226702924166,
,,,,128,0,128,0,,,,,,,,,,,,,,,,,,,,,,1843.0943149998784,None,,,,,,,,,,,,,,,,,solution,48,129,silent,old,blue,1841.8808472994715,None,1841.8808472994715,None,6,0.39481160044670105,1841.8808472994715,None,0.39481160044670105,1842.3001961000264,None,1842.8144758995622,None,1842.8144758995622,None,r,0.2611830998212099,1842.8144758995622,None,0.2611830998212099,,,85 Silent,001,2022_Nov_17_1047,ProdSingRedoBetween,2021.2.3,60.40226702924166,
,,,,129,0,129,0,,,,,,,,,,,,,,,,,,,,,,1844.9470033999532,None,,,,,,,,,,,,,,,,,dance,172,130,silent,new,null,1843.6053069001064,None,1843.6053069001064,None,6,0.5102756004780531,1843.6053069001064,None,0.5102756004780531,1844.1456693997607,None,1844.6520267995074,None,1844.6520267995074,None,r,0.2716875998303294,1844.6520267995074,None,0.2716875998303294,,,85 Silent,001,2022_Nov_17_1047,ProdSingRedoBetween,2021.2.3,60.40226702924166,
,,,,130,0,130,0,,,,,,,,,,,,,,,,,,,,,,1846.9980958998203,None,,,,,,,,,,,,,,,,,detective,41,131,silent,old,blue,1845.451623099856,None,1845.451623099856,None,6,0.7361514996737242,1845.451623099856,None,0.7361514996737242,1846.2160895001143,None,1846.7312922002748,None,1846.7312922002748,None,r,0.24826959986239672,1846.7312922002748,None,0.24826959986239672,,,85 Silent,001,2022_Nov_17_1047,ProdSingRedoBetween,2021.2.3,60.40226702924166,
,,,,131,0,131,0,,,,,,,,,,,,,,,,,,,,,,1848.869181599468,None,,,,,,,,,,,,,,,,,shear,47,132,silent,old,blue,1847.5109118996188,None,1847.5109118996188,None,6,0.4286861000582576,1847.5109118996188,None,0.4286861000582576,1847.966383700259,None,1848.466503500007,None,1848.466503500007,None,r,0.37726399954408407,1848.466503500007,None,0.37726399954408407,,,85 Silent,001,2022_Nov_17_1047,ProdSingRedoBetween,2021.2.3,60.40226702924166,
,,,,132,0,132,0,,,,,,,,,,,,,,,,,,,,,,1850.7699389001355,None,,,,,,,,,,,,,,,,,broad,4,133,silent,old,yellow,1849.3843489000574,None,1849.3843489000574,None,6,0.6353882998228073,1849.3843489000574,None,0.6353882998228073,1850.0352927995846,None,1850.5354504995048,None,1850.5354504995048,None,r,0.20427459944039583,1850.5354504995048,None,0.20427459944039583,,,85 Silent,001,2022_Nov_17_1047,ProdSingRedoBetween,2021.2.3,60.40226702924166,
,,,,133,0,133,0,,,,,,,,,,,,,,,,,,,,,,1852.7381822997704,None,,,,,,,,,,,,,,,,,candidate,24,134,silent,old,yellow,1851.275848899968,None,1851.275848899968,None,6,0.8160837003961205,1851.275848899968,None,0.8160837003961205,1852.1301980996504,None,1852.6373154995963,None,1852.6373154995963,None,r,0.07037939969450235,1852.6373154995963,None,0.07037939969450235,,,85 Silent,001,2022_Nov_17_1047,ProdSingRedoBetween,2021.2.3,60.40226702924166,
,,,,134,0,134,0,,,,,,,,,,,,,,,,,,,,,,1854.121848399751,None,,,,,,,,,,,,,,,,,atmosphere,107,135,silent,new,null,1853.2478475002572,None,1853.2478475002572,None,6,0.13978479988873005,1853.2478475002572,None,0.13978479988873005,1853.407976699993,None,1853.9249075995758,None,1853.9249075995758,None,r,0.1747300000861287,1853.9249075995758,None,0.1747300000861287,,,85 Silent,001,2022_Nov_17_1047,ProdSingRedoBetween,2021.2.3,60.40226702924166,
,,,,135,0,135,0,,,,,,,,,,,,,,,,,,,,,,1855.644101199694,None,,,,,,,,,,,,,,,,,session,142,136,silent,new,null,1854.6331834001467,None,1854.6331834001467,None,6,0.22641890030354261,1854.6331834001467,None,0.22641890030354261,1854.8913465999067,None,1855.4126332998276,None,1855.4126332998276,None,r,0.207146099768579,1855.4126332998276,None,0.207146099768579,,,85 Silent,001,2022_Nov_17_1047,ProdSingRedoBetween,2021.2.3,60.40226702924166,
,,,,136,0,136,0,,,,,,,,,,,,,,,,,,,,,,1857.158358500339,None,,,,,,,,,,,,,,,,,production,96,137,silent,new,null,1856.1619931003079,None,1856.1619931003079,None,6,0.1855629002675414,1856.1619931003079,None,0.1855629002675414,1856.3753725998104,None,1856.874919399619,None,1856.874919399619,None,r,0.25666079949587584,1856.874919399619,None,0.25666079949587584,,,85 Silent,001,2022_Nov_17_1047,ProdSingRedoBetween,2021.2.3,60.40226702924166,
,,,,137,0,137,0,,,,,,,,,,,,,,,,,,,,,,1858.643062199466,None,,,,,,,,,,,,,,,,,payment,153,138,silent,new,null,1857.659757600166,None,1857.659757600166,None,6,0.30375720001757145,1857.659757600166,None,0.30375720001757145,1857.9950630003586,None,1858.5097604999319,None,1858.5097604999319,None,r,0.10975079983472824,1858.5097604999319,None,0.10975079983472824,,,85 Silent,001,2022_Nov_17_1047,ProdSingRedoBetween,2021.2.3,60.40226702924166,
,,,,138,0,138,0,,,,,,,,,,,,,,,,,,,,,,1859.9445091998205,None,,,,,,,,,,,,,,,,,agency,17,139,silent,old,yellow,1859.1546241994947,None,1859.1546241994947,None,6,0.11302309948951006,1859.1546241994947,None,0.11302309948951006,1859.296795499511,None,1859.8128925999627,None,1859.8128925999627,None,r,0.11071369983255863,1859.8128925999627,None,0.11071369983255863,,,85 Silent,001,2022_Nov_17_1047,ProdSingRedoBetween,2021.2.3,60.40226702924166,
,,,,139,0,139,0,,,,,,,,,,,,,,,,,,,,,,1861.812973299995,None,,,,,,,,,,,,,,,,,frank,27,140,silent,old,yellow,1860.4560132995248,None,1860.4560132995248,None,6,0.4594930997118354,1860.4560132995248,None,0.4594930997118354,1860.9469371000305,None,1861.46274560038,None,1861.46274560038,None,r,0.3328605005517602,1861.46274560038,None,0.3328605005517602,,,85 Silent,001,2022_Nov_17_1047,ProdSingRedoBetween,2021.2.3,60.40226702924166,
,,,,140,0,140,0,,,,,,,,,,,,,,,,,,,,,,1863.7648970000446,None,,,,,,,,,,,,,,,,,force,68,141,silent,old,red,1862.316793399863,None,1862.316793399863,None,6,0.622817000374198,1862.316793399863,None,0.622817000374198,1862.9655515998602,None,1863.4690455999225,None,1863.4690455999225,None,r,0.27058110013604164,1863.4690455999225,None,0.27058110013604164,,,85 Silent,001,2022_Nov_17_1047,ProdSingRedoBetween,2021.2.3,60.40226702924166,
,,,,141,0,141,0,,,,,,,,,,,,,,,,,,,,,,1866.1208576001227,None,,,,,,,,,,,,,,,,,blind,62,142,silent,old,red,1864.272903099656,None,1864.272903099656,None,6,0.5467108003795147,1864.272903099656,None,0.5467108003795147,1864.8503136001527,None,1865.3555822996423,None,1865.3555822996423,None,r,0.7439408004283905,1865.3555822996423,None,0.7439408004283905,,,85 Silent,001,2022_Nov_17_1047,ProdSingRedoBetween,2021.2.3,60.40226702924166,
,,,,142,0,142,0,,,,,,,,,,,,,,,,,,,,,,1868.6864620000124,None,,,,,,,,,,,,,,,,,still,98,143,silent,new,null,1866.6481716996059,None,1866.6481716996059,None,6,1.2594407992437482,1866.6481716996059,None,1.2594407992437482,1867.9371760999784,None,1868.443283399567,None,1868.443283399567,None,r,0.21638490073382854,1868.443283399567,None,0.21638490073382854,,,85 Silent,001,2022_Nov_17_1047,ProdSingRedoBetween,2021.2.3,60.40226702924166,
,,,,143,0,143,0,,,,,,,,,,,,,,,,,,,,,,1870.5550688998774,None,,,,,,,,,,,,,,,,,tragedy,118,144,silent,new,null,1869.1908146003261,None,1869.1908146003261,None,6,0.5807373998686671,1869.1908146003261,None,0.5807373998686671,1869.7892950000241,None,1870.291989499703,None,1870.291989499703,None,r,0.23959979973733425,1870.291989499703,None,0.23959979973733425,,,85 Silent,001,2022_Nov_17_1047,ProdSingRedoBetween,2021.2.3,60.40226702924166,
,,,,144,0,144,0,,,,,,,,,,,,,,,,,,,,,,1872.0398813001812,None,,,,,,,,,,,,,,,,,owner,35,145,silent,old,blue,1871.0636067995802,None,1871.0636067995802,None,6,0.30015220027416945,1871.0636067995802,None,0.30015220027416945,1871.401593499817,None,1871.9101756997406,None,1871.9101756997406,None,r,0.1095622992143035,1871.9101756997406,None,0.1095622992143035,,,85 Silent,001,2022_Nov_17_1047,ProdSingRedoBetween,2021.2.3,60.40226702924166,
,,,,145,0,145,0,,,,,,,,,,,,,,,,,,,,,,1873.4442729996517,None,,,,,,,,,,,,,,,,,murder,179,146,silent,new,null,1872.5404353002086,None,1872.5404353002086,None,6,0.22327360045164824,1872.5404353002086,None,0.22327360045164824,1872.796092200093,None,1873.3112463997677,None,1873.3112463997677,None,r,0.10848619975149632,1873.3112463997677,None,0.10848619975149632,,,85 Silent,001,2022_Nov_17_1047,ProdSingRedoBetween,2021.2.3,60.40226702924166,
,,,,146,0,146,0,,,,,,,,,,,,,,,,,,,,,,1874.9427522998303,None,,,,,,,,,,,,,,,,,ground,23,147,silent,old,yellow,1873.9641204997897,None,1873.9641204997897,None,6,0.3035654006525874,1873.9641204997897,None,0.3035654006525874,1874.29315030016,None,1874.7968253996223,None,1874.7968253996223,None,r,0.11896419990807772,1874.7968253996223,None,0.11896419990807772,,,85 Silent,001,2022_Nov_17_1047,ProdSingRedoBetween,2021.2.3,60.40226702924166,
,,,,147,0,147,0,,,,,,,,,,,,,,,,,,,,,,1877.812262499705,None,,,,,,,,,,,,,,,,,close,123,148,silent,new,null,1875.459611600265,None,1875.459611600265,None,6,1.5039416002109647,1875.459611600265,None,1.5039416002109647,1876.9968729000539,None,1877.515793000348,None,1877.515793000348,None,r,0.2797606000676751,1877.515793000348,None,0.2797606000676751,,,85 Silent,001,2022_Nov_17_1047,ProdSingRedoBetween,2021.2.3,60.40226702924166,
,,,,148,0,148,0,,,,,,,,,,,,,,,,,,,,,,1879.9310416998342,None,,,,,,,,,,,,,,,,,impact,7,149,silent,old,yellow,1878.3165069995448,None,1878.3165069995448,None,6,0.5750820003449917,1878.3165069995448,None,0.5750820003449917,1878.9160385997966,None,1879.430715999566,None,1879.430715999566,None,r,0.4849490998312831,1879.430715999566,None,0.4849490998312831,,,85 Silent,001,2022_Nov_17_1047,ProdSingRedoBetween,2021.2.3,60.40226702924166,
,,,,149,0,149,0,,,,,,,,,,,,,,,,,,,,,,1882.466906399466,None,,,,,,,,,,,,,,,,,track,25,150,silent,old,yellow,1880.4341530995443,None,1880.4341530995443,None,6,1.353439999744296,1880.4341530995443,None,1.353439999744296,1881.81723149959,None,1882.3191444994882,None,1882.3191444994882,None,r,0.11646110005676746,1882.3191444994882,None,0.11646110005676746,,,85 Silent,001,2022_Nov_17_1047,ProdSingRedoBetween,2021.2.3,60.40226702924166,
,,,,150,0,150,0,,,,,,,,,,,,,,,,,,,,,,1884.3688222998753,None,,,,,,,,,,,,,,,,,trial,144,151,silent,new,null,1882.9763728994876,None,1882.9763728994876,None,6,0.5953091001138091,1882.9763728994876,None,0.5953091001138091,1883.6055311998352,None,1884.1186768002808,None,1884.1186768002808,None,r,0.2289667995646596,1884.1186768002808,None,0.2289667995646596,,,85 Silent,001,2022_Nov_17_1047,ProdSingRedoBetween,2021.2.3,60.40226702924166,
,,,,151,0,151,0,,,,,,,,,,,,,,,,,,,,,,1886.2040547998622,None,,,,,,,,,,,,,,,,,region,72,152,silent,old,red,1884.88156349957,None,1884.88156349957,None,6,0.6341071994975209,1884.88156349957,None,0.6341071994975209,1885.5377233996987,None,1886.038818700239,None,1886.038818700239,None,r,0.1406862996518612,1886.038818700239,None,0.1406862996518612,,,85 Silent,001,2022_Nov_17_1047,ProdSingRedoBetween,2021.2.3,60.40226702924166,
,,,,152,0,152,0,,,,,,,,,,,,,,,,,,,,,,1887.9723974000663,None,,,,,,,,,,,,,,,,,territory,36,153,silent,old,blue,1886.7111371997744,None,1886.7111371997744,None,6,0.5566423004493117,1886.7111371997744,None,0.5566423004493117,1887.2884254995733,None,1887.7890711994842,None,1887.7890711994842,None,r,0.16647669952362776,1887.7890711994842,None,0.16647669952362776,,,85 Silent,001,2022_Nov_17_1047,ProdSingRedoBetween,2021.2.3,60.40226702924166,
,,,,153,0,153,0,,,,,,,,,,,,,,,,,,,,,,1889.6573943998665,None,,,,,,,,,,,,,,,,,meeting,18,154,silent,old,yellow,1888.4757730001584,None,1888.4757730001584,None,6,0.5196853000670671,1888.4757730001584,None,0.5196853000670671,1889.0251978999004,None,1889.540650899522,None,1889.540650899522,None,r,0.09486990049481392,1889.540650899522,None,0.09486990049481392,,,85 Silent,001,2022_Nov_17_1047,ProdSingRedoBetween,2021.2.3,60.40226702924166,
,,,,154,0,154,0,,,,,,,,,,,,,,,,,,,,,,1891.2364293998107,None,,,,,,,,,,,,,,,,,weather,133,155,silent,new,null,1890.1588498000056,None,1890.1588498000056,None,6,0.4206551993265748,1890.1588498000056,None,0.4206551993265748,1890.61072949972,None,1891.1278574001044,None,1891.1278574001044,None,r,0.07613359950482845,1891.1278574001044,None,0.07613359950482845,,,85 Silent,001,2022_Nov_17_1047,ProdSingRedoBetween,2021.2.3,60.40226702924166,
,,,,155,0,155,0,,,,,,,,,,,,,,,,,,,,,,1892.7104431996122,None,,,,,,,,,,,,,,,,,income,11,156,silent,old,yellow,1891.7469298001379,None,1891.7469298001379,None,6,0.32062079943716526,1891.7469298001379,None,0.32062079943716526,1892.0945403994992,None,1892.5937759997323,None,1892.5937759997323,None,r,0.08981269970536232,1892.5937759997323,None,0.08981269970536232,,,85 Silent,001,2022_Nov_17_1047,ProdSingRedoBetween,2021.2.3,60.40226702924166,
,,,,156,0,156,0,,,,,,,,,,,,,,,,,,,,,,1894.1786008002236,None,,,,,,,,,,,,,,,,,poetry,85,157,silent,old,red,1893.2256776001304,None,1893.2256776001304,None,6,0.2900233007967472,1893.2256776001304,None,0.2900233007967472,1893.5496151996776,None,1894.0692966999486,None,1894.0692966999486,None,r,0.07833919953554869,1894.0692966999486,None,0.07833919953554869,,,85 Silent,001,2022_Nov_17_1047,ProdSingRedoBetween,2021.2.3,60.40226702924166,
,,,,157,0,157,0,,,,,,,,,,,,,,,,,,,,,,1895.513943400234,None,,,,,,,,,,,,,,,,,whole,111,158,silent,new,null,1894.6805728003383,None,1894.6805728003383,None,6,0.23501350078731775,1894.6805728003383,None,0.23501350078731775,1894.9494615001604,None,1895.465002800338,None,1895.465002800338,None,r,0.02667469996958971,1895.465002800338,None,0.02667469996958971,,,85 Silent,001,2022_Nov_17_1047,ProdSingRedoBetween,2021.2.3,60.40226702924166,
,,,,158,0,158,0,,,,,,,,,,,,,,,,,,,,,,1896.877816800028,None,,,,,,,,,,,,,,,,,management,76,159,silent,old,red,1896.017557299696,None,1896.017557299696,None,6,0.2899313997477293,1896.017557299696,None,0.2899313997477293,1896.3353174999356,None,1896.8480350002646,None,1896.8480350002646,None,r,0.0036674002185463905,1896.8480350002646,None,0.0036674002185463905,,,85 Silent,001,2022_Nov_17_1047,ProdSingRedoBetween,2021.2.3,60.40226702924166,
,,,,159,0,159,0,,,,,,,,,,,,,,,,,,,,,,1899.4172510998324,None,,,,,,,,,,,,,,,,,group,79,160,silent,old,red,1897.3851503003389,None,1897.3851503003389,None,6,1.4025050001218915,1897.3851503003389,None,1.4025050001218915,1898.8222049996257,None,1899.3380404002964,None,1899.3380404002964,None,r,0.04957580007612705,1899.3380404002964,None,0.04957580007612705,,,85 Silent,001,2022_Nov_17_1047,ProdSingRedoBetween,2021.2.3,60.40226702924166,
,,,,160,0,160,0,,,,,,,,,,,,,,,,,,,,,,1900.8350317003205,None,,,,,,,,,,,,,,,,,smooth,117,161,silent,new,null,1899.9253088003024,None,1899.9253088003024,None,6,0.30233460012823343,1899.9253088003024,None,0.30233460012823343,1900.2623741999269,None,1900.7686224998906,None,1900.7686224998906,None,r,0.04297639988362789,1900.7686224998906,None,0.04297639988362789,,,85 Silent,001,2022_Nov_17_1047,ProdSingRedoBetween,2021.2.3,60.40226702924166,
,,,,161,0,161,0,,,,,,,,,,,,,,,,,,,,,,1902.2887250995263,None,,,,,,,,,,,,,,,,,afternoon,163,162,silent,new,null,1901.3366615995765,None,1901.3366615995765,None,6,0.22695619985461235,1901.3366615995765,None,0.22695619985461235,1901.5928421998397,None,1902.1031387001276,None,1902.1031387001276,None,r,0.1565011003986001,1902.1031387001276,None,0.1565011003986001,,,85 Silent,001,2022_Nov_17_1047,ProdSingRedoBetween,2021.2.3,60.40226702924166,
,,,,162,0,162,0,,,,,,,,,,,,,,,,,,,,,,1904.2227680999786,None,,,,,,,,,,,,,,,,,color,90,163,silent,new,null,1902.807650799863,None,1902.807650799863,None,6,0.6598892994225025,1902.807650799863,None,0.6598892994225025,1903.487621399574,None,1903.9922335995361,None,1903.9922335995361,None,r,0.2032626997679472,1903.9922335995361,None,0.2032626997679472,,,85 Silent,001,2022_Nov_17_1047,ProdSingRedoBetween,2021.2.3,60.40226702924166,
,,,,163,0,163,0,,,,,,,,,,,,,,,,,,,,,,1906.3241123994812,None,,,,,,,,,,,,,,,,,quick,86,164,silent,old,red,1904.7382108997554,None,1904.7382108997554,None,6,0.865298300050199,1904.7382108997554,None,0.865298300050199,1905.6324370000511,None,1906.143921200186,None,1906.143921200186,None,r,0.16359780076891184,1906.143921200186,None,0.16359780076891184,,,85 Silent,001,2022_Nov_17_1047,ProdSingRedoBetween,2021.2.3,60.40226702924166,
,,,,164,0,164,0,,,,,,,,,,,,,,,,,,,,,,1908.1808024998754,None,,,,,,,,,,,,,,,,,citizen,61,165,silent,old,red,1906.8429364999756,None,1906.8429364999756,None,6,0.7286962000653148,1906.8429364999756,None,0.7286962000653148,1907.5971964001656,None,1908.1092841001227,None,1908.1092841001227,None,r,0.03837319929152727,1908.1092841001227,None,0.03837319929152727,,,85 Silent,001,2022_Nov_17_1047,ProdSingRedoBetween,2021.2.3,60.40226702924166,
,,,,165,0,165,0,,,,,,,,,,,,,,,,,,,,,,1909.8776209000498,None,,,,,,,,,,,,,,,,,majority,146,166,silent,new,null,1908.711762400344,None,1908.711762400344,None,6,0.4839089000597596,1908.711762400344,None,0.4839089000597596,1909.2333458000794,None,1909.7518394999206,None,1909.7518394999206,None,r,0.10768650006502867,1909.7518394999206,None,0.10768650006502867,,,85 Silent,001,2022_Nov_17_1047,ProdSingRedoBetween,2021.2.3,60.40226702924166,
,,,,166,0,166,0,,,,,,,,,,,,,,,,,,,,,,1911.4958637002856,None,,,,,,,,,,,,,,,,,search,28,167,silent,old,yellow,1910.3839095998555,None,1910.3839095998555,None,6,0.5476297000423074,1910.3839095998555,None,0.5476297000423074,1910.9630121001974,None,1911.4626658000052,None,1911.4626658000052,None,r,0.012947100214660168,1911.4626658000052,None,0.012947100214660168,,,85 Silent,001,2022_Nov_17_1047,ProdSingRedoBetween,2021.2.3,60.40226702924166,
,,,,167,0,167,0,,,,,,,,,,,,,,,,,,,,,,1912.9474058998749,None,,,,,,,,,,,,,,,,,equipment,30,168,silent,old,blue,1912.0007223999128,None,1912.0007223999128,None,6,0.2908072005957365,1912.0007223999128,None,0.2908072005957365,1912.3198228999972,None,1912.8306801998988,None,1912.8306801998988,None,r,0.08471889980137348,1912.8306801998988,None,0.08471889980137348,,,85 Silent,001,2022_Nov_17_1047,ProdSingRedoBetween,2021.2.3,60.40226702924166,
,,,,168,0,168,0,,,,,,,,,,,,,,,,,,,,,,1914.5486856000498,None,,,,,,,,,,,,,,,,,expansion,89,169,silent,old,red,1913.4483399000019,None,1913.4483399000019,None,6,0.4351929994300008,1913.4483399000019,None,0.4351929994300008,1913.8997887000442,None,1914.4101071003824,None,1914.4101071003824,None,r,0.11348999943584204,1914.4101071003824,None,0.11348999943584204,,,85 Silent,001,2022_Nov_17_1047,ProdSingRedoBetween,2021.2.3,60.40226702924166,
,,,,169,0,169,0,,,,,,,,,,,,,,,,,,,,,,1916.2035266999155,None,,,,,,,,,,,,,,,,,hunger,156,170,silent,new,null,1915.0512004001066,None,1915.0512004001066,None,6,0.4964924994856119,1915.0512004001066,None,0.4964924994856119,1915.5677172001451,None,1916.0699114995077,None,1916.0699114995077,None,r,0.109778200276196,1916.0699114995077,None,0.109778200276196,,,85 Silent,001,2022_Nov_17_1047,ProdSingRedoBetween,2021.2.3,60.40226702924166,
,,,,170,0,170,0,,,,,,,,,,,,,,,,,,,,,,1917.685384100303,None,,,,,,,,,,,,,,,,,interview,170,171,silent,new,null,1916.7254844997078,None,1916.7254844997078,None,6,0.24598609935492277,1916.7254844997078,None,0.24598609935492277,1917.003863800317,None,1917.5201230999082,None,1917.5201230999082,None,r,0.1473697004839778,1917.5201230999082,None,0.1473697004839778,,,85 Silent,001,2022_Nov_17_1047,ProdSingRedoBetween,2021.2.3,60.40226702924166,
,,,,171,0,171,0,,,,,,,,,,,,,,,,,,,,,,1919.1895570997149,None,,,,,,,,,,,,,,,,,benefit,174,172,silent,new,null,1918.1979286996648,None,1918.1979286996648,None,6,0.2695611994713545,1918.1979286996648,None,0.2695611994713545,1918.4923930000514,None,1919.007489499636,None,1919.007489499636,None,r,0.16407139971852303,1919.007489499636,None,0.16407139971852303,,,85 Silent,001,2022_Nov_17_1047,ProdSingRedoBetween,2021.2.3,60.40226702924166,
,,,,172,0,172,0,,,,,,,,,,,,,,,,,,,,,,1920.7550948001444,None,,,,,,,,,,,,,,,,,right,105,173,silent,new,null,1919.7110275002196,None,1919.7110275002196,None,6,0.25256749987602234,1919.7110275002196,None,0.25256749987602234,1919.9888993995264,None,1920.4882763000205,None,1920.4882763000205,None,r,0.24324199929833412,1920.4882763000205,None,0.24324199929833412,,,85 Silent,001,2022_Nov_17_1047,ProdSingRedoBetween,2021.2.3,60.40226702924166,
