StudyLoop.thisRepN,StudyLoop.thisTrialN,StudyLoop.thisN,StudyLoop.thisIndex,TestLoop.thisRepN,TestLoop.thisTrialN,TestLoop.thisN,TestLoop.thisIndex,textCondition.started,textCondition.stopped,keyCondition.keys,keyCondition.rt,keyCondition.started,keyCondition.stopped,Condition,textWelcome.started,textWelcome.stopped,keyWelcome.keys,keyWelcome.rt,keyWelcome.started,keyWelcome.stopped,textAloud.started,textAloud.stopped,textSilent.started,textSilent.stopped,textSing.started,textSing.stopped,conditional_text.started,conditional_text.stopped,textBlank500.started,textBlank500.stopped,study_word,study_num,study_order,study_type,word_color,textStudy.started,textStudy.stopped,keyStudy.keys,keyStudy.started,keyStudy.stopped,textTestInstructions.started,textTestInstructions.stopped,key_resp_3.keys,key_resp_3.rt,key_resp_3.started,key_resp_3.stopped,test_word,test_num,test_order,test_condition,old_new_test,test_word_original_color,textConf.started,textConf.stopped,textConfScale.started,textConfScale.stopped,keyConf.keys,keyConf.rt,keyConf.started,keyConf.stopped,confidence response time,textTestBlank.started,textTestBlank.stopped,textRKN.started,textRKN.stopped,textRKNScale.started,textRKNScale.stopped,keyRKN.keys,keyRKN.rt,keyRKN.started,keyRKN.stopped,rkn response time,textEnd.started,textEnd.stopped,participant,session,date,expName,psychopyVersion,frameRate,
,,,,,,,,51.08933210000396,None,b,14.158950500190258,51.08933210000396,None,,,,,,,,,,,,,,,,,,,,,,,,,,,,,,,,,,,,,,,,,,,,,,,,,,,,,,,,,,,,,,86 Aloud,001,2022_Nov_17_1153,ProdSingRedoBetween,2021.2.3,60.61124018055857,
,,,,,,,,,,,,,,AloudTest,65.3164029000327,None,space,376.7630253005773,65.3164029000327,None,,,,,,,,,,,,,,,,,,,,,,,,,,,,,,,,,,,,,,,,,,,,,,,,,,,,,,,86 Aloud,001,2022_Nov_17_1153,ProdSingRedoBetween,2021.2.3,60.61124018055857,
0,0,0,0,,,,,,,,,,,,,,,,,,65.3164029000327,None,65.3164029000327,None,65.3164029000327,None,65.3164029000327,None,444.6229306003079,None,order,73,1,aloud,red,442.60930620040745,None,None,442.60930620040745,None,,,,,,,,,,,,,,,,,,,,,,,,,,,,,,,,,,,86 Aloud,001,2022_Nov_17_1153,ProdSingRedoBetween,2021.2.3,60.61124018055857,
1,0,1,0,,,,,,,,,,,,,,,,,,,,,,,,,,447.1213261000812,None,fashion,35,2,aloud,blue,445.1190586006269,None,None,445.1190586006269,None,,,,,,,,,,,,,,,,,,,,,,,,,,,,,,,,,,,86 Aloud,001,2022_Nov_17_1153,ProdSingRedoBetween,2021.2.3,60.61124018055857,
2,0,2,0,,,,,,,,,,,,,,,,,,,,,,,,,,449.62376500014216,None,article,67,3,aloud,red,447.62151059973985,None,None,447.62151059973985,None,,,,,,,,,,,,,,,,,,,,,,,,,,,,,,,,,,,86 Aloud,001,2022_Nov_17_1153,ProdSingRedoBetween,2021.2.3,60.61124018055857,
3,0,3,0,,,,,,,,,,,,,,,,,,,,,,,,,,452.14297869987786,None,empty,8,4,aloud,yellow,450.1309278998524,None,None,450.1309278998524,None,,,,,,,,,,,,,,,,,,,,,,,,,,,,,,,,,,,86 Aloud,001,2022_Nov_17_1153,ProdSingRedoBetween,2021.2.3,60.61124018055857,
4,0,4,0,,,,,,,,,,,,,,,,,,,,,,,,,,454.6455132002011,None,shape,54,5,aloud,blue,452.6456206999719,None,None,452.6456206999719,None,,,,,,,,,,,,,,,,,,,,,,,,,,,,,,,,,,,86 Aloud,001,2022_Nov_17_1153,ProdSingRedoBetween,2021.2.3,60.61124018055857,
5,0,5,0,,,,,,,,,,,,,,,,,,,,,,,,,,457.16445219982415,None,angle,26,6,aloud,yellow,455.1490305997431,None,None,455.1490305997431,None,,,,,,,,,,,,,,,,,,,,,,,,,,,,,,,,,,,86 Aloud,001,2022_Nov_17_1153,ProdSingRedoBetween,2021.2.3,60.61124018055857,
6,0,6,0,,,,,,,,,,,,,,,,,,,,,,,,,,459.68350370042026,None,voice,51,7,aloud,blue,457.67154460027814,None,None,457.67154460027814,None,,,,,,,,,,,,,,,,,,,,,,,,,,,,,,,,,,,86 Aloud,001,2022_Nov_17_1153,ProdSingRedoBetween,2021.2.3,60.61124018055857,
7,0,7,0,,,,,,,,,,,,,,,,,,,,,,,,,,462.1861490001902,None,discovery,59,8,aloud,yellow,460.18570249993354,None,None,460.18570249993354,None,,,,,,,,,,,,,,,,,,,,,,,,,,,,,,,,,,,86 Aloud,001,2022_Nov_17_1153,ProdSingRedoBetween,2021.2.3,60.61124018055857,
8,0,8,0,,,,,,,,,,,,,,,,,,,,,,,,,,464.6888968003914,None,guard,40,9,aloud,blue,462.68669210001826,None,None,462.68669210001826,None,,,,,,,,,,,,,,,,,,,,,,,,,,,,,,,,,,,86 Aloud,001,2022_Nov_17_1153,ProdSingRedoBetween,2021.2.3,60.61124018055857,
9,0,9,0,,,,,,,,,,,,,,,,,,,,,,,,,,467.20804890058935,None,opening,55,10,aloud,blue,465.1985512999818,None,None,465.1985512999818,None,,,,,,,,,,,,,,,,,,,,,,,,,,,,,,,,,,,86 Aloud,001,2022_Nov_17_1153,ProdSingRedoBetween,2021.2.3,60.61124018055857,
10,0,10,0,,,,,,,,,,,,,,,,,,,,,,,,,,469.71058799978346,None,shear,13,11,aloud,yellow,467.7083371998742,None,None,467.7083371998742,None,,,,,,,,,,,,,,,,,,,,,,,,,,,,,,,,,,,86 Aloud,001,2022_Nov_17_1153,ProdSingRedoBetween,2021.2.3,60.61124018055857,
11,0,11,0,,,,,,,,,,,,,,,,,,,,,,,,,,472.2297670003027,None,mayor,44,12,aloud,blue,470.21480969991535,None,None,470.21480969991535,None,,,,,,,,,,,,,,,,,,,,,,,,,,,,,,,,,,,86 Aloud,001,2022_Nov_17_1153,ProdSingRedoBetween,2021.2.3,60.61124018055857,
12,0,12,0,,,,,,,,,,,,,,,,,,,,,,,,,,474.7485754005611,None,track,88,13,aloud,red,472.73656740039587,None,None,472.73656740039587,None,,,,,,,,,,,,,,,,,,,,,,,,,,,,,,,,,,,86 Aloud,001,2022_Nov_17_1153,ProdSingRedoBetween,2021.2.3,60.61124018055857,
13,0,13,0,,,,,,,,,,,,,,,,,,,,,,,,,,477.2513759005815,None,judge,80,14,aloud,red,475.24904290027916,None,None,475.24904290027916,None,,,,,,,,,,,,,,,,,,,,,,,,,,,,,,,,,,,86 Aloud,001,2022_Nov_17_1153,ProdSingRedoBetween,2021.2.3,60.61124018055857,
14,0,14,0,,,,,,,,,,,,,,,,,,,,,,,,,,479.77020759973675,None,split,85,15,aloud,red,477.75771739985794,None,None,477.75771739985794,None,,,,,,,,,,,,,,,,,,,,,,,,,,,,,,,,,,,86 Aloud,001,2022_Nov_17_1153,ProdSingRedoBetween,2021.2.3,60.61124018055857,
15,0,15,0,,,,,,,,,,,,,,,,,,,,,,,,,,482.27301310002804,None,health,20,16,aloud,yellow,480.2729577003047,None,None,480.2729577003047,None,,,,,,,,,,,,,,,,,,,,,,,,,,,,,,,,,,,86 Aloud,001,2022_Nov_17_1153,ProdSingRedoBetween,2021.2.3,60.61124018055857,
16,0,16,0,,,,,,,,,,,,,,,,,,,,,,,,,,484.7754838997498,None,height,60,17,aloud,red,482.77405980043113,None,None,482.77405980043113,None,,,,,,,,,,,,,,,,,,,,,,,,,,,,,,,,,,,86 Aloud,001,2022_Nov_17_1153,ProdSingRedoBetween,2021.2.3,60.61124018055857,
17,0,17,0,,,,,,,,,,,,,,,,,,,,,,,,,,487.2947046002373,None,meeting,14,18,aloud,yellow,485.2792921997607,None,None,485.2792921997607,None,,,,,,,,,,,,,,,,,,,,,,,,,,,,,,,,,,,86 Aloud,001,2022_Nov_17_1153,ProdSingRedoBetween,2021.2.3,60.61124018055857,
18,0,18,0,,,,,,,,,,,,,,,,,,,,,,,,,,489.79705030005425,None,husband,48,19,aloud,blue,487.7949954001233,None,None,487.7949954001233,None,,,,,,,,,,,,,,,,,,,,,,,,,,,,,,,,,,,86 Aloud,001,2022_Nov_17_1153,ProdSingRedoBetween,2021.2.3,60.61124018055857,
19,0,19,0,,,,,,,,,,,,,,,,,,,,,,,,,,492.2998285004869,None,fellow,37,20,aloud,blue,490.29880320001394,None,None,490.29880320001394,None,,,,,,,,,,,,,,,,,,,,,,,,,,,,,,,,,,,86 Aloud,001,2022_Nov_17_1153,ProdSingRedoBetween,2021.2.3,60.61124018055857,
20,0,20,0,,,,,,,,,,,,,,,,,,,,,,,,,,494.80225270055234,None,tough,49,21,aloud,blue,492.80020560044795,None,None,492.80020560044795,None,,,,,,,,,,,,,,,,,,,,,,,,,,,,,,,,,,,86 Aloud,001,2022_Nov_17_1153,ProdSingRedoBetween,2021.2.3,60.61124018055857,
21,0,21,0,,,,,,,,,,,,,,,,,,,,,,,,,,497.30465130042285,None,employment,83,22,aloud,red,495.30492930021137,None,None,495.30492930021137,None,,,,,,,,,,,,,,,,,,,,,,,,,,,,,,,,,,,86 Aloud,001,2022_Nov_17_1153,ProdSingRedoBetween,2021.2.3,60.61124018055857,
22,0,22,0,,,,,,,,,,,,,,,,,,,,,,,,,,499.8238276001066,None,frank,11,23,aloud,yellow,497.80953580047935,None,None,497.80953580047935,None,,,,,,,,,,,,,,,,,,,,,,,,,,,,,,,,,,,86 Aloud,001,2022_Nov_17_1153,ProdSingRedoBetween,2021.2.3,60.61124018055857,
23,0,23,0,,,,,,,,,,,,,,,,,,,,,,,,,,502.3263690005988,None,birth,28,24,aloud,yellow,500.32657040003687,None,None,500.32657040003687,None,,,,,,,,,,,,,,,,,,,,,,,,,,,,,,,,,,,86 Aloud,001,2022_Nov_17_1153,ProdSingRedoBetween,2021.2.3,60.61124018055857,
24,0,24,0,,,,,,,,,,,,,,,,,,,,,,,,,,504.8285052003339,None,patient,6,25,aloud,yellow,502.82954800035805,None,None,502.82954800035805,None,,,,,,,,,,,,,,,,,,,,,,,,,,,,,,,,,,,86 Aloud,001,2022_Nov_17_1153,ProdSingRedoBetween,2021.2.3,60.61124018055857,
25,0,25,0,,,,,,,,,,,,,,,,,,,,,,,,,,507.33120950032026,None,public,39,26,aloud,blue,505.32918320037425,None,None,505.32918320037425,None,,,,,,,,,,,,,,,,,,,,,,,,,,,,,,,,,,,86 Aloud,001,2022_Nov_17_1153,ProdSingRedoBetween,2021.2.3,60.61124018055857,
26,0,26,0,,,,,,,,,,,,,,,,,,,,,,,,,,509.8505567004904,None,short,43,27,aloud,blue,507.84067129995674,None,None,507.84067129995674,None,,,,,,,,,,,,,,,,,,,,,,,,,,,,,,,,,,,86 Aloud,001,2022_Nov_17_1153,ProdSingRedoBetween,2021.2.3,60.61124018055857,
27,0,27,0,,,,,,,,,,,,,,,,,,,,,,,,,,512.369745099917,None,review,84,28,aloud,red,510.35589439980686,None,None,510.35589439980686,None,,,,,,,,,,,,,,,,,,,,,,,,,,,,,,,,,,,86 Aloud,001,2022_Nov_17_1153,ProdSingRedoBetween,2021.2.3,60.61124018055857,
28,0,28,0,,,,,,,,,,,,,,,,,,,,,,,,,,514.8889024006203,None,weather,12,29,aloud,yellow,512.8829984003678,None,None,512.8829984003678,None,,,,,,,,,,,,,,,,,,,,,,,,,,,,,,,,,,,86 Aloud,001,2022_Nov_17_1153,ProdSingRedoBetween,2021.2.3,60.61124018055857,
29,0,29,0,,,,,,,,,,,,,,,,,,,,,,,,,,517.3914109999314,None,murder,31,30,aloud,blue,515.3896107003093,None,None,515.3896107003093,None,,,,,,,,,,,,,,,,,,,,,,,,,,,,,,,,,,,86 Aloud,001,2022_Nov_17_1153,ProdSingRedoBetween,2021.2.3,60.61124018055857,
30,0,30,0,,,,,,,,,,,,,,,,,,,,,,,,,,519.9106184998527,None,nature,19,31,aloud,yellow,517.903407599777,None,None,517.903407599777,None,,,,,,,,,,,,,,,,,,,,,,,,,,,,,,,,,,,86 Aloud,001,2022_Nov_17_1153,ProdSingRedoBetween,2021.2.3,60.61124018055857,
31,0,31,0,,,,,,,,,,,,,,,,,,,,,,,,,,522.4130167998374,None,income,74,32,aloud,red,520.4110276000574,None,None,520.4110276000574,None,,,,,,,,,,,,,,,,,,,,,,,,,,,,,,,,,,,86 Aloud,001,2022_Nov_17_1153,ProdSingRedoBetween,2021.2.3,60.61124018055857,
32,0,32,0,,,,,,,,,,,,,,,,,,,,,,,,,,524.9152543004602,None,oxygen,42,33,aloud,blue,522.9133099000901,None,None,522.9133099000901,None,,,,,,,,,,,,,,,,,,,,,,,,,,,,,,,,,,,86 Aloud,001,2022_Nov_17_1153,ProdSingRedoBetween,2021.2.3,60.61124018055857,
33,0,33,0,,,,,,,,,,,,,,,,,,,,,,,,,,527.4180942997336,None,corner,89,34,aloud,red,525.415847199969,None,None,525.415847199969,None,,,,,,,,,,,,,,,,,,,,,,,,,,,,,,,,,,,86 Aloud,001,2022_Nov_17_1153,ProdSingRedoBetween,2021.2.3,60.61124018055857,
34,0,34,0,,,,,,,,,,,,,,,,,,,,,,,,,,529.9372792001814,None,space,0,35,aloud,yellow,527.9226040998474,None,None,527.9226040998474,None,,,,,,,,,,,,,,,,,,,,,,,,,,,,,,,,,,,86 Aloud,001,2022_Nov_17_1153,ProdSingRedoBetween,2021.2.3,60.61124018055857,
35,0,35,0,,,,,,,,,,,,,,,,,,,,,,,,,,532.4564672000706,None,guest,81,36,aloud,red,530.4436788000166,None,None,530.4436788000166,None,,,,,,,,,,,,,,,,,,,,,,,,,,,,,,,,,,,86 Aloud,001,2022_Nov_17_1153,ProdSingRedoBetween,2021.2.3,60.61124018055857,
36,0,36,0,,,,,,,,,,,,,,,,,,,,,,,,,,534.9585672002286,None,problem,15,37,aloud,yellow,532.9582959003747,None,None,532.9582959003747,None,,,,,,,,,,,,,,,,,,,,,,,,,,,,,,,,,,,86 Aloud,001,2022_Nov_17_1153,ProdSingRedoBetween,2021.2.3,60.61124018055857,
37,0,37,0,,,,,,,,,,,,,,,,,,,,,,,,,,537.4614633005112,None,death,56,38,aloud,blue,535.45912639983,None,None,535.45912639983,None,,,,,,,,,,,,,,,,,,,,,,,,,,,,,,,,,,,86 Aloud,001,2022_Nov_17_1153,ProdSingRedoBetween,2021.2.3,60.61124018055857,
38,0,38,0,,,,,,,,,,,,,,,,,,,,,,,,,,539.980594499968,None,solution,58,39,aloud,blue,537.9651763001457,None,None,537.9651763001457,None,,,,,,,,,,,,,,,,,,,,,,,,,,,,,,,,,,,86 Aloud,001,2022_Nov_17_1153,ProdSingRedoBetween,2021.2.3,60.61124018055857,
39,0,39,0,,,,,,,,,,,,,,,,,,,,,,,,,,542.4998344006017,None,cover,5,40,aloud,yellow,540.4842856004834,None,None,540.4842856004834,None,,,,,,,,,,,,,,,,,,,,,,,,,,,,,,,,,,,86 Aloud,001,2022_Nov_17_1153,ProdSingRedoBetween,2021.2.3,60.61124018055857,
40,0,40,0,,,,,,,,,,,,,,,,,,,,,,,,,,545.0022180005908,None,vision,10,41,aloud,yellow,543.0003473004326,None,None,543.0003473004326,None,,,,,,,,,,,,,,,,,,,,,,,,,,,,,,,,,,,86 Aloud,001,2022_Nov_17_1153,ProdSingRedoBetween,2021.2.3,60.61124018055857,
41,0,41,0,,,,,,,,,,,,,,,,,,,,,,,,,,547.504746700637,None,business,50,42,aloud,blue,545.5058483006433,None,None,545.5058483006433,None,,,,,,,,,,,,,,,,,,,,,,,,,,,,,,,,,,,86 Aloud,001,2022_Nov_17_1153,ProdSingRedoBetween,2021.2.3,60.61124018055857,
42,0,42,0,,,,,,,,,,,,,,,,,,,,,,,,,,550.0072729000822,None,strength,16,43,aloud,yellow,548.0051757004112,None,None,548.0051757004112,None,,,,,,,,,,,,,,,,,,,,,,,,,,,,,,,,,,,86 Aloud,001,2022_Nov_17_1153,ProdSingRedoBetween,2021.2.3,60.61124018055857,
43,0,43,0,,,,,,,,,,,,,,,,,,,,,,,,,,552.5265461001545,None,drink,87,44,aloud,red,550.5113083999604,None,None,550.5113083999604,None,,,,,,,,,,,,,,,,,,,,,,,,,,,,,,,,,,,86 Aloud,001,2022_Nov_17_1153,ProdSingRedoBetween,2021.2.3,60.61124018055857,
44,0,44,0,,,,,,,,,,,,,,,,,,,,,,,,,,555.0290152998641,None,taste,65,45,aloud,red,553.030037900433,None,None,553.030037900433,None,,,,,,,,,,,,,,,,,,,,,,,,,,,,,,,,,,,86 Aloud,001,2022_Nov_17_1153,ProdSingRedoBetween,2021.2.3,60.61124018055857,
45,0,45,0,,,,,,,,,,,,,,,,,,,,,,,,,,557.5314249005169,None,military,23,46,aloud,yellow,555.5304429000244,None,None,555.5304429000244,None,,,,,,,,,,,,,,,,,,,,,,,,,,,,,,,,,,,86 Aloud,001,2022_Nov_17_1153,ProdSingRedoBetween,2021.2.3,60.61124018055857,
46,0,46,0,,,,,,,,,,,,,,,,,,,,,,,,,,560.0338911004364,None,theme,78,47,aloud,red,558.0346038006246,None,None,558.0346038006246,None,,,,,,,,,,,,,,,,,,,,,,,,,,,,,,,,,,,86 Aloud,001,2022_Nov_17_1153,ProdSingRedoBetween,2021.2.3,60.61124018055857,
47,0,47,0,,,,,,,,,,,,,,,,,,,,,,,,,,562.5363639006391,None,range,9,48,aloud,yellow,560.5342286005616,None,None,560.5342286005616,None,,,,,,,,,,,,,,,,,,,,,,,,,,,,,,,,,,,86 Aloud,001,2022_Nov_17_1153,ProdSingRedoBetween,2021.2.3,60.61124018055857,
48,0,48,0,,,,,,,,,,,,,,,,,,,,,,,,,,565.0552432006225,None,quick,2,49,aloud,yellow,563.0475658001378,None,None,563.0475658001378,None,,,,,,,,,,,,,,,,,,,,,,,,,,,,,,,,,,,86 Aloud,001,2022_Nov_17_1153,ProdSingRedoBetween,2021.2.3,60.61124018055857,
49,0,49,0,,,,,,,,,,,,,,,,,,,,,,,,,,567.5580906998366,None,cross,41,50,aloud,blue,565.5564069999382,None,None,565.5564069999382,None,,,,,,,,,,,,,,,,,,,,,,,,,,,,,,,,,,,86 Aloud,001,2022_Nov_17_1153,ProdSingRedoBetween,2021.2.3,60.61124018055857,
50,0,50,0,,,,,,,,,,,,,,,,,,,,,,,,,,570.0770752998069,None,court,82,51,aloud,red,568.0618593003601,None,None,568.0618593003601,None,,,,,,,,,,,,,,,,,,,,,,,,,,,,,,,,,,,86 Aloud,001,2022_Nov_17_1153,ProdSingRedoBetween,2021.2.3,60.61124018055857,
51,0,51,0,,,,,,,,,,,,,,,,,,,,,,,,,,572.5798062002286,None,trend,38,52,aloud,blue,570.5775340003893,None,None,570.5775340003893,None,,,,,,,,,,,,,,,,,,,,,,,,,,,,,,,,,,,86 Aloud,001,2022_Nov_17_1153,ProdSingRedoBetween,2021.2.3,60.61124018055857,
52,0,52,0,,,,,,,,,,,,,,,,,,,,,,,,,,575.082274700515,None,spoke,47,53,aloud,blue,573.0815168004483,None,None,573.0815168004483,None,,,,,,,,,,,,,,,,,,,,,,,,,,,,,,,,,,,86 Aloud,001,2022_Nov_17_1153,ProdSingRedoBetween,2021.2.3,60.61124018055857,
53,0,53,0,,,,,,,,,,,,,,,,,,,,,,,,,,577.5848409002647,None,position,27,54,aloud,yellow,575.5855029001832,None,None,575.5855029001832,None,,,,,,,,,,,,,,,,,,,,,,,,,,,,,,,,,,,86 Aloud,001,2022_Nov_17_1153,ProdSingRedoBetween,2021.2.3,60.61124018055857,
54,0,54,0,,,,,,,,,,,,,,,,,,,,,,,,,,580.0872410004959,None,sound,25,55,aloud,yellow,578.0881038997322,None,None,578.0881038997322,None,,,,,,,,,,,,,,,,,,,,,,,,,,,,,,,,,,,86 Aloud,001,2022_Nov_17_1153,ProdSingRedoBetween,2021.2.3,60.61124018055857,
55,0,55,0,,,,,,,,,,,,,,,,,,,,,,,,,,582.6063919998705,None,south,17,56,aloud,yellow,580.5929963998497,None,None,580.5929963998497,None,,,,,,,,,,,,,,,,,,,,,,,,,,,,,,,,,,,86 Aloud,001,2022_Nov_17_1153,ProdSingRedoBetween,2021.2.3,60.61124018055857,
56,0,56,0,,,,,,,,,,,,,,,,,,,,,,,,,,585.109104000032,None,general,29,57,aloud,blue,583.1068114005029,None,None,583.1068114005029,None,,,,,,,,,,,,,,,,,,,,,,,,,,,,,,,,,,,86 Aloud,001,2022_Nov_17_1153,ProdSingRedoBetween,2021.2.3,60.61124018055857,
57,0,57,0,,,,,,,,,,,,,,,,,,,,,,,,,,587.6113644000143,None,history,72,58,aloud,red,585.6093942001462,None,None,585.6093942001462,None,,,,,,,,,,,,,,,,,,,,,,,,,,,,,,,,,,,86 Aloud,001,2022_Nov_17_1153,ProdSingRedoBetween,2021.2.3,60.61124018055857,
58,0,58,0,,,,,,,,,,,,,,,,,,,,,,,,,,590.1305550001562,None,evidence,18,59,aloud,yellow,588.1204043002799,None,None,588.1204043002799,None,,,,,,,,,,,,,,,,,,,,,,,,,,,,,,,,,,,86 Aloud,001,2022_Nov_17_1153,ProdSingRedoBetween,2021.2.3,60.61124018055857,
59,0,59,0,,,,,,,,,,,,,,,,,,,,,,,,,,592.6331178005785,None,drove,7,60,aloud,yellow,590.6308575998992,None,None,590.6308575998992,None,,,,,,,,,,,,,,,,,,,,,,,,,,,,,,,,,,,86 Aloud,001,2022_Nov_17_1153,ProdSingRedoBetween,2021.2.3,60.61124018055857,
60,0,60,0,,,,,,,,,,,,,,,,,,,,,,,,,,595.1519546005875,None,bright,53,61,aloud,blue,593.1376838004217,None,None,593.1376838004217,None,,,,,,,,,,,,,,,,,,,,,,,,,,,,,,,,,,,86 Aloud,001,2022_Nov_17_1153,ProdSingRedoBetween,2021.2.3,60.61124018055857,
61,0,61,0,,,,,,,,,,,,,,,,,,,,,,,,,,597.6545416004956,None,literature,4,62,aloud,yellow,595.6527538001537,None,None,595.6527538001537,None,,,,,,,,,,,,,,,,,,,,,,,,,,,,,,,,,,,86 Aloud,001,2022_Nov_17_1153,ProdSingRedoBetween,2021.2.3,60.61124018055857,
62,0,62,0,,,,,,,,,,,,,,,,,,,,,,,,,,600.1573215005919,None,symbol,52,63,aloud,blue,598.1553221000358,None,None,598.1553221000358,None,,,,,,,,,,,,,,,,,,,,,,,,,,,,,,,,,,,86 Aloud,001,2022_Nov_17_1153,ProdSingRedoBetween,2021.2.3,60.61124018055857,
63,0,63,0,,,,,,,,,,,,,,,,,,,,,,,,,,602.6597694000229,None,production,77,64,aloud,red,600.6586011005566,None,None,600.6586011005566,None,,,,,,,,,,,,,,,,,,,,,,,,,,,,,,,,,,,86 Aloud,001,2022_Nov_17_1153,ProdSingRedoBetween,2021.2.3,60.61124018055857,
64,0,64,0,,,,,,,,,,,,,,,,,,,,,,,,,,605.1790388999507,None,watch,3,65,aloud,yellow,603.1661486001685,None,None,603.1661486001685,None,,,,,,,,,,,,,,,,,,,,,,,,,,,,,,,,,,,86 Aloud,001,2022_Nov_17_1153,ProdSingRedoBetween,2021.2.3,60.61124018055857,
65,0,65,0,,,,,,,,,,,,,,,,,,,,,,,,,,607.6815093997866,None,figure,64,66,aloud,red,605.6795006999746,None,None,605.6795006999746,None,,,,,,,,,,,,,,,,,,,,,,,,,,,,,,,,,,,86 Aloud,001,2022_Nov_17_1153,ProdSingRedoBetween,2021.2.3,60.61124018055857,
66,0,66,0,,,,,,,,,,,,,,,,,,,,,,,,,,610.2005575997755,None,childhood,86,67,aloud,red,608.1861169999465,None,None,608.1861169999465,None,,,,,,,,,,,,,,,,,,,,,,,,,,,,,,,,,,,86 Aloud,001,2022_Nov_17_1153,ProdSingRedoBetween,2021.2.3,60.61124018055857,
67,0,67,0,,,,,,,,,,,,,,,,,,,,,,,,,,612.7031666999683,None,tennis,24,68,aloud,yellow,610.7040204005316,None,None,610.7040204005316,None,,,,,,,,,,,,,,,,,,,,,,,,,,,,,,,,,,,86 Aloud,001,2022_Nov_17_1153,ProdSingRedoBetween,2021.2.3,60.61124018055857,
68,0,68,0,,,,,,,,,,,,,,,,,,,,,,,,,,615.2055850001052,None,center,63,69,aloud,red,613.2040046006441,None,None,613.2040046006441,None,,,,,,,,,,,,,,,,,,,,,,,,,,,,,,,,,,,86 Aloud,001,2022_Nov_17_1153,ProdSingRedoBetween,2021.2.3,60.61124018055857,
69,0,69,0,,,,,,,,,,,,,,,,,,,,,,,,,,617.7248248998076,None,debate,57,70,aloud,blue,615.7101375004277,None,None,615.7101375004277,None,,,,,,,,,,,,,,,,,,,,,,,,,,,,,,,,,,,86 Aloud,001,2022_Nov_17_1153,ProdSingRedoBetween,2021.2.3,60.61124018055857,
70,0,70,0,,,,,,,,,,,,,,,,,,,,,,,,,,620.2272303001955,None,industry,34,71,aloud,blue,618.2279996005818,None,None,618.2279996005818,None,,,,,,,,,,,,,,,,,,,,,,,,,,,,,,,,,,,86 Aloud,001,2022_Nov_17_1153,ProdSingRedoBetween,2021.2.3,60.61124018055857,
71,0,71,0,,,,,,,,,,,,,,,,,,,,,,,,,,622.7463250998408,None,principal,79,72,aloud,red,620.7331223003566,None,None,620.7331223003566,None,,,,,,,,,,,,,,,,,,,,,,,,,,,,,,,,,,,86 Aloud,001,2022_Nov_17_1153,ProdSingRedoBetween,2021.2.3,60.61124018055857,
72,0,72,0,,,,,,,,,,,,,,,,,,,,,,,,,,625.248849700205,None,dream,61,73,aloud,red,623.246475700289,None,None,623.246475700289,None,,,,,,,,,,,,,,,,,,,,,,,,,,,,,,,,,,,86 Aloud,001,2022_Nov_17_1153,ProdSingRedoBetween,2021.2.3,60.61124018055857,
73,0,73,0,,,,,,,,,,,,,,,,,,,,,,,,,,627.7514404002577,None,expansion,46,74,aloud,blue,625.7492370000109,None,None,625.7492370000109,None,,,,,,,,,,,,,,,,,,,,,,,,,,,,,,,,,,,86 Aloud,001,2022_Nov_17_1153,ProdSingRedoBetween,2021.2.3,60.61124018055857,
74,0,74,0,,,,,,,,,,,,,,,,,,,,,,,,,,630.2537248004228,None,bitter,62,75,aloud,red,628.2546498999,None,None,628.2546498999,None,,,,,,,,,,,,,,,,,,,,,,,,,,,,,,,,,,,86 Aloud,001,2022_Nov_17_1153,ProdSingRedoBetween,2021.2.3,60.61124018055857,
75,0,75,0,,,,,,,,,,,,,,,,,,,,,,,,,,632.7727835001424,None,owner,22,76,aloud,yellow,630.7614580001682,None,None,630.7614580001682,None,,,,,,,,,,,,,,,,,,,,,,,,,,,,,,,,,,,86 Aloud,001,2022_Nov_17_1153,ProdSingRedoBetween,2021.2.3,60.61124018055857,
76,0,76,0,,,,,,,,,,,,,,,,,,,,,,,,,,635.2753411000594,None,column,45,77,aloud,blue,633.273620299995,None,None,633.273620299995,None,,,,,,,,,,,,,,,,,,,,,,,,,,,,,,,,,,,86 Aloud,001,2022_Nov_17_1153,ProdSingRedoBetween,2021.2.3,60.61124018055857,
77,0,77,0,,,,,,,,,,,,,,,,,,,,,,,,,,637.7778703998774,None,narrow,1,78,aloud,yellow,635.7770929997787,None,None,635.7770929997787,None,,,,,,,,,,,,,,,,,,,,,,,,,,,,,,,,,,,86 Aloud,001,2022_Nov_17_1153,ProdSingRedoBetween,2021.2.3,60.61124018055857,
78,0,78,0,,,,,,,,,,,,,,,,,,,,,,,,,,640.280671400018,None,whole,21,79,aloud,yellow,638.2783169997856,None,None,638.2783169997856,None,,,,,,,,,,,,,,,,,,,,,,,,,,,,,,,,,,,86 Aloud,001,2022_Nov_17_1153,ProdSingRedoBetween,2021.2.3,60.61124018055857,
79,0,79,0,,,,,,,,,,,,,,,,,,,,,,,,,,642.7830953998491,None,agreement,68,80,aloud,red,640.7838638005778,None,None,640.7838638005778,None,,,,,,,,,,,,,,,,,,,,,,,,,,,,,,,,,,,86 Aloud,001,2022_Nov_17_1153,ProdSingRedoBetween,2021.2.3,60.61124018055857,
80,0,80,0,,,,,,,,,,,,,,,,,,,,,,,,,,645.2854513004422,None,working,75,81,aloud,red,643.2830972000957,None,None,643.2830972000957,None,,,,,,,,,,,,,,,,,,,,,,,,,,,,,,,,,,,86 Aloud,001,2022_Nov_17_1153,ProdSingRedoBetween,2021.2.3,60.61124018055857,
81,0,81,0,,,,,,,,,,,,,,,,,,,,,,,,,,647.8047815002501,None,safety,32,82,aloud,blue,645.7904331004247,None,None,645.7904331004247,None,,,,,,,,,,,,,,,,,,,,,,,,,,,,,,,,,,,86 Aloud,001,2022_Nov_17_1153,ProdSingRedoBetween,2021.2.3,60.61124018055857,
82,0,82,0,,,,,,,,,,,,,,,,,,,,,,,,,,650.3072656001896,None,capital,30,83,aloud,blue,648.3078998997808,None,None,648.3078998997808,None,,,,,,,,,,,,,,,,,,,,,,,,,,,,,,,,,,,86 Aloud,001,2022_Nov_17_1153,ProdSingRedoBetween,2021.2.3,60.61124018055857,
83,0,83,0,,,,,,,,,,,,,,,,,,,,,,,,,,652.8096984000877,None,religion,33,84,aloud,blue,650.8086550002918,None,None,650.8086550002918,None,,,,,,,,,,,,,,,,,,,,,,,,,,,,,,,,,,,86 Aloud,001,2022_Nov_17_1153,ProdSingRedoBetween,2021.2.3,60.61124018055857,
84,0,84,0,,,,,,,,,,,,,,,,,,,,,,,,,,655.3121562004089,None,produce,70,85,aloud,red,653.3100000005215,None,None,653.3100000005215,None,,,,,,,,,,,,,,,,,,,,,,,,,,,,,,,,,,,86 Aloud,001,2022_Nov_17_1153,ProdSingRedoBetween,2021.2.3,60.61124018055857,
85,0,85,0,,,,,,,,,,,,,,,,,,,,,,,,,,657.831410500221,None,skill,76,86,aloud,red,655.8164285998791,None,None,655.8164285998791,None,,,,,,,,,,,,,,,,,,,,,,,,,,,,,,,,,,,86 Aloud,001,2022_Nov_17_1153,ProdSingRedoBetween,2021.2.3,60.61124018055857,
86,0,86,0,,,,,,,,,,,,,,,,,,,,,,,,,,660.3507497999817,None,population,69,87,aloud,red,658.3359920997173,None,None,658.3359920997173,None,,,,,,,,,,,,,,,,,,,,,,,,,,,,,,,,,,,86 Aloud,001,2022_Nov_17_1153,ProdSingRedoBetween,2021.2.3,60.61124018055857,
87,0,87,0,,,,,,,,,,,,,,,,,,,,,,,,,,662.852808999829,None,surface,36,88,aloud,blue,660.8510745000094,None,None,660.8510745000094,None,,,,,,,,,,,,,,,,,,,,,,,,,,,,,,,,,,,86 Aloud,001,2022_Nov_17_1153,ProdSingRedoBetween,2021.2.3,60.61124018055857,
88,0,88,0,,,,,,,,,,,,,,,,,,,,,,,,,,665.3581662001088,None,strain,71,89,aloud,red,663.3567543998361,None,None,663.3567543998361,None,,,,,,,,,,,,,,,,,,,,,,,,,,,,,,,,,,,86 Aloud,001,2022_Nov_17_1153,ProdSingRedoBetween,2021.2.3,60.61124018055857,
89,0,89,0,,,,,,,,,,,,,,,,,,,,,,,,,,667.8748085005209,None,smooth,66,90,aloud,red,665.873024600558,None,None,665.873024600558,None,,,,,,,,,,,,,,,,,,,,,,,,,,,,,,,,,,,86 Aloud,001,2022_Nov_17_1153,ProdSingRedoBetween,2021.2.3,60.61124018055857,
,,,,,,,,,,,,,,,,,,,,,,,,,,,,,,,,,,,,,,,,,668.375639100559,None,k,266.1267766999081,668.375639100559,None,,,,,,,,,,,,,,,,,,,,,,,,,,,,,86 Aloud,001,2022_Nov_17_1153,ProdSingRedoBetween,2021.2.3,60.61124018055857,
,,,,0,0,0,0,,,,,,,,,,,,,,,,,,,,,,952.4252225002274,None,,,,,,,,,,,,,,,,,pretty,109,1,aloud,new,null,935.0360515005887,None,935.0360515005887,None,5,8.706447899341583,935.0360515005887,None,8.706447899341583,943.7671333998442,None,944.2671488998458,None,944.2671488998458,None,r,8.139348300173879,944.2671488998458,None,8.139348300173879,,,86 Aloud,001,2022_Nov_17_1153,ProdSingRedoBetween,2021.2.3,60.61124018055857,
,,,,1,0,1,0,,,,,,,,,,,,,,,,,,,,,,962.6852470999584,None,,,,,,,,,,,,,,,,,murder,31,2,aloud,old,blue,952.9319486999884,None,952.9319486999884,None,6,6.730516800656915,952.9319486999884,None,6.730516800656915,959.683436400257,None,960.1830323999748,None,960.1830323999748,None,r,2.4875984992831945,960.1830323999748,None,2.4875984992831945,,,86 Aloud,001,2022_Nov_17_1153,ProdSingRedoBetween,2021.2.3,60.61124018055857,
,,,,2,0,2,0,,,,,,,,,,,,,,,,,,,,,,968.2743135998026,None,,,,,,,,,,,,,,,,,machinery,112,3,aloud,new,null,963.1934666000307,None,963.1934666000307,None,1,3.229132699780166,963.1934666000307,None,3.229132699780166,966.4409237997606,None,966.9608236001804,None,966.9608236001804,None,n,1.2855545999482274,966.9608236001804,None,1.2855545999482274,,,86 Aloud,001,2022_Nov_17_1153,ProdSingRedoBetween,2021.2.3,60.61124018055857,
,,,,3,0,3,0,,,,,,,,,,,,,,,,,,,,,,972.8638861998916,None,,,,,,,,,,,,,,,,,income,74,4,aloud,old,red,968.7824680004269,None,968.7824680004269,None,6,2.560052700340748,968.7824680004269,None,2.560052700340748,971.3677308000624,None,971.8780608000234,None,971.8780608000234,None,r,0.9604505002498627,971.8780608000234,None,0.9604505002498627,,,86 Aloud,001,2022_Nov_17_1153,ProdSingRedoBetween,2021.2.3,60.61124018055857,
,,,,4,0,4,0,,,,,,,,,,,,,,,,,,,,,,980.8703238004819,None,,,,,,,,,,,,,,,,,pancakes,152,5,aloud,new,null,973.3772496003658,None,973.3772496003658,None,3,4.045129300095141,973.3772496003658,None,4.045129300095141,977.4525978006423,None,977.9704953003675,None,977.9704953003675,None,r,2.8838651003316045,977.9704953003675,None,2.8838651003316045,,,86 Aloud,001,2022_Nov_17_1153,ProdSingRedoBetween,2021.2.3,60.61124018055857,
,,,,5,0,5,0,,,,,,,,,,,,,,,,,,,,,,988.2290831999853,None,,,,,,,,,,,,,,,,,vision,10,6,aloud,old,yellow,981.3952870005742,None,981.3952870005742,None,3,4.283009599894285,981.3952870005742,None,4.283009599894285,985.7115691006184,None,986.2270272001624,None,986.2270272001624,None,f,1.9713650001212955,986.2270272001624,None,1.9713650001212955,,,86 Aloud,001,2022_Nov_17_1153,ProdSingRedoBetween,2021.2.3,60.61124018055857,
,,,,6,0,6,0,,,,,,,,,,,,,,,,,,,,,,1002.7921202005818,None,,,,,,,,,,,,,,,,,account,161,7,aloud,new,null,988.7517419001088,None,988.7517419001088,None,4,6.502688700333238,988.7517419001088,None,6.502688700333238,995.2860689004883,None,995.7852696999907,None,995.7852696999907,None,f,6.981116099283099,995.7852696999907,None,6.981116099283099,,,86 Aloud,001,2022_Nov_17_1153,ProdSingRedoBetween,2021.2.3,60.61124018055857,
,,,,7,0,7,0,,,,,,,,,,,,,,,,,,,,,,1007.713689699769,None,,,,,,,,,,,,,,,,,bitter,62,8,aloud,old,red,1003.2977106003091,None,1003.2977106003091,None,6,2.820603800006211,1003.2977106003091,None,2.820603800006211,1006.1474957000464,None,1006.6628403002396,None,1006.6628403002396,None,r,1.031524800695479,1006.6628403002396,None,1.031524800695479,,,86 Aloud,001,2022_Nov_17_1153,ProdSingRedoBetween,2021.2.3,60.61124018055857,
,,,,8,0,8,0,,,,,,,,,,,,,,,,,,,,,,1018.5746670002118,None,,,,,,,,,,,,,,,,,personnel,135,9,aloud,new,null,1008.214297500439,None,1008.214297500439,None,2,6.440130699425936,1008.214297500439,None,6.440130699425936,1014.6720716999844,None,1015.1875395001844,None,1015.1875395001844,None,r,3.3628348000347614,1015.1875395001844,None,3.3628348000347614,,,86 Aloud,001,2022_Nov_17_1153,ProdSingRedoBetween,2021.2.3,60.61124018055857,
,,,,9,0,9,0,,,,,,,,,,,,,,,,,,,,,,1023.4960946002975,None,,,,,,,,,,,,,,,,,device,117,10,aloud,new,null,1019.0751331998035,None,1019.0751331998035,None,1,2.7632283000275493,1019.0751331998035,None,2.7632283000275493,1021.8627804005519,None,1022.3784312000498,None,1022.3784312000498,None,r,1.0998821994289756,1022.3784312000498,None,1.0998821994289756,,,86 Aloud,001,2022_Nov_17_1153,ProdSingRedoBetween,2021.2.3,60.61124018055857,
,,,,10,0,10,0,,,,,,,,,,,,,,,,,,,,,,1030.3862674999982,None,,,,,,,,,,,,,,,,,present,155,11,aloud,new,null,1024.0003666002303,None,1024.0003666002303,None,5,4.701972499489784,1024.0003666002303,None,4.701972499489784,1028.7221792005002,None,1029.2385344002396,None,1029.2385344002396,None,r,1.1198048004880548,1029.2385344002396,None,1.1198048004880548,,,86 Aloud,001,2022_Nov_17_1153,ProdSingRedoBetween,2021.2.3,60.61124018055857,
,,,,11,0,11,0,,,,,,,,,,,,,,,,,,,,,,1037.8278128998354,None,,,,,,,,,,,,,,,,,story,92,12,aloud,new,null,1030.9019010001794,None,1030.9019010001794,None,2,5.552426000125706,1030.9019010001794,None,5.552426000125706,1036.477629000321,None,1036.9965580999851,None,1036.9965580999851,None,r,0.8018987998366356,1036.9965580999851,None,0.8018987998366356,,,86 Aloud,001,2022_Nov_17_1153,ProdSingRedoBetween,2021.2.3,60.61124018055857,
,,,,12,0,12,0,,,,,,,,,,,,,,,,,,,,,,1044.2000333005562,None,,,,,,,,,,,,,,,,,minute,165,13,aloud,new,null,1038.3356090001762,None,1038.3356090001762,None,5,5.078615300357342,1038.3356090001762,None,5.078615300357342,1043.433576900512,None,1043.9335994999856,None,1043.9335994999856,None,r,0.24073150008916855,1043.9335994999856,None,0.24073150008916855,,,86 Aloud,001,2022_Nov_17_1153,ProdSingRedoBetween,2021.2.3,60.61124018055857,
,,,,13,0,13,0,,,,,,,,,,,,,,,,,,,,,,1049.9391430001706,None,,,,,,,,,,,,,,,,,pressure,166,14,aloud,new,null,1044.7016471000388,None,1044.7016471000388,None,4,3.2086356999352574,1044.7016471000388,None,3.2086356999352574,1047.9391427999362,None,1048.4564123004675,None,1048.4564123004675,None,r,1.4538353001698852,1048.4564123004675,None,1.4538353001698852,,,86 Aloud,001,2022_Nov_17_1153,ProdSingRedoBetween,2021.2.3,60.61124018055857,
,,,,14,0,14,0,,,,,,,,,,,,,,,,,,,,,,1054.0274959998205,None,,,,,,,,,,,,,,,,,voice,51,15,aloud,old,blue,1050.4396945005283,None,1050.4396945005283,None,6,2.670585099607706,1050.4396945005283,None,2.670585099607706,1053.1267964001745,None,1053.6374019002542,None,1053.6374019002542,None,r,0.3691175002604723,1053.6374019002542,None,0.3691175002604723,,,86 Aloud,001,2022_Nov_17_1153,ProdSingRedoBetween,2021.2.3,60.61124018055857,
,,,,15,0,15,0,,,,,,,,,,,,,,,,,,,,,,1060.649680700153,None,,,,,,,,,,,,,,,,,tough,49,16,aloud,old,blue,1054.5370799005032,None,1054.5370799005032,None,6,5.213097300380468,1054.5370799005032,None,5.213097300380468,1059.7671090997756,None,1060.2825980000198,None,1060.2825980000198,None,r,0.3396423002704978,1060.2825980000198,None,0.3396423002704978,,,86 Aloud,001,2022_Nov_17_1153,ProdSingRedoBetween,2021.2.3,60.61124018055857,
,,,,16,0,16,0,,,,,,,,,,,,,,,,,,,,,,1066.1552822999656,None,,,,,,,,,,,,,,,,,youth,132,17,aloud,new,null,1061.1501743998379,None,1061.1501743998379,None,2,2.704062500037253,1061.1501743998379,None,2.704062500037253,1063.8711099997163,None,1064.3747565997764,None,1064.3747565997764,None,f,1.7516433000564575,1064.3747565997764,None,1.7516433000564575,,,86 Aloud,001,2022_Nov_17_1153,ProdSingRedoBetween,2021.2.3,60.61124018055857,
,,,,17,0,17,0,,,,,,,,,,,,,,,,,,,,,,1070.3425612999126,None,,,,,,,,,,,,,,,,,still,127,18,aloud,new,null,1066.6586290998384,None,1066.6586290998384,None,2,2.9076154995709658,1066.6586290998384,None,2.9076154995709658,1069.5950281005353,None,1070.1139027001336,None,1070.1139027001336,None,f,0.20440310053527355,1070.1139027001336,None,0.20440310053527355,,,86 Aloud,001,2022_Nov_17_1153,ProdSingRedoBetween,2021.2.3,60.61124018055857,
,,,,18,0,18,0,,,,,,,,,,,,,,,,,,,,,,1073.7463033003733,None,,,,,,,,,,,,,,,,,narrow,1,19,aloud,old,yellow,1070.843397400342,None,1070.843397400342,None,6,2.3228712994605303,1070.843397400342,None,2.3228712994605303,1073.196808299981,None,1073.7023652000353,None,1073.7023652000353,None,r,0.015926399268209934,1073.7023652000353,None,0.015926399268209934,,,86 Aloud,001,2022_Nov_17_1153,ProdSingRedoBetween,2021.2.3,60.61124018055857,
,,,,19,0,19,0,,,,,,,,,,,,,,,,,,,,,,1076.6825296999887,None,,,,,,,,,,,,,,,,,marriage,116,20,aloud,new,null,1074.2507888004184,None,1074.2507888004184,None,6,1.6675717998296022,1074.2507888004184,None,1.6675717998296022,1075.9506981000304,None,1076.4668303998187,None,1076.4668303998187,None,r,0.18744869995862246,1076.4668303998187,None,0.18744869995862246,,,86 Aloud,001,2022_Nov_17_1153,ProdSingRedoBetween,2021.2.3,60.61124018055857,
,,,,20,0,20,0,,,,,,,,,,,,,,,,,,,,,,1083.5244081998244,None,,,,,,,,,,,,,,,,,oxygen,42,21,aloud,old,blue,1077.1950200004503,None,1077.1950200004503,None,1,4.043086200021207,1077.1950200004503,None,4.043086200021207,1081.255037500523,None,1081.757720200345,None,1081.757720200345,None,f,1.744764200411737,1081.757720200345,None,1.744764200411737,,,86 Aloud,001,2022_Nov_17_1153,ProdSingRedoBetween,2021.2.3,60.61124018055857,
,,,,21,0,21,0,,,,,,,,,,,,,,,,,,,,,,1087.276348600164,None,,,,,,,,,,,,,,,,,dream,61,22,aloud,old,red,1084.0399465998635,None,1084.0399465998635,None,6,2.5582560999318957,1084.0399465998635,None,2.5582560999318957,1086.6256801001728,None,1087.1295354003087,None,1087.1295354003087,None,r,0.1246973006054759,1087.1295354003087,None,0.1246973006054759,,,86 Aloud,001,2022_Nov_17_1153,ProdSingRedoBetween,2021.2.3,60.61124018055857,
,,,,22,0,22,0,,,,,,,,,,,,,,,,,,,,,,1091.029915300198,None,,,,,,,,,,,,,,,,,beginning,131,23,aloud,new,null,1087.7895296998322,None,1087.7895296998322,None,4,1.9526872001588345,1087.7895296998322,None,1.9526872001588345,1089.7634020997211,None,1090.2625609003007,None,1090.2625609003007,None,r,0.7436116999015212,1090.2625609003007,None,0.7436116999015212,,,86 Aloud,001,2022_Nov_17_1153,ProdSingRedoBetween,2021.2.3,60.61124018055857,
,,,,23,0,23,0,,,,,,,,,,,,,,,,,,,,,,1095.0174759998918,None,,,,,,,,,,,,,,,,,taste,65,24,aloud,old,red,1091.5403858004138,None,1091.5403858004138,None,6,2.7939075995236635,1091.5403858004138,None,2.7939075995236635,1094.3552398001775,None,1094.867337600328,None,1094.867337600328,None,r,0.13092799950391054,1094.867337600328,None,0.13092799950391054,,,86 Aloud,001,2022_Nov_17_1153,ProdSingRedoBetween,2021.2.3,60.61124018055857,
,,,,24,0,24,0,,,,,,,,,,,,,,,,,,,,,,1099.004859100096,None,,,,,,,,,,,,,,,,,expansion,46,25,aloud,old,blue,1095.5265466999263,None,1095.5265466999263,None,1,1.967581699602306,1095.5265466999263,None,1.967581699602306,1097.5235620997846,None,1098.0375724006444,None,1098.0375724006444,None,f,0.9365286994725466,1098.0375724006444,None,0.9365286994725466,,,86 Aloud,001,2022_Nov_17_1153,ProdSingRedoBetween,2021.2.3,60.61124018055857,
,,,,25,0,25,0,,,,,,,,,,,,,,,,,,,,,,1104.3269245000556,None,,,,,,,,,,,,,,,,,write,156,26,aloud,new,null,1099.5054435003549,None,1099.5054435003549,None,3,3.668708499521017,1099.5054435003549,None,3.668708499521017,1103.1940876003355,None,1103.7157714003697,None,1103.7157714003697,None,f,0.5943816993385553,1103.7157714003697,None,0.5943816993385553,,,86 Aloud,001,2022_Nov_17_1153,ProdSingRedoBetween,2021.2.3,60.61124018055857,
,,,,26,0,26,0,,,,,,,,,,,,,,,,,,,,,,1107.6132816998288,None,,,,,,,,,,,,,,,,,stand,144,27,aloud,new,null,1104.8319442998618,None,1104.8319442998618,None,3,1.9822414005175233,1104.8319442998618,None,1.9822414005175233,1106.8307325001806,None,1107.3328510001302,None,1107.3328510001302,None,f,0.25734589993953705,1107.3328510001302,None,0.25734589993953705,,,86 Aloud,001,2022_Nov_17_1153,ProdSingRedoBetween,2021.2.3,60.61124018055857,
,,,,27,0,27,0,,,,,,,,,,,,,,,,,,,,,,1112.3015299998224,None,,,,,,,,,,,,,,,,,nature,19,28,aloud,old,yellow,1108.1165562001988,None,1108.1165562001988,None,6,3.1056291004642844,1108.1165562001988,None,3.1056291004642844,1111.2509265001863,None,1111.7509439997375,None,1111.7509439997375,None,r,0.5191719001159072,1111.7509439997375,None,0.5191719001159072,,,86 Aloud,001,2022_Nov_17_1153,ProdSingRedoBetween,2021.2.3,60.61124018055857,
,,,,28,0,28,0,,,,,,,,,,,,,,,,,,,,,,1116.2886594999582,None,,,,,,,,,,,,,,,,,passage,122,29,aloud,new,null,1112.8095679003745,None,1112.8095679003745,None,1,2.508503000251949,1112.8095679003745,None,2.508503000251949,1115.338351099752,None,1115.8493673000485,None,1115.8493673000485,None,f,0.42088570073246956,1115.8493673000485,None,0.42088570073246956,,,86 Aloud,001,2022_Nov_17_1153,ProdSingRedoBetween,2021.2.3,60.61124018055857,
,,,,29,0,29,0,,,,,,,,,,,,,,,,,,,,,,1122.0475785005838,None,,,,,,,,,,,,,,,,,course,97,30,aloud,new,null,1116.7957027005032,None,1116.7957027005032,None,2,4.090461400337517,1116.7957027005032,None,4.090461400337517,1120.9111938998103,None,1121.4155040998012,None,1121.4155040998012,None,f,0.5985852004960179,1121.4155040998012,None,0.5985852004960179,,,86 Aloud,001,2022_Nov_17_1153,ProdSingRedoBetween,2021.2.3,60.61124018055857,
,,,,30,0,30,0,,,,,,,,,,,,,,,,,,,,,,1125.6311520002782,None,,,,,,,,,,,,,,,,,surprise,157,31,aloud,new,null,1122.5614229999483,None,1122.5614229999483,None,2,2.2287897001951933,1122.5614229999483,None,2.2287897001951933,1124.8149720001966,None,1125.3173786997795,None,1125.3173786997795,None,f,0.28877719957381487,1125.3173786997795,None,0.28877719957381487,,,86 Aloud,001,2022_Nov_17_1153,ProdSingRedoBetween,2021.2.3,60.61124018055857,
,,,,31,0,31,0,,,,,,,,,,,,,,,,,,,,,,1128.5050010997802,None,,,,,,,,,,,,,,,,,guard,40,32,aloud,old,blue,1126.1435468001291,None,1126.1435468001291,None,6,1.7665657997131348,1126.1435468001291,None,1.7665657997131348,1127.9333741003647,None,1128.4353259997442,None,1128.4353259997442,None,r,0.04290909972041845,1128.4353259997442,None,0.04290909972041845,,,86 Aloud,001,2022_Nov_17_1153,ProdSingRedoBetween,2021.2.3,60.61124018055857,
,,,,32,0,32,0,,,,,,,,,,,,,,,,,,,,,,1131.388845300302,None,,,,,,,,,,,,,,,,,direction,114,33,aloud,new,null,1129.018156000413,None,1129.018156000413,None,6,1.6360574001446366,1129.018156000413,None,1.6360574001446366,1130.672969000414,None,1131.192335399799,None,1131.192335399799,None,r,0.16596379969269037,1131.192335399799,None,0.16596379969269037,,,86 Aloud,001,2022_Nov_17_1153,ProdSingRedoBetween,2021.2.3,60.61124018055857,
,,,,33,0,33,0,,,,,,,,,,,,,,,,,,,,,,1134.0419145999476,None,,,,,,,,,,,,,,,,,health,20,34,aloud,old,yellow,1131.9073179997504,None,1131.9073179997504,None,6,1.4668627995997667,1131.9073179997504,None,1.4668627995997667,1133.390077199787,None,1133.8916931003332,None,1133.8916931003332,None,r,0.12256819941103458,1133.8916931003332,None,0.12256819941103458,,,86 Aloud,001,2022_Nov_17_1153,ProdSingRedoBetween,2021.2.3,60.61124018055857,
,,,,34,0,34,0,,,,,,,,,,,,,,,,,,,,,,1137.4597624000162,None,,,,,,,,,,,,,,,,,goose,123,35,aloud,new,null,1134.5656281001866,None,1134.5656281001866,None,2,1.9365122001618147,1134.5656281001866,None,1.9365122001618147,1136.5282821999863,None,1137.0431622006,None,1137.0431622006,None,f,0.38698479998856783,1137.0431622006,None,0.38698479998856783,,,86 Aloud,001,2022_Nov_17_1153,ProdSingRedoBetween,2021.2.3,60.61124018055857,
,,,,35,0,35,0,,,,,,,,,,,,,,,,,,,,,,1140.06221249979,None,,,,,,,,,,,,,,,,,display,137,36,aloud,new,null,1137.9653125004843,None,1137.9653125004843,None,2,1.4008435001596808,1137.9653125004843,None,1.4008435001596808,1139.3961476003751,None,1139.9025865001604,None,1139.9025865001604,None,f,0.1355579998344183,1139.9025865001604,None,0.1355579998344183,,,86 Aloud,001,2022_Nov_17_1153,ProdSingRedoBetween,2021.2.3,60.61124018055857,
,,,,36,0,36,0,,,,,,,,,,,,,,,,,,,,,,1142.9819505000487,None,,,,,,,,,,,,,,,,,trail,150,37,aloud,new,null,1140.568682800047,None,1140.568682800047,None,3,1.7493581995368004,1140.568682800047,None,1.7493581995368004,1142.34858440049,None,1142.8485773997381,None,1142.8485773997381,None,f,0.10959579981863499,1142.8485773997381,None,0.10959579981863499,,,86 Aloud,001,2022_Nov_17_1153,ProdSingRedoBetween,2021.2.3,60.61124018055857,
,,,,37,0,37,0,,,,,,,,,,,,,,,,,,,,,,1147.9034665999934,None,,,,,,,,,,,,,,,,,agency,179,38,aloud,new,null,1143.491680700332,None,1143.491680700332,None,3,3.7623963998630643,1143.491680700332,None,3.7623963998630643,1147.273345200345,None,1147.7938916003332,None,1147.7938916003332,None,f,0.09238279983401299,1147.7938916003332,None,0.09238279983401299,,,86 Aloud,001,2022_Nov_17_1153,ProdSingRedoBetween,2021.2.3,60.61124018055857,
,,,,38,0,38,0,,,,,,,,,,,,,,,,,,,,,,1154.2932414002717,None,,,,,,,,,,,,,,,,,design,167,39,aloud,new,null,1148.4036456998438,None,1148.4036456998438,None,5,3.3064828999340534,1148.4036456998438,None,3.3064828999340534,1151.7413788000122,None,1152.2429568003863,None,1152.2429568003863,None,r,2.0192197002470493,1152.2429568003863,None,2.0192197002470493,,,86 Aloud,001,2022_Nov_17_1153,ProdSingRedoBetween,2021.2.3,60.61124018055857,
,,,,39,0,39,0,,,,,,,,,,,,,,,,,,,,,,1160.0656499005854,None,,,,,,,,,,,,,,,,,fellow,37,40,aloud,old,blue,1154.802132899873,None,1154.802132899873,None,4,3.860008000396192,1154.802132899873,None,3.860008000396192,1158.6820697998628,None,1159.1838973006234,None,1159.1838973006234,None,f,0.8622185001149774,1159.1838973006234,None,0.8622185001149774,,,86 Aloud,001,2022_Nov_17_1153,ProdSingRedoBetween,2021.2.3,60.61124018055857,
,,,,40,0,40,0,,,,,,,,,,,,,,,,,,,,,,1164.5200829999521,None,,,,,,,,,,,,,,,,,build,160,41,aloud,new,null,1160.5739925000817,None,1160.5739925000817,None,2,2.9039802998304367,1160.5739925000817,None,2.9039802998304367,1163.5065008997917,None,1164.0196599001065,None,1164.0196599001065,None,f,0.4743485003709793,1164.0196599001065,None,0.4743485003709793,,,86 Aloud,001,2022_Nov_17_1153,ProdSingRedoBetween,2021.2.3,60.61124018055857,
,,,,41,0,41,0,,,,,,,,,,,,,,,,,,,,,,1169.12465529982,None,,,,,,,,,,,,,,,,,tennis,24,42,aloud,old,yellow,1165.0245702005923,None,1165.0245702005923,None,2,3.0855489997193217,1165.0245702005923,None,3.0855489997193217,1168.1404125997797,None,1168.6439326005057,None,1168.6439326005057,None,r,0.45813249982893467,1168.6439326005057,None,0.45813249982893467,,,86 Aloud,001,2022_Nov_17_1153,ProdSingRedoBetween,2021.2.3,60.61124018055857,
,,,,42,0,42,0,,,,,,,,,,,,,,,,,,,,,,1171.9608490997925,None,,,,,,,,,,,,,,,,,industry,34,43,aloud,old,blue,1169.6330861998722,None,1169.6330861998722,None,3,1.605023699812591,1169.6330861998722,None,1.605023699812591,1171.2610474005342,None,1171.7675144998357,None,1171.7675144998357,None,f,0.1665241001173854,1171.7675144998357,None,0.1665241001173854,,,86 Aloud,001,2022_Nov_17_1153,ProdSingRedoBetween,2021.2.3,60.61124018055857,
,,,,43,0,43,0,,,,,,,,,,,,,,,,,,,,,,1175.6478316001594,None,,,,,,,,,,,,,,,,,comedy,111,44,aloud,new,null,1172.4679733999074,None,1172.4679733999074,None,3,1.5541087007150054,1172.4679733999074,None,1.5541087007150054,1174.0478520998731,None,1174.546916300431,None,1174.546916300431,None,f,1.0751652996987104,1174.546916300431,None,1.0751652996987104,,,86 Aloud,001,2022_Nov_17_1153,ProdSingRedoBetween,2021.2.3,60.61124018055857,
,,,,44,0,44,0,,,,,,,,,,,,,,,,,,,,,,1179.2847790997475,None,,,,,,,,,,,,,,,,,angle,26,45,aloud,old,yellow,1176.15639520064,None,1176.15639520064,None,6,1.5936465999111533,1176.15639520064,None,1.5936465999111533,1177.7674297997728,None,1178.2672541998327,None,1178.2672541998327,None,r,0.9948183000087738,1178.2672541998327,None,0.9948183000087738,,,86 Aloud,001,2022_Nov_17_1153,ProdSingRedoBetween,2021.2.3,60.61124018055857,
,,,,45,0,45,0,,,,,,,,,,,,,,,,,,,,,,1183.0883504999802,None,,,,,,,,,,,,,,,,,appeal,169,46,aloud,new,null,1179.792758599855,None,1179.792758599855,None,2,2.165313900448382,1179.792758599855,None,2.165313900448382,1181.9886265005916,None,1182.4946828000247,None,1182.4946828000247,None,f,0.5673839999362826,1182.4946828000247,None,0.5673839999362826,,,86 Aloud,001,2022_Nov_17_1153,ProdSingRedoBetween,2021.2.3,60.61124018055857,
,,,,46,0,46,0,,,,,,,,,,,,,,,,,,,,,,1187.2760458001867,None,,,,,,,,,,,,,,,,,space,0,47,aloud,old,yellow,1183.602295000106,None,1183.602295000106,None,3,2.5477446001023054,1183.602295000106,None,2.5477446001023054,1186.1781369997188,None,1186.6922989999875,None,1186.6922989999875,None,r,0.5617915997281671,1186.6922989999875,None,0.5617915997281671,,,86 Aloud,001,2022_Nov_17_1153,ProdSingRedoBetween,2021.2.3,60.61124018055857,
,,,,47,0,47,0,,,,,,,,,,,,,,,,,,,,,,1193.365528400056,None,,,,,,,,,,,,,,,,,cousin,113,48,aloud,new,null,1187.7800519997254,None,1187.7800519997254,None,1,3.8420254001393914,1187.7800519997254,None,3.8420254001393914,1191.6482169004157,None,1192.1526477001607,None,1192.1526477001607,None,r,1.197644599713385,1192.1526477001607,None,1.197644599713385,,,86 Aloud,001,2022_Nov_17_1153,ProdSingRedoBetween,2021.2.3,60.61124018055857,
,,,,48,0,48,0,,,,,,,,,,,,,,,,,,,,,,1196.5853666998446,None,,,,,,,,,,,,,,,,,theme,78,49,aloud,old,red,1193.8689521001652,None,1193.8689521001652,None,6,1.4970680000260472,1193.8689521001652,None,1.4970680000260472,1195.3902465999126,None,1195.9014162002131,None,1195.9014162002131,None,r,0.6565901003777981,1195.9014162002131,None,0.6565901003777981,,,86 Aloud,001,2022_Nov_17_1153,ProdSingRedoBetween,2021.2.3,60.61124018055857,
,,,,49,0,49,0,,,,,,,,,,,,,,,,,,,,,,1201.173343400471,None,,,,,,,,,,,,,,,,,cover,5,50,aloud,old,yellow,1197.0871942006052,None,1197.0871942006052,None,4,3.2469359999522567,1197.0871942006052,None,3.2469359999522567,1200.361135000363,None,1200.878211000003,None,1200.878211000003,None,r,0.2800079006701708,1200.878211000003,None,0.2800079006701708,,,86 Aloud,001,2022_Nov_17_1153,ProdSingRedoBetween,2021.2.3,60.61124018055857,
,,,,50,0,50,0,,,,,,,,,,,,,,,,,,,,,,1204.158124900423,None,,,,,,,,,,,,,,,,,brief,164,51,aloud,new,null,1201.6805730005726,None,1201.6805730005726,None,3,1.8055504998192191,1201.6805730005726,None,1.8055504998192191,1203.509261100553,None,1204.0095418998972,None,1204.0095418998972,None,r,0.1088001998141408,1204.0095418998972,None,0.1088001998141408,,,86 Aloud,001,2022_Nov_17_1153,ProdSingRedoBetween,2021.2.3,60.61124018055857,
,,,,51,0,51,0,,,,,,,,,,,,,,,,,,,,,,1207.079309400171,None,,,,,,,,,,,,,,,,,husband,48,52,aloud,old,blue,1204.6705876998603,None,1204.6705876998603,None,6,1.6714360993355513,1204.6705876998603,None,1.6714360993355513,1206.3632781999186,None,1206.8670241003856,None,1206.8670241003856,None,r,0.19493649993091822,1206.8670241003856,None,0.19493649993091822,,,86 Aloud,001,2022_Nov_17_1153,ProdSingRedoBetween,2021.2.3,60.61124018055857,
,,,,52,0,52,0,,,,,,,,,,,,,,,,,,,,,,1210.665938500315,None,,,,,,,,,,,,,,,,,grade,154,53,aloud,new,null,1207.5849711997434,None,1207.5849711997434,None,5,2.3969783997163177,1207.5849711997434,None,2.3969783997163177,1209.9990388005972,None,1210.4994184998795,None,1210.4994184998795,None,r,0.1464895997196436,1210.4994184998795,None,0.1464895997196436,,,86 Aloud,001,2022_Nov_17_1153,ProdSingRedoBetween,2021.2.3,60.61124018055857,
,,,,53,0,53,0,,,,,,,,,,,,,,,,,,,,,,1214.3235892998055,None,,,,,,,,,,,,,,,,,center,63,54,aloud,old,red,1211.1729549998417,None,1211.1729549998417,None,3,2.3771179001778364,1211.1729549998417,None,2.3771179001778364,1213.5727622006088,None,1214.0917741004378,None,1214.0917741004378,None,r,0.20227850042283535,1214.0917741004378,None,0.20227850042283535,,,86 Aloud,001,2022_Nov_17_1153,ProdSingRedoBetween,2021.2.3,60.61124018055857,
,,,,54,0,54,0,,,,,,,,,,,,,,,,,,,,,,1218.241849699989,None,,,,,,,,,,,,,,,,,production,77,55,aloud,old,red,1214.8410809002817,None,1214.8410809002817,None,2,2.772911099717021,1214.8410809002817,None,2.772911099717021,1217.6439992999658,None,1218.1606540000066,None,1218.1606540000066,None,f,0.05337359942495823,1218.1606540000066,None,0.05337359942495823,,,86 Aloud,001,2022_Nov_17_1153,ProdSingRedoBetween,2021.2.3,60.61124018055857,
,,,,55,0,55,0,,,,,,,,,,,,,,,,,,,,,,1220.8929628999904,None,,,,,,,,,,,,,,,,,military,23,56,aloud,old,yellow,1218.7452124999836,None,1218.7452124999836,None,6,1.492770199663937,1218.7452124999836,None,1.492770199663937,1220.2604806004092,None,1220.759759100154,None,1220.759759100154,None,r,0.11826900020241737,1220.759759100154,None,0.11826900020241737,,,86 Aloud,001,2022_Nov_17_1153,ProdSingRedoBetween,2021.2.3,60.61124018055857,
,,,,56,0,56,0,,,,,,,,,,,,,,,,,,,,,,1224.2462862003595,None,,,,,,,,,,,,,,,,,background,162,57,aloud,new,null,1221.4050008999184,None,1221.4050008999184,None,6,1.3130151005461812,1221.4050008999184,None,1.3130151005461812,1222.7490972001106,None,1223.2621585000306,None,1223.2621585000306,None,r,0.9599165003746748,1223.2621585000306,None,0.9599165003746748,,,86 Aloud,001,2022_Nov_17_1153,ProdSingRedoBetween,2021.2.3,60.61124018055857,
,,,,57,0,57,0,,,,,,,,,,,,,,,,,,,,,,1227.8665730999783,None,,,,,,,,,,,,,,,,,discovery,59,58,aloud,old,yellow,1224.7582053998485,None,1224.7582053998485,None,5,1.6716949995607138,1224.7582053998485,None,1.6716949995607138,1226.452881500125,None,1226.9662164999172,None,1226.9662164999172,None,r,0.879789600148797,1226.9662164999172,None,0.879789600148797,,,86 Aloud,001,2022_Nov_17_1153,ProdSingRedoBetween,2021.2.3,60.61124018055857,
,,,,58,0,58,0,,,,,,,,,,,,,,,,,,,,,,1230.8526600999758,None,,,,,,,,,,,,,,,,,patient,6,59,aloud,old,yellow,1228.376120599918,None,1228.376120599918,None,4,1.797902399674058,1228.376120599918,None,1.797902399674058,1230.2050759000704,None,1230.7240709997714,None,1230.7240709997714,None,r,0.10596879944205284,1230.7240709997714,None,0.10596879944205284,,,86 Aloud,001,2022_Nov_17_1153,ProdSingRedoBetween,2021.2.3,60.61124018055857,
,,,,59,0,59,0,,,,,,,,,,,,,,,,,,,,,,1233.490290700458,None,,,,,,,,,,,,,,,,,quick,2,60,aloud,old,yellow,1231.3576476005837,None,1231.3576476005837,None,6,1.4723402000963688,1231.3576476005837,None,1.4723402000963688,1232.8569732001051,None,1233.372199700214,None,1233.372199700214,None,r,0.0898018004372716,1233.372199700214,None,0.0898018004372716,,,86 Aloud,001,2022_Nov_17_1153,ProdSingRedoBetween,2021.2.3,60.61124018055857,
,,,,60,0,60,0,,,,,,,,,,,,,,,,,,,,,,1236.1914034998044,None,,,,,,,,,,,,,,,,,century,124,61,aloud,new,null,1233.9975597001612,None,1233.9975597001612,None,3,1.4884196994826198,1233.9975597001612,None,1.4884196994826198,1235.5087214000523,None,1236.0119280004874,None,1236.0119280004874,None,r,0.15405569970607758,1236.0119280004874,None,0.15405569970607758,,,86 Aloud,001,2022_Nov_17_1153,ProdSingRedoBetween,2021.2.3,60.61124018055857,
,,,,61,0,61,0,,,,,,,,,,,,,,,,,,,,,,1239.8118646005169,None,,,,,,,,,,,,,,,,,cross,41,62,aloud,old,blue,1236.6989766005427,None,1236.6989766005427,None,3,1.4590659998357296,1236.6989766005427,None,1.4590659998357296,1238.178194699809,None,1238.6825095005333,None,1238.6825095005333,None,f,1.1074572000652552,1238.6825095005333,None,1.1074572000652552,,,86 Aloud,001,2022_Nov_17_1153,ProdSingRedoBetween,2021.2.3,60.61124018055857,
,,,,62,0,62,0,,,,,,,,,,,,,,,,,,,,,,1242.2510719997808,None,,,,,,,,,,,,,,,,,corner,89,63,aloud,old,red,1240.3137582000345,None,1240.3137582000345,None,3,1.2362220995128155,1240.3137582000345,None,1.2362220995128155,1241.5826190998778,None,1242.1092436006293,None,1242.1092436006293,None,f,0.12079180032014847,1242.1092436006293,None,0.12079180032014847,,,86 Aloud,001,2022_Nov_17_1153,ProdSingRedoBetween,2021.2.3,60.61124018055857,
,,,,63,0,63,0,,,,,,,,,,,,,,,,,,,,,,1245.3840003004298,None,,,,,,,,,,,,,,,,,shear,13,64,aloud,old,yellow,1242.7718861000612,None,1242.7718861000612,None,6,1.7382024992257357,1242.7718861000612,None,1.7382024992257357,1244.5346445003524,None,1245.0376674998552,None,1245.0376674998552,None,r,0.3281896999105811,1245.0376674998552,None,0.3281896999105811,,,86 Aloud,001,2022_Nov_17_1153,ProdSingRedoBetween,2021.2.3,60.61124018055857,
,,,,64,0,64,0,,,,,,,,,,,,,,,,,,,,,,1249.7717580003664,None,,,,,,,,,,,,,,,,,right,100,65,aloud,new,null,1245.8903624005616,None,1245.8903624005616,None,1,2.5235767997801304,1245.8903624005616,None,2.5235767997801304,1248.4380488004535,None,1248.9406559001654,None,1248.9406559001654,None,f,0.8092980002984405,1248.9406559001654,None,0.8092980002984405,,,86 Aloud,001,2022_Nov_17_1153,ProdSingRedoBetween,2021.2.3,60.61124018055857,
,,,,65,0,65,0,,,,,,,,,,,,,,,,,,,,,,1252.408724100329,None,,,,,,,,,,,,,,,,,substance,94,66,aloud,new,null,1250.2797488998622,None,1250.2797488998622,None,1,1.406351899728179,1250.2797488998622,None,1.406351899728179,1251.7097966000438,None,1252.2288337005302,None,1252.2288337005302,None,f,0.16109330020844936,1252.2288337005302,None,0.16109330020844936,,,86 Aloud,001,2022_Nov_17_1153,ProdSingRedoBetween,2021.2.3,60.61124018055857,
,,,,66,0,66,0,,,,,,,,,,,,,,,,,,,,,,1255.0290099000558,None,,,,,,,,,,,,,,,,,generation,139,67,aloud,new,null,1252.9098618999124,None,1252.9098618999124,None,1,1.4480536999180913,1252.9098618999124,None,1.4480536999180913,1254.3798373006284,None,1254.8937113005668,None,1254.8937113005668,None,f,0.11217479966580868,1254.8937113005668,None,0.11217479966580868,,,86 Aloud,001,2022_Nov_17_1153,ProdSingRedoBetween,2021.2.3,60.61124018055857,
,,,,67,0,67,0,,,,,,,,,,,,,,,,,,,,,,1257.8013014001772,None,,,,,,,,,,,,,,,,,produce,70,68,aloud,old,red,1255.5443008001894,None,1255.5443008001894,None,3,1.6855325996875763,1255.5443008001894,None,1.6855325996875763,1257.2478788001463,None,1257.766763200052,None,1257.766763200052,None,f,0.007348500192165375,1257.766763200052,None,0.007348500192165375,,,86 Aloud,001,2022_Nov_17_1153,ProdSingRedoBetween,2021.2.3,60.61124018055857,
,,,,68,0,68,0,,,,,,,,,,,,,,,,,,,,,,1260.048570100218,None,,,,,,,,,,,,,,,,,graduate,115,69,aloud,new,null,1258.3232888998464,None,1258.3232888998464,None,3,1.1706280997022986,1258.3232888998464,None,1.1706280997022986,1259.5145834004506,None,1260.0153790004551,None,1260.0153790004551,None,f,0.006564700044691563,1260.0153790004551,None,0.006564700044691563,,,86 Aloud,001,2022_Nov_17_1153,ProdSingRedoBetween,2021.2.3,60.61124018055857,
,,,,69,0,69,0,,,,,,,,,,,,,,,,,,,,,,1263.218491400592,None,,,,,,,,,,,,,,,,,drove,7,70,aloud,old,yellow,1260.5527256997302,None,1260.5527256997302,None,2,1.8293543001636863,1260.5527256997302,None,1.8293543001636863,1262.404777799733,None,1262.9215186005458,None,1262.9215186005458,None,f,0.26843110006302595,1262.9215186005458,None,0.26843110006302595,,,86 Aloud,001,2022_Nov_17_1153,ProdSingRedoBetween,2021.2.3,60.61124018055857,
,,,,70,0,70,0,,,,,,,,,,,,,,,,,,,,,,1266.457391699776,None,,,,,,,,,,,,,,,,,guest,81,71,aloud,old,red,1263.7223324999213,None,1263.7223324999213,None,3,1.9797149002552032,1263.7223324999213,None,1.9797149002552032,1265.7248710999265,None,1266.243077199906,None,1266.243077199906,None,f,0.18687000032514334,1266.243077199906,None,0.18687000032514334,,,86 Aloud,001,2022_Nov_17_1153,ProdSingRedoBetween,2021.2.3,60.61124018055857,
,,,,71,0,71,0,,,,,,,,,,,,,,,,,,,,,,1268.5919804004952,None,,,,,,,,,,,,,,,,,thing,107,72,aloud,new,null,1266.97974300012,None,1266.97974300012,None,3,0.9782917005941272,1266.97974300012,None,0.9782917005941272,1267.9742181003094,None,1268.4780489997938,None,1268.4780489997938,None,f,0.08803190011531115,1268.4780489997938,None,0.08803190011531115,,,86 Aloud,001,2022_Nov_17_1153,ProdSingRedoBetween,2021.2.3,60.61124018055857,
,,,,72,0,72,0,,,,,,,,,,,,,,,,,,,,,,1271.9939267002046,None,,,,,,,,,,,,,,,,,height,60,73,aloud,old,red,1269.0950001999736,None,1269.0950001999736,None,6,1.6389360995963216,1269.0950001999736,None,1.6389360995963216,1270.7603072999045,None,1271.2601963002235,None,1271.2601963002235,None,r,0.7137682000175118,1271.2601963002235,None,0.7137682000175118,,,86 Aloud,001,2022_Nov_17_1153,ProdSingRedoBetween,2021.2.3,60.61124018055857,
,,,,73,0,73,0,,,,,,,,,,,,,,,,,,,,,,1276.698590300046,None,,,,,,,,,,,,,,,,,business,50,74,aloud,old,blue,1272.4987009000033,None,1272.4987009000033,None,6,1.5712780002504587,1272.4987009000033,None,1.5712780002504587,1274.101525399834,None,1274.6143062999472,None,1274.6143062999472,None,r,2.055479700677097,1274.6143062999472,None,2.055479700677097,,,86 Aloud,001,2022_Nov_17_1153,ProdSingRedoBetween,2021.2.3,60.61124018055857,
,,,,74,0,74,0,,,,,,,,,,,,,,,,,,,,,,1281.8704187003896,None,,,,,,,,,,,,,,,,,agreement,68,75,aloud,old,red,1277.1992041999474,None,1277.1992041999474,None,4,2.0466229002922773,1277.1992041999474,None,2.0466229002922773,1279.2678193999454,None,1279.7686640005559,None,1279.7686640005559,None,r,2.0852019991725683,1279.7686640005559,None,2.0852019991725683,,,86 Aloud,001,2022_Nov_17_1153,ProdSingRedoBetween,2021.2.3,60.61124018055857,
,,,,75,0,75,0,,,,,,,,,,,,,,,,,,,,,,1285.0733067002147,None,,,,,,,,,,,,,,,,,evidence,18,76,aloud,old,yellow,1282.3746023997664,None,1282.3746023997664,None,3,1.9513211995363235,1282.3746023997664,None,1.9513211995363235,1284.3593637999147,None,1284.8734435997903,None,1284.8734435997903,None,f,0.17233219929039478,1284.8734435997903,None,0.17233219929039478,,,86 Aloud,001,2022_Nov_17_1153,ProdSingRedoBetween,2021.2.3,60.61124018055857,
,,,,76,0,76,0,,,,,,,,,,,,,,,,,,,,,,1288.8106428002939,None,,,,,,,,,,,,,,,,,guide,91,77,aloud,new,null,1285.5769571997225,None,1285.5769571997225,None,6,2.004859999753535,1285.5769571997225,None,2.004859999753535,1287.6100807003677,None,1288.1101326998323,None,1288.1101326998323,None,r,0.6799218999221921,1288.1101326998323,None,0.6799218999221921,,,86 Aloud,001,2022_Nov_17_1153,ProdSingRedoBetween,2021.2.3,60.61124018055857,
,,,,77,0,77,0,,,,,,,,,,,,,,,,,,,,,,1292.2474405998364,None,,,,,,,,,,,,,,,,,childhood,86,78,aloud,old,red,1289.3148984005675,None,1289.3148984005675,None,1,2.3069448992609978,1289.3148984005675,None,2.3069448992609978,1291.6467061005533,None,1292.1474208999425,None,1292.1474208999425,None,r,0.07455809973180294,1292.1474208999425,None,0.07455809973180294,,,86 Aloud,001,2022_Nov_17_1153,ProdSingRedoBetween,2021.2.3,60.61124018055857,
,,,,78,0,78,0,,,,,,,,,,,,,,,,,,,,,,1296.8185916999355,None,,,,,,,,,,,,,,,,,emergency,102,79,aloud,new,null,1292.7675552004948,None,1292.7675552004948,None,3,2.574436600320041,1292.7675552004948,None,2.574436600320041,1295.3670866005123,None,1295.8677783999592,None,1295.8677783999592,None,r,0.9221115000545979,1295.8677783999592,None,0.9221115000545979,,,86 Aloud,001,2022_Nov_17_1153,ProdSingRedoBetween,2021.2.3,60.61124018055857,
,,,,79,0,79,0,,,,,,,,,,,,,,,,,,,,,,1299.721588499844,None,,,,,,,,,,,,,,,,,order,73,80,aloud,old,red,1297.3290715999901,None,1297.3290715999901,None,6,1.8047919003292918,1297.3290715999901,None,1.8047919003292918,1299.1552908997983,None,1299.656874500215,None,1299.656874500215,None,r,0.0449929004535079,1299.656874500215,None,0.0449929004535079,,,86 Aloud,001,2022_Nov_17_1153,ProdSingRedoBetween,2021.2.3,60.61124018055857,
,,,,80,0,80,0,,,,,,,,,,,,,,,,,,,,,,1303.3437876999378,None,,,,,,,,,,,,,,,,,native,104,81,aloud,new,null,1300.2336582997814,None,1300.2336582997814,None,1,2.2763416999951005,1300.2336582997814,None,2.2763416999951005,1302.542701200582,None,1303.0488408003002,None,1303.0488408003002,None,r,0.2690810998901725,1303.0488408003002,None,0.2690810998901725,,,86 Aloud,001,2022_Nov_17_1153,ProdSingRedoBetween,2021.2.3,60.61124018055857,
,,,,81,0,81,0,,,,,,,,,,,,,,,,,,,,,,1306.061045399867,None,,,,,,,,,,,,,,,,,spoke,47,82,aloud,old,blue,1303.878785200417,None,1303.878785200417,None,3,1.4231600007042289,1303.878785200417,None,1.4231600007042289,1305.3380788005888,None,1305.8445047000423,None,1305.8445047000423,None,f,0.19329730048775673,1305.8445047000423,None,0.19329730048775673,,,86 Aloud,001,2022_Nov_17_1153,ProdSingRedoBetween,2021.2.3,60.61124018055857,
,,,,82,0,82,0,,,,,,,,,,,,,,,,,,,,,,1308.9643572000787,None,,,,,,,,,,,,,,,,,research,129,83,aloud,new,null,1306.5617684004828,None,1306.5617684004828,None,4,1.7719860998913646,1306.5617684004828,None,1.7719860998913646,1308.3737064003944,None,1308.8805271005258,None,1308.8805271005258,None,r,0.06146030034869909,1308.8805271005258,None,0.06146030034869909,,,86 Aloud,001,2022_Nov_17_1153,ProdSingRedoBetween,2021.2.3,60.61124018055857,
,,,,83,0,83,0,,,,,,,,,,,,,,,,,,,,,,1314.3076026001945,None,,,,,,,,,,,,,,,,,shape,54,84,aloud,old,blue,1309.4653650997207,None,1309.4653650997207,None,2,3.0925392005592585,1309.4653650997207,None,3.0925392005592585,1312.58568680007,None,1313.0935776000842,None,1313.0935776000842,None,r,1.184379099868238,1313.0935776000842,None,1.184379099868238,,,86 Aloud,001,2022_Nov_17_1153,ProdSingRedoBetween,2021.2.3,60.61124018055857,
,,,,84,0,84,0,,,,,,,,,,,,,,,,,,,,,,1317.2374547999352,None,,,,,,,,,,,,,,,,,platform,175,85,aloud,new,null,1314.8251311006024,None,1314.8251311006024,None,2,1.8526098998263478,1314.8251311006024,None,1.8526098998263478,1316.7066567000002,None,1317.2109497999772,None,1317.2109497999772,None,r,0.0031481003388762474,1317.2109497999772,None,0.0031481003388762474,,,86 Aloud,001,2022_Nov_17_1153,ProdSingRedoBetween,2021.2.3,60.61124018055857,
,,,,85,0,85,0,,,,,,,,,,,,,,,,,,,,,,1320.5090228002518,None,,,,,,,,,,,,,,,,,owner,22,86,aloud,old,yellow,1317.7480808002874,None,1317.7480808002874,None,6,1.865710699930787,1317.7480808002874,None,1.865710699930787,1319.6479313997552,None,1320.1594281997532,None,1320.1594281997532,None,r,0.3185184998437762,1320.1594281997532,None,0.3185184998437762,,,86 Aloud,001,2022_Nov_17_1153,ProdSingRedoBetween,2021.2.3,60.61124018055857,
,,,,86,0,86,0,,,,,,,,,,,,,,,,,,,,,,1323.764881200157,None,,,,,,,,,,,,,,,,,symbol,52,87,aloud,old,blue,1321.0189882004634,None,1321.0189882004634,None,1,1.5308733992278576,1321.0189882004634,None,1.5308733992278576,1322.58844100032,None,1323.0967699000612,None,1323.0967699000612,None,f,0.6452101999893785,1323.0967699000612,None,0.6452101999893785,,,86 Aloud,001,2022_Nov_17_1153,ProdSingRedoBetween,2021.2.3,60.61124018055857,
,,,,87,0,87,0,,,,,,,,,,,,,,,,,,,,,,1326.9320913003758,None,,,,,,,,,,,,,,,,,history,72,88,aloud,old,red,1324.2795679001138,None,1324.2795679001138,None,6,1.7741869008168578,1324.2795679001138,None,1.7741869008168578,1326.0823145005852,None,1326.5853005005047,None,1326.5853005005047,None,r,0.3166072992607951,1326.5853005005047,None,0.3166072992607951,,,86 Aloud,001,2022_Nov_17_1153,ProdSingRedoBetween,2021.2.3,60.61124018055857,
,,,,88,0,88,0,,,,,,,,,,,,,,,,,,,,,,1329.934952000156,None,,,,,,,,,,,,,,,,,burden,140,89,aloud,new,null,1327.4476057998836,None,1327.4476057998836,None,1,1.7664034003391862,1327.4476057998836,None,1.7664034003391862,1329.2423216002062,None,1329.7544625997543,None,1329.7544625997543,None,f,0.15533539932221174,1329.7544625997543,None,0.15533539932221174,,,86 Aloud,001,2022_Nov_17_1153,ProdSingRedoBetween,2021.2.3,60.61124018055857,
,,,,89,0,89,0,,,,,,,,,,,,,,,,,,,,,,1333.2730101998895,None,,,,,,,,,,,,,,,,,broke,99,90,aloud,new,null,1330.4466516003013,None,1330.4466516003013,None,2,1.9671521000564098,1330.4466516003013,None,1.9671521000564098,1332.4403918003663,None,1332.9603658998385,None,1332.9603658998385,None,r,0.28567880019545555,1332.9603658998385,None,0.28567880019545555,,,86 Aloud,001,2022_Nov_17_1153,ProdSingRedoBetween,2021.2.3,60.61124018055857,
,,,,90,0,90,0,,,,,,,,,,,,,,,,,,,,,,1336.241423100233,None,,,,,,,,,,,,,,,,,capital,30,91,aloud,old,blue,1333.7761328006163,None,1333.7761328006163,None,3,1.4215965000912547,1333.7761328006163,None,1.4215965000912547,1335.227851100266,None,1335.7411738997325,None,1335.7411738997325,None,r,0.4725464005023241,1335.7411738997325,None,0.4725464005023241,,,86 Aloud,001,2022_Nov_17_1153,ProdSingRedoBetween,2021.2.3,60.61124018055857,
,,,,91,0,91,0,,,,,,,,,,,,,,,,,,,,,,1338.4602319998667,None,,,,,,,,,,,,,,,,,scale,105,92,aloud,new,null,1336.7451618006453,None,1336.7451618006453,None,3,1.1246290998533368,1336.7451618006453,None,1.1246290998533368,1337.8948804000393,None,1338.4136159000918,None,1338.4136159000918,None,r,0.016191300004720688,1338.4136159000918,None,0.016191300004720688,,,86 Aloud,001,2022_Nov_17_1153,ProdSingRedoBetween,2021.2.3,60.61124018055857,
,,,,92,0,92,0,,,,,,,,,,,,,,,,,,,,,,1341.6357024004683,None,,,,,,,,,,,,,,,,,department,96,93,aloud,new,null,1338.9677785001695,None,1338.9677785001695,None,3,2.022165199741721,1338.9677785001695,None,2.022165199741721,1341.0129327997565,None,1341.5151345999911,None,1341.5151345999911,None,r,0.09883040003478527,1341.5151345999911,None,0.09883040003478527,,,86 Aloud,001,2022_Nov_17_1153,ProdSingRedoBetween,2021.2.3,60.61124018055857,
,,,,93,0,93,0,,,,,,,,,,,,,,,,,,,,,,1345.0022315001115,None,,,,,,,,,,,,,,,,,religion,33,94,aloud,old,blue,1342.1504111001268,None,1342.1504111001268,None,4,2.2553047006949782,1342.1504111001268,None,2.2553047006949782,1344.4350225003436,None,1344.9497739002109,None,1344.9497739002109,None,r,0.03194830007851124,1344.9497739002109,None,0.03194830007851124,,,86 Aloud,001,2022_Nov_17_1153,ProdSingRedoBetween,2021.2.3,60.61124018055857,
,,,,94,0,94,0,,,,,,,,,,,,,,,,,,,,,,1349.3711136998609,None,,,,,,,,,,,,,,,,,opening,55,95,aloud,old,blue,1345.5213523004204,None,1345.5213523004204,None,6,2.8043382996693254,1345.5213523004204,None,2.8043382996693254,1348.3550899997354,None,1348.8706784006208,None,1348.8706784006208,None,r,0.4710872005671263,1348.8706784006208,None,0.4710872005671263,,,86 Aloud,001,2022_Nov_17_1153,ProdSingRedoBetween,2021.2.3,60.61124018055857,
,,,,95,0,95,0,,,,,,,,,,,,,,,,,,,,,,1352.2406355002895,None,,,,,,,,,,,,,,,,,figure,64,96,aloud,old,red,1349.8718247003853,None,1349.8718247003853,None,4,1.293950299732387,1349.8718247003853,None,1.293950299732387,1351.1938259005547,None,1351.7069006999955,None,1351.7069006999955,None,r,0.5149063998833299,1351.7069006999955,None,0.5149063998833299,,,86 Aloud,001,2022_Nov_17_1153,ProdSingRedoBetween,2021.2.3,60.61124018055857,
,,,,96,0,96,0,,,,,,,,,,,,,,,,,,,,,,1354.9931257003918,None,,,,,,,,,,,,,,,,,commercial,147,97,aloud,new,null,1352.7467959998176,None,1352.7467959998176,None,2,1.62719970010221,1352.7467959998176,None,1.62719970010221,1354.3995083998889,None,1354.9132261006162,None,1354.9132261006162,None,r,0.06056470051407814,1354.9132261006162,None,0.06056470051407814,,,86 Aloud,001,2022_Nov_17_1153,ProdSingRedoBetween,2021.2.3,60.61124018055857,
,,,,97,0,97,0,,,,,,,,,,,,,,,,,,,,,,1357.6794156003743,None,,,,,,,,,,,,,,,,,fashion,35,98,aloud,old,blue,1355.504593600519,None,1355.504593600519,None,6,1.5011653006076813,1355.504593600519,None,1.5011653006076813,1357.0302255004644,None,1357.5293006999418,None,1357.5293006999418,None,r,0.1324396999552846,1357.5293006999418,None,0.1324396999552846,,,86 Aloud,001,2022_Nov_17_1153,ProdSingRedoBetween,2021.2.3,60.61124018055857,
,,,,98,0,98,0,,,,,,,,,,,,,,,,,,,,,,1359.94829950016,None,,,,,,,,,,,,,,,,,watch,3,99,aloud,old,yellow,1358.188365300186,None,1358.188365300186,None,1,1.1614826004952192,1358.188365300186,None,1.1614826004952192,1359.382266100496,None,1359.8816653005779,None,1359.8816653005779,None,r,0.036192900501191616,1359.8816653005779,None,0.036192900501191616,,,86 Aloud,001,2022_Nov_17_1153,ProdSingRedoBetween,2021.2.3,60.61124018055857,
,,,,99,0,99,0,,,,,,,,,,,,,,,,,,,,,,1362.1857326999307,None,,,,,,,,,,,,,,,,,quarter,172,100,aloud,new,null,1360.4778292002156,None,1360.4778292002156,None,1,1.0479763001203537,1360.4778292002156,None,1.0479763001203537,1361.5582189001143,None,1362.069899899885,None,1362.069899899885,None,r,0.0958414999768138,1362.069899899885,None,0.0958414999768138,,,86 Aloud,001,2022_Nov_17_1153,ProdSingRedoBetween,2021.2.3,60.61124018055857,
,,,,100,0,100,0,,,,,,,,,,,,,,,,,,,,,,1365.0530968001112,None,,,,,,,,,,,,,,,,,strength,16,101,aloud,old,yellow,1362.7118720002472,None,1362.7118720002472,None,6,1.6858709007501602,1362.7118720002472,None,1.6858709007501602,1364.4209289997816,None,1364.9281548000872,None,1364.9281548000872,None,r,0.10962140001356602,1364.9281548000872,None,0.10962140001356602,,,86 Aloud,001,2022_Nov_17_1153,ProdSingRedoBetween,2021.2.3,60.61124018055857,
,,,,101,0,101,0,,,,,,,,,,,,,,,,,,,,,,1368.4243040997535,None,,,,,,,,,,,,,,,,,management,136,102,aloud,new,null,1365.563424400054,None,1365.563424400054,None,6,1.4982369001954794,1365.563424400054,None,1.4982369001954794,1367.0941981002688,None,1367.605960899964,None,1367.605960899964,None,r,0.7916715992614627,1367.605960899964,None,0.7916715992614627,,,86 Aloud,001,2022_Nov_17_1153,ProdSingRedoBetween,2021.2.3,60.61124018055857,
,,,,102,0,102,0,,,,,,,,,,,,,,,,,,,,,,1371.2428997997195,None,,,,,,,,,,,,,,,,,recall,143,103,aloud,new,null,1368.9339003004134,None,1368.9339003004134,None,1,1.7277327002957463,1368.9339003004134,None,1.7277327002957463,1370.700200700201,None,1371.2096131006256,None,1371.2096131006256,None,r,0.012150200083851814,1371.2096131006256,None,0.012150200083851814,,,86 Aloud,001,2022_Nov_17_1153,ProdSingRedoBetween,2021.2.3,60.61124018055857,
,,,,103,0,103,0,,,,,,,,,,,,,,,,,,,,,,1373.3333874000236,None,,,,,,,,,,,,,,,,,ground,106,104,aloud,new,null,1371.7490475000814,None,1371.7490475000814,None,2,0.9685981003567576,1371.7490475000814,None,0.9685981003567576,1372.7451806003228,None,1373.2515144003555,None,1373.2515144003555,None,r,0.050246600061655045,1373.2515144003555,None,0.050246600061655045,,,86 Aloud,001,2022_Nov_17_1153,ProdSingRedoBetween,2021.2.3,60.61124018055857,
,,,,104,0,104,0,,,,,,,,,,,,,,,,,,,,,,1377.348997999914,None,,,,,,,,,,,,,,,,,sound,25,105,aloud,old,yellow,1373.8481986001134,None,1373.8481986001134,None,4,2.877533500082791,1373.8481986001134,None,2.877533500082791,1376.748830200173,None,1377.2539586005732,None,1377.2539586005732,None,r,0.07974800001829863,1377.2539586005732,None,0.07974800001829863,,,86 Aloud,001,2022_Nov_17_1153,ProdSingRedoBetween,2021.2.3,60.61124018055857,
,,,,105,0,105,0,,,,,,,,,,,,,,,,,,,,,,1381.8199621997774,None,,,,,,,,,,,,,,,,,republic,120,106,aloud,new,null,1377.8504341999069,None,1377.8504341999069,None,1,2.035295099951327,1377.8504341999069,None,2.035295099951327,1379.9098906004801,None,1380.4207552997395,None,1380.4207552997395,None,f,1.369055200368166,1380.4207552997395,None,1.369055200368166,,,86 Aloud,001,2022_Nov_17_1153,ProdSingRedoBetween,2021.2.3,60.61124018055857,
,,,,106,0,106,0,,,,,,,,,,,,,,,,,,,,,,1386.394922300242,None,,,,,,,,,,,,,,,,,debate,57,107,aloud,old,blue,1382.3245117003098,None,1382.3245117003098,None,2,3.1131862001493573,1382.3245117003098,None,3.1131862001493573,1385.4580204999074,None,1385.959936200641,None,1385.959936200641,None,r,0.4060514001175761,1385.959936200641,None,0.4060514001175761,,,86 Aloud,001,2022_Nov_17_1153,ProdSingRedoBetween,2021.2.3,60.61124018055857,
,,,,107,0,107,0,,,,,,,,,,,,,,,,,,,,,,1390.9457021001726,None,,,,,,,,,,,,,,,,,track,88,108,aloud,old,red,1386.9122401000932,None,1386.9122401000932,None,2,3.173431600444019,1386.9122401000932,None,3.173431600444019,1390.1115728998557,None,1390.6149081997573,None,1390.6149081997573,None,r,0.3108804998919368,1390.6149081997573,None,0.3108804998919368,,,86 Aloud,001,2022_Nov_17_1153,ProdSingRedoBetween,2021.2.3,60.61124018055857,
,,,,108,0,108,0,,,,,,,,,,,,,,,,,,,,,,1393.485366200097,None,,,,,,,,,,,,,,,,,signal,142,109,aloud,new,null,1391.4673025002703,None,1391.4673025002703,None,2,1.3863768000155687,1391.4673025002703,None,1.3863768000155687,1392.8876986000687,None,1393.4041463006288,None,1393.4041463006288,None,r,0.049744799733161926,1393.4041463006288,None,0.049744799733161926,,,86 Aloud,001,2022_Nov_17_1153,ProdSingRedoBetween,2021.2.3,60.61124018055857,
,,,,109,0,109,0,,,,,,,,,,,,,,,,,,,,,,1396.0704343998805,None,,,,,,,,,,,,,,,,,birth,28,110,aloud,old,yellow,1393.9989852998406,None,1393.9989852998406,None,6,1.438806800171733,1393.9989852998406,None,1.438806800171733,1395.4671048000455,None,1395.971760299988,None,1395.971760299988,None,r,0.0739935003221035,1395.971760299988,None,0.0739935003221035,,,86 Aloud,001,2022_Nov_17_1153,ProdSingRedoBetween,2021.2.3,60.61124018055857,
,,,,110,0,110,0,,,,,,,,,,,,,,,,,,,,,,1401.607350599952,None,,,,,,,,,,,,,,,,,turkey,171,111,aloud,new,null,1396.5849951002747,None,1396.5849951002747,None,1,3.7485916996374726,1396.5849951002747,None,3.7485916996374726,1400.360016000457,None,1400.888634700328,None,1400.888634700328,None,r,0.7011775998398662,1400.888634700328,None,0.7011775998398662,,,86 Aloud,001,2022_Nov_17_1153,ProdSingRedoBetween,2021.2.3,60.61124018055857,
,,,,111,0,111,0,,,,,,,,,,,,,,,,,,,,,,1409.5477579999715,None,,,,,,,,,,,,,,,,,answer,134,112,aloud,new,null,1402.1102489000186,None,1402.1102489000186,None,1,6.647418599575758,1402.1102489000186,None,6.647418599575758,1408.7816826002672,None,1409.2873052004725,None,1409.2873052004725,None,r,0.23041609954088926,1409.2873052004725,None,0.23041609954088926,,,86 Aloud,001,2022_Nov_17_1153,ProdSingRedoBetween,2021.2.3,60.61124018055857,
,,,,112,0,112,0,,,,,,,,,,,,,,,,,,,,,,1411.8667229004204,None,,,,,,,,,,,,,,,,,charter,149,113,aloud,new,null,1410.0540561005473,None,1410.0540561005473,None,1,1.215556800365448,1410.0540561005473,None,1.215556800365448,1411.29979880061,None,1411.8045690003783,None,1411.8045690003783,None,r,0.033228700049221516,1411.8045690003783,None,0.033228700049221516,,,86 Aloud,001,2022_Nov_17_1153,ProdSingRedoBetween,2021.2.3,60.61124018055857,
,,,,113,0,113,0,,,,,,,,,,,,,,,,,,,,,,1414.3358086999506,None,,,,,,,,,,,,,,,,,engineer,130,114,aloud,new,null,1412.3721914999187,None,1412.3721914999187,None,1,1.2174841994419694,1412.3721914999187,None,1.2174841994419694,1413.619347400032,None,1414.1191631006077,None,1414.1191631006077,None,r,0.19853300042450428,1414.1191631006077,None,0.19853300042450428,,,86 Aloud,001,2022_Nov_17_1153,ProdSingRedoBetween,2021.2.3,60.61124018055857,
,,,,114,0,114,0,,,,,,,,,,,,,,,,,,,,,,1416.8548619002104,None,,,,,,,,,,,,,,,,,safety,32,115,aloud,old,blue,1414.8394089005888,None,1414.8394089005888,None,1,1.406329800374806,1414.8394089005888,None,1.406329800374806,1416.278127799742,None,1416.788242599927,None,1416.788242599927,None,r,0.041379899717867374,1416.788242599927,None,0.041379899717867374,,,86 Aloud,001,2022_Nov_17_1153,ProdSingRedoBetween,2021.2.3,60.61124018055857,
,,,,115,0,115,0,,,,,,,,,,,,,,,,,,,,,,1419.0405256999657,None,,,,,,,,,,,,,,,,,chief,159,116,aloud,new,null,1417.3630932001397,None,1417.3630932001397,None,1,0.8585094008594751,1417.3630932001397,None,0.8585094008594751,1418.2413076004013,None,1418.7427042005584,None,1418.7427042005584,None,r,0.2709010997787118,1418.7427042005584,None,0.2709010997787118,,,86 Aloud,001,2022_Nov_17_1153,ProdSingRedoBetween,2021.2.3,60.61124018055857,
,,,,116,0,116,0,,,,,,,,,,,,,,,,,,,,,,1422.1102761002257,None,,,,,,,,,,,,,,,,,question,98,117,aloud,new,null,1419.5516447005793,None,1419.5516447005793,None,3,1.5500309998169541,1419.5516447005793,None,1.5500309998169541,1421.134643400088,None,1421.645857100375,None,1421.645857100375,None,r,0.44778749998658895,1421.645857100375,None,0.44778749998658895,,,86 Aloud,001,2022_Nov_17_1153,ProdSingRedoBetween,2021.2.3,60.61124018055857,
,,,,117,0,117,0,,,,,,,,,,,,,,,,,,,,,,1425.0632231999189,None,,,,,,,,,,,,,,,,,principal,79,118,aloud,old,red,1422.6234844997525,None,1422.6234844997525,None,6,1.7901448998600245,1422.6234844997525,None,1.7901448998600245,1424.4308775002137,None,1424.9298951001838,None,1424.9298951001838,None,r,0.10777360014617443,1424.9298951001838,None,0.10777360014617443,,,86 Aloud,001,2022_Nov_17_1153,ProdSingRedoBetween,2021.2.3,60.61124018055857,
,,,,118,0,118,0,,,,,,,,,,,,,,,,,,,,,,1427.436950900592,None,,,,,,,,,,,,,,,,,dozen,170,119,aloud,new,null,1425.5836653001606,None,1425.5836653001606,None,1,1.2218838995322585,1425.5836653001606,None,1.2218838995322585,1426.8324501998723,None,1427.3385140001774,None,1427.3385140001774,None,r,0.07530319970101118,1427.3385140001774,None,0.07530319970101118,,,86 Aloud,001,2022_Nov_17_1153,ProdSingRedoBetween,2021.2.3,60.61124018055857,
,,,,119,0,119,0,,,,,,,,,,,,,,,,,,,,,,1431.4565644999966,None,,,,,,,,,,,,,,,,,pattern,93,120,aloud,new,null,1427.9532089000568,None,1427.9532089000568,None,3,2.6764428997412324,1427.9532089000568,None,2.6764428997412324,1430.653819900006,None,1431.1693969005719,None,1431.1693969005719,None,r,0.2683226000517607,1431.1693969005719,None,0.2683226000517607,,,86 Aloud,001,2022_Nov_17_1153,ProdSingRedoBetween,2021.2.3,60.61124018055857,
,,,,120,0,120,0,,,,,,,,,,,,,,,,,,,,,,1434.8418616000563,None,,,,,,,,,,,,,,,,,finance,108,121,aloud,new,null,1431.992546000518,None,1431.992546000518,None,4,1.8049520999193192,1431.992546000518,None,1.8049520999193192,1433.8340614000335,None,1434.3406608998775,None,1434.3406608998775,None,r,0.4809115994721651,1434.3406608998775,None,0.4809115994721651,,,86 Aloud,001,2022_Nov_17_1153,ProdSingRedoBetween,2021.2.3,60.61124018055857,
,,,,121,0,121,0,,,,,,,,,,,,,,,,,,,,,,1440.628754700534,None,,,,,,,,,,,,,,,,,household,173,122,aloud,new,null,1435.357490800321,None,1435.357490800321,None,2,4.504055899567902,1435.357490800321,None,4.504055899567902,1439.8783833002672,None,1440.390628600493,None,1440.390628600493,None,r,0.20708929933607578,1440.390628600493,None,0.20708929933607578,,,86 Aloud,001,2022_Nov_17_1153,ProdSingRedoBetween,2021.2.3,60.61124018055857,
,,,,122,0,122,0,,,,,,,,,,,,,,,,,,,,,,1443.1479265000671,None,,,,,,,,,,,,,,,,,meeting,14,123,aloud,old,yellow,1441.1353540001437,None,1441.1353540001437,None,1,1.342259400524199,1441.1353540001437,None,1.342259400524199,1442.4983612997457,None,1442.9977446002886,None,1442.9977446002886,None,r,0.12790000066161156,1442.9977446002886,None,0.12790000066161156,,,86 Aloud,001,2022_Nov_17_1153,ProdSingRedoBetween,2021.2.3,60.61124018055857,
,,,,123,0,123,0,,,,,,,,,,,,,,,,,,,,,,1445.6837916998193,None,,,,,,,,,,,,,,,,,people,148,124,aloud,new,null,1443.6505607999861,None,1443.6505607999861,None,1,1.3790583005174994,1443.6505607999861,None,1.3790583005174994,1445.051209400408,None,1445.5505707003176,None,1445.5505707003176,None,r,0.1110776998102665,1445.5505707003176,None,0.1110776998102665,,,86 Aloud,001,2022_Nov_17_1153,ProdSingRedoBetween,2021.2.3,60.61124018055857,
,,,,124,0,124,0,,,,,,,,,,,,,,,,,,,,,,1448.087618900463,None,,,,,,,,,,,,,,,,,election,163,125,aloud,new,null,1446.1922014001757,None,1446.1922014001757,None,1,1.2054738998413086,1446.1922014001757,None,1.2054738998413086,1447.4232614999637,None,1447.9395396001637,None,1447.9395396001637,None,r,0.12211490049958229,1447.9395396001637,None,0.12211490049958229,,,86 Aloud,001,2022_Nov_17_1153,ProdSingRedoBetween,2021.2.3,60.61124018055857,
,,,,125,0,125,0,,,,,,,,,,,,,,,,,,,,,,1450.2718112003058,None,,,,,,,,,,,,,,,,,surface,36,126,aloud,old,blue,1448.5866924999282,None,1448.5866924999282,None,1,1.050857000052929,1448.5866924999282,None,1.050857000052929,1449.653972200118,None,1450.1549821998924,None,1450.1549821998924,None,r,0.09854540042579174,1450.1549821998924,None,0.09854540042579174,,,86 Aloud,001,2022_Nov_17_1153,ProdSingRedoBetween,2021.2.3,60.61124018055857,
,,,,126,0,126,0,,,,,,,,,,,,,,,,,,,,,,1452.2737493002787,None,,,,,,,,,,,,,,,,,interior,145,127,aloud,new,null,1450.774099400267,None,1450.774099400267,None,1,0.839597299695015,1450.774099400267,None,0.839597299695015,1451.641401800327,None,1452.142911400646,None,1452.142911400646,None,r,0.1109914006665349,1452.142911400646,None,0.1109914006665349,,,86 Aloud,001,2022_Nov_17_1153,ProdSingRedoBetween,2021.2.3,60.61124018055857,
,,,,127,0,127,0,,,,,,,,,,,,,,,,,,,,,,1454.228218300268,None,,,,,,,,,,,,,,,,,straight,103,128,aloud,new,null,1452.7742846002802,None,1452.7742846002802,None,2,0.8473200993612409,1452.7742846002802,None,0.8473200993612409,1453.6433241004124,None,1454.1476376997307,None,1454.1476376997307,None,r,0.05015370063483715,1454.1476376997307,None,0.05015370063483715,,,86 Aloud,001,2022_Nov_17_1153,ProdSingRedoBetween,2021.2.3,60.61124018055857,
,,,,128,0,128,0,,,,,,,,,,,,,,,,,,,,,,1456.761479800567,None,,,,,,,,,,,,,,,,,column,45,129,aloud,old,blue,1454.7489165998995,None,1454.7489165998995,None,2,0.8567046001553535,1454.7489165998995,None,0.8567046001553535,1455.6291685001925,None,1456.1539500001818,None,1456.1539500001818,None,r,0.5876401998102665,1456.1539500001818,None,0.5876401998102665,,,86 Aloud,001,2022_Nov_17_1153,ProdSingRedoBetween,2021.2.3,60.61124018055857,
,,,,129,0,129,0,,,,,,,,,,,,,,,,,,,,,,1459.230410600081,None,,,,,,,,,,,,,,,,,harmony,125,130,aloud,new,null,1457.273073299788,None,1457.273073299788,None,3,1.3084762999787927,1457.273073299788,None,1.3084762999787927,1458.5969670005143,None,1459.097341700457,None,1459.097341700457,None,r,0.11633360013365746,1459.097341700457,None,0.11633360013365746,,,86 Aloud,001,2022_Nov_17_1153,ProdSingRedoBetween,2021.2.3,60.61124018055857,
,,,,130,0,130,0,,,,,,,,,,,,,,,,,,,,,,1461.365851700306,None,,,,,,,,,,,,,,,,,master,95,131,aloud,new,null,1459.740848599933,None,1459.740848599933,None,2,1.0086559001356363,1459.740848599933,None,1.0086559001356363,1460.767032300122,None,1461.266079899855,None,1461.266079899855,None,r,0.0754938991740346,1461.266079899855,None,0.0754938991740346,,,86 Aloud,001,2022_Nov_17_1153,ProdSingRedoBetween,2021.2.3,60.61124018055857,
,,,,131,0,131,0,,,,,,,,,,,,,,,,,,,,,,1464.6527575999498,None,,,,,,,,,,,,,,,,,short,43,132,aloud,old,blue,1461.8676840998232,None,1461.8676840998232,None,6,1.9859075993299484,1461.8676840998232,None,1.9859075993299484,1463.8690180005506,None,1464.369344100356,None,1464.369344100356,None,r,0.25234249979257584,1464.369344100356,None,0.25234249979257584,,,86 Aloud,001,2022_Nov_17_1153,ProdSingRedoBetween,2021.2.3,60.61124018055857,
,,,,132,0,132,0,,,,,,,,,,,,,,,,,,,,,,1467.0882943002507,None,,,,,,,,,,,,,,,,,crisis,138,133,aloud,new,null,1465.1540777003393,None,1465.1540777003393,None,1,1.323420099914074,1465.1540777003393,None,1.323420099914074,1466.5057461997494,None,1467.009849799797,None,1467.009849799797,None,r,0.05175280012190342,1467.009849799797,None,0.05175280012190342,,,86 Aloud,001,2022_Nov_17_1153,ProdSingRedoBetween,2021.2.3,60.61124018055857,
,,,,133,0,133,0,,,,,,,,,,,,,,,,,,,,,,1469.2283151997253,None,,,,,,,,,,,,,,,,,solution,58,134,aloud,old,blue,1467.6080392999575,None,1467.6080392999575,None,1,1.029525799676776,1467.6080392999575,None,1.029525799676776,1468.6584151005372,None,1469.1799181997776,None,1469.1799181997776,None,r,0.025815599597990513,1469.1799181997776,None,0.025815599597990513,,,86 Aloud,001,2022_Nov_17_1153,ProdSingRedoBetween,2021.2.3,60.61124018055857,
,,,,134,0,134,0,,,,,,,,,,,,,,,,,,,,,,1471.3760831002146,None,,,,,,,,,,,,,,,,,listen,121,135,aloud,new,null,1469.75023279991,None,1469.75023279991,None,1,0.9993560994043946,1469.75023279991,None,0.9993560994043946,1470.7776870001107,None,1471.2927609002218,None,1471.2927609002218,None,r,0.06473330035805702,1471.2927609002218,None,0.06473330035805702,,,86 Aloud,001,2022_Nov_17_1153,ProdSingRedoBetween,2021.2.3,60.61124018055857,
,,,,135,0,135,0,,,,,,,,,,,,,,,,,,,,,,1473.5782952001318,None,,,,,,,,,,,,,,,,,distance,119,136,aloud,new,null,1471.8767908001319,None,1471.8767908001319,None,2,1.112822400406003,1471.8767908001319,None,1.112822400406003,1473.0181812997907,None,1473.5283150998875,None,1473.5283150998875,None,r,0.029301699250936508,1473.5283150998875,None,0.029301699250936508,,,86 Aloud,001,2022_Nov_17_1153,ProdSingRedoBetween,2021.2.3,60.61124018055857,
,,,,136,0,136,0,,,,,,,,,,,,,,,,,,,,,,1475.665258800611,None,,,,,,,,,,,,,,,,,position,27,137,aloud,old,yellow,1474.0932227000594,None,1474.0932227000594,None,3,0.9123999001458287,1474.0932227000594,None,0.9123999001458287,1475.0348720997572,None,1475.548359000124,None,1475.548359000124,None,r,0.09717800002545118,1475.548359000124,None,0.09717800002545118,,,86 Aloud,001,2022_Nov_17_1153,ProdSingRedoBetween,2021.2.3,60.61124018055857,
,,,,137,0,137,0,,,,,,,,,,,,,,,,,,,,,,1478.099461200647,None,,,,,,,,,,,,,,,,,drink,87,138,aloud,old,red,1476.1707151997834,None,1476.1707151997834,None,6,1.3388390000909567,1476.1707151997834,None,1.3388390000909567,1477.533453900367,None,1478.0364556005225,None,1478.0364556005225,None,r,0.04109499976038933,1478.0364556005225,None,0.04109499976038933,,,86 Aloud,001,2022_Nov_17_1153,ProdSingRedoBetween,2021.2.3,60.61124018055857,
,,,,138,0,138,0,,,,,,,,,,,,,,,,,,,,,,1481.3778095999733,None,,,,,,,,,,,,,,,,,exchange,118,139,aloud,new,null,1478.6181749999523,None,1478.6181749999523,None,2,2.0994995003566146,1478.6181749999523,None,2.0994995003566146,1480.7352808006108,None,1481.2369697000831,None,1481.2369697000831,None,r,0.11283720005303621,1481.2369697000831,None,0.11283720005303621,,,86 Aloud,001,2022_Nov_17_1153,ProdSingRedoBetween,2021.2.3,60.61124018055857,
,,,,139,0,139,0,,,,,,,,,,,,,,,,,,,,,,1484.5241897003725,None,,,,,,,,,,,,,,,,,court,82,140,aloud,old,red,1481.8920766999945,None,1481.8920766999945,None,5,2.0574701000005007,1481.8920766999945,None,2.0574701000005007,1483.9758812002838,None,1484.4893156001344,None,1484.4893156001344,None,r,0.004285300150513649,1484.4893156001344,None,0.004285300150513649,,,86 Aloud,001,2022_Nov_17_1153,ProdSingRedoBetween,2021.2.3,60.61124018055857,
,,,,140,0,140,0,,,,,,,,,,,,,,,,,,,,,,1487.2620304003358,None,,,,,,,,,,,,,,,,,breath,176,141,aloud,new,null,1485.0327604999766,None,1485.0327604999766,None,1,1.6048431992530823,1485.0327604999766,None,1.6048431992530823,1486.6614629002288,None,1487.1799499001354,None,1487.1799499001354,None,r,0.057812600396573544,1487.1799499001354,None,0.057812600396573544,,,86 Aloud,001,2022_Nov_17_1153,ProdSingRedoBetween,2021.2.3,60.61124018055857,
,,,,141,0,141,0,,,,,,,,,,,,,,,,,,,,,,1490.3792278999463,None,,,,,,,,,,,,,,,,,escape,126,142,aloud,new,null,1487.7805614005774,None,1487.7805614005774,None,1,1.744913199916482,1487.7805614005774,None,1.744913199916482,1489.545719500631,None,1490.044875100255,None,1490.044875100255,None,r,0.31255080085247755,1490.044875100255,None,0.31255080085247755,,,86 Aloud,001,2022_Nov_17_1153,ProdSingRedoBetween,2021.2.3,60.61124018055857,
,,,,142,0,142,0,,,,,,,,,,,,,,,,,,,,,,1493.0476249000058,None,,,,,,,,,,,,,,,,,literature,4,143,aloud,old,yellow,1490.8808286003768,None,1490.8808286003768,None,1,1.3326120004057884,1490.8808286003768,None,1.3326120004057884,1492.230317200534,None,1492.7351593002677,None,1492.7351593002677,None,r,0.29430009983479977,1492.7351593002677,None,0.29430009983479977,,,86 Aloud,001,2022_Nov_17_1153,ProdSingRedoBetween,2021.2.3,60.61124018055857,
,,,,143,0,143,0,,,,,,,,,,,,,,,,,,,,,,1495.0847132997587,None,,,,,,,,,,,,,,,,,estate,110,144,aloud,new,null,1493.5568666998297,None,1493.5568666998297,None,2,0.9128225995227695,1493.5568666998297,None,0.9128225995227695,1494.5126506006345,None,1495.0162356998771,None,1495.0162356998771,None,r,0.04523309972137213,1495.0162356998771,None,0.04523309972137213,,,86 Aloud,001,2022_Nov_17_1153,ProdSingRedoBetween,2021.2.3,60.61124018055857,
,,,,144,0,144,0,,,,,,,,,,,,,,,,,,,,,,1498.0044235000387,None,,,,,,,,,,,,,,,,,executive,158,145,aloud,new,null,1495.6036251997575,None,1495.6036251997575,None,1,1.665812300518155,1495.6036251997575,None,1.665812300518155,1497.2869177004322,None,1497.7915772004053,None,1497.7915772004053,None,r,0.18998620007187128,1497.7915772004053,None,0.18998620007187128,,,86 Aloud,001,2022_Nov_17_1153,ProdSingRedoBetween,2021.2.3,60.61124018055857,
,,,,145,0,145,0,,,,,,,,,,,,,,,,,,,,,,1501.8742698999122,None,,,,,,,,,,,,,,,,,trend,38,146,aloud,old,blue,1498.5309266997501,None,1498.5309266997501,None,3,1.8825795007869601,1498.5309266997501,None,1.8825795007869601,1500.4386745998636,None,1500.9432827001438,None,1500.9432827001438,None,r,0.9102977998554707,1500.9432827001438,None,0.9102977998554707,,,86 Aloud,001,2022_Nov_17_1153,ProdSingRedoBetween,2021.2.3,60.61124018055857,
,,,,146,0,146,0,,,,,,,,,,,,,,,,,,,,,,1506.306963100098,None,,,,,,,,,,,,,,,,,weather,12,147,aloud,old,yellow,1502.377198399976,None,1502.377198399976,None,6,2.972281599417329,1502.377198399976,None,2.972281599417329,1505.3778293998912,None,1505.8830821998417,None,1505.8830821998417,None,r,0.38656280003488064,1505.8830821998417,None,0.38656280003488064,,,86 Aloud,001,2022_Nov_17_1153,ProdSingRedoBetween,2021.2.3,60.61124018055857,
,,,,147,0,147,0,,,,,,,,,,,,,,,,,,,,,,1510.348094300367,None,,,,,,,,,,,,,,,,,service,133,148,aloud,new,null,1506.8213376002386,None,1506.8213376002386,None,4,2.4564134003594518,1506.8213376002386,None,2.4564134003594518,1509.3152430998161,None,1509.8145452998579,None,1509.8145452998579,None,r,0.510958299972117,1509.8145452998579,None,0.510958299972117,,,86 Aloud,001,2022_Nov_17_1153,ProdSingRedoBetween,2021.2.3,60.61124018055857,
,,,,148,0,148,0,,,,,,,,,,,,,,,,,,,,,,1512.567233200185,None,,,,,,,,,,,,,,,,,state,90,149,aloud,new,null,1510.8616287000477,None,1510.8616287000477,None,4,1.1120148999616504,1510.8616287000477,None,1.1120148999616504,1512.0016654003412,None,1512.5172468004748,None,1512.5172468004748,None,r,0.03219940047711134,1512.5172468004748,None,0.03219940047711134,,,86 Aloud,001,2022_Nov_17_1153,ProdSingRedoBetween,2021.2.3,60.61124018055857,
,,,,149,0,149,0,,,,,,,,,,,,,,,,,,,,,,1514.85101530049,None,,,,,,,,,,,,,,,,,resistance,101,150,aloud,new,null,1513.0796097004786,None,1513.0796097004786,None,3,1.181856100447476,1513.0796097004786,None,1.181856100447476,1514.28713050019,None,1514.7952519999817,None,1514.7952519999817,None,r,0.01863669976592064,1514.7952519999817,None,0.01863669976592064,,,86 Aloud,001,2022_Nov_17_1153,ProdSingRedoBetween,2021.2.3,60.61124018055857,
,,,,150,0,150,0,,,,,,,,,,,,,,,,,,,,,,1518.3756469003856,None,,,,,,,,,,,,,,,,,mayor,44,151,aloud,old,blue,1515.3697945000604,None,1515.3697945000604,None,6,2.3797989999875426,1515.3697945000604,None,2.3797989999875426,1517.77361010015,None,1518.2849710006267,None,1518.2849710006267,None,r,0.04883260000497103,1518.2849710006267,None,0.04883260000497103,,,86 Aloud,001,2022_Nov_17_1153,ProdSingRedoBetween,2021.2.3,60.61124018055857,
,,,,151,0,151,0,,,,,,,,,,,,,,,,,,,,,,1521.8764915000647,None,,,,,,,,,,,,,,,,,bright,53,152,aloud,old,blue,1518.9070087000728,None,1518.9070087000728,None,1,2.242366099730134,1518.9070087000728,None,2.242366099730134,1521.1768252002075,None,1521.6770711001009,None,1521.6770711001009,None,r,0.16846350021660328,1521.6770711001009,None,0.16846350021660328,,,86 Aloud,001,2022_Nov_17_1153,ProdSingRedoBetween,2021.2.3,60.61124018055857,
,,,,152,0,152,0,,,,,,,,,,,,,,,,,,,,,,1524.6458074999973,None,,,,,,,,,,,,,,,,,working,75,153,aloud,old,red,1522.3970900001004,None,1522.3970900001004,None,6,1.576282300055027,1522.3970900001004,None,1.576282300055027,1523.997572899796,None,1524.5152062000707,None,1524.5152062000707,None,r,0.10638939961791039,1524.5152062000707,None,0.10638939961791039,,,86 Aloud,001,2022_Nov_17_1153,ProdSingRedoBetween,2021.2.3,60.61124018055857,
,,,,153,0,153,0,,,,,,,,,,,,,,,,,,,,,,1527.1999291004613,None,,,,,,,,,,,,,,,,,south,17,154,aloud,old,yellow,1525.1514662997797,None,1525.1514662997797,None,2,1.3019368005916476,1525.1514662997797,None,1.3019368005916476,1526.4811118999496,None,1526.988298700191,None,1526.988298700191,None,r,0.19365849997848272,1526.988298700191,None,0.19365849997848272,,,86 Aloud,001,2022_Nov_17_1153,ProdSingRedoBetween,2021.2.3,60.61124018055857,
,,,,154,0,154,0,,,,,,,,,,,,,,,,,,,,,,1529.8007760997862,None,,,,,,,,,,,,,,,,,population,69,155,aloud,old,red,1527.7030341001227,None,1527.7030341001227,None,2,1.5185097996145487,1527.7030341001227,None,1.5185097996145487,1529.2504627006128,None,1529.7551528001204,None,1529.7551528001204,None,r,0.026309399865567684,1529.7551528001204,None,0.026309399865567684,,,86 Aloud,001,2022_Nov_17_1153,ProdSingRedoBetween,2021.2.3,60.61124018055857,
,,,,155,0,155,0,,,,,,,,,,,,,,,,,,,,,,1532.9208378000185,None,,,,,,,,,,,,,,,,,reach,168,156,aloud,new,null,1530.3111209003255,None,1530.3111209003255,None,3,1.4543721992522478,1530.3111209003255,None,1.4543721992522478,1531.788465499878,None,1532.303594100289,None,1532.303594100289,None,r,0.5978955002501607,1532.303594100289,None,0.5978955002501607,,,86 Aloud,001,2022_Nov_17_1153,ProdSingRedoBetween,2021.2.3,60.61124018055857,
,,,,156,0,156,0,,,,,,,,,,,,,,,,,,,,,,1535.9404456000775,None,,,,,,,,,,,,,,,,,empty,8,157,aloud,old,yellow,1533.4329575998709,None,1533.4329575998709,None,5,1.9245276004076004,1533.4329575998709,None,1.9245276004076004,1535.3820075001568,None,1535.8951035998762,None,1535.8951035998762,None,r,0.02222830057144165,1535.8951035998762,None,0.02222830057144165,,,86 Aloud,001,2022_Nov_17_1153,ProdSingRedoBetween,2021.2.3,60.61124018055857,
,,,,157,0,157,0,,,,,,,,,,,,,,,,,,,,,,1538.6098631005734,None,,,,,,,,,,,,,,,,,provision,153,158,aloud,new,null,1536.4500296004117,None,1536.4500296004117,None,1,1.3393861996009946,1536.4500296004117,None,1.3393861996009946,1537.8117110002786,None,1538.3262775000185,None,1538.3262775000185,None,r,0.25523220002651215,1538.3262775000185,None,0.25523220002651215,,,86 Aloud,001,2022_Nov_17_1153,ProdSingRedoBetween,2021.2.3,60.61124018055857,
,,,,158,0,158,0,,,,,,,,,,,,,,,,,,,,,,1543.0642801998183,None,,,,,,,,,,,,,,,,,general,29,159,aloud,old,blue,1539.1126687005162,None,1539.1126687005162,None,3,3.3489744998514652,1539.1126687005162,None,3.3489744998514652,1542.487872400321,None,1542.997582600452,None,1542.997582600452,None,r,0.047901200130581856,1542.997582600452,None,0.047901200130581856,,,86 Aloud,001,2022_Nov_17_1153,ProdSingRedoBetween,2021.2.3,60.61124018055857,
,,,,159,0,159,0,,,,,,,,,,,,,,,,,,,,,,1547.835629899986,None,,,,,,,,,,,,,,,,,strain,71,160,aloud,old,red,1543.568077900447,None,1543.568077900447,None,1,3.5892714001238346,1543.568077900447,None,3.5892714001238346,1547.1932565998286,None,1547.7026112005115,None,1547.7026112005115,None,r,0.11071169935166836,1547.7026112005115,None,0.11071169935166836,,,86 Aloud,001,2022_Nov_17_1153,ProdSingRedoBetween,2021.2.3,60.61124018055857,
,,,,160,0,160,0,,,,,,,,,,,,,,,,,,,,,,1550.3882801001891,None,,,,,,,,,,,,,,,,,problem,15,161,aloud,old,yellow,1548.3369458997622,None,1548.3369458997622,None,1,1.3724637003615499,1548.3369458997622,None,1.3724637003615499,1549.7418274004012,None,1550.2549553997815,None,1550.2549553997815,None,r,0.11835839971899986,1550.2549553997815,None,0.11835839971899986,,,86 Aloud,001,2022_Nov_17_1153,ProdSingRedoBetween,2021.2.3,60.61124018055857,
,,,,161,0,161,0,,,,,,,,,,,,,,,,,,,,,,1553.6746185999364,None,,,,,,,,,,,,,,,,,review,84,162,aloud,old,red,1550.8992435000837,None,1550.8992435000837,None,4,2.130086399614811,1550.8992435000837,None,2.130086399614811,1553.059924600646,None,1553.5770247997716,None,1553.5770247997716,None,r,0.07643319945782423,1553.5770247997716,None,0.07643319945782423,,,86 Aloud,001,2022_Nov_17_1153,ProdSingRedoBetween,2021.2.3,60.61124018055857,
,,,,162,0,162,0,,,,,,,,,,,,,,,,,,,,,,1556.9788889000192,None,,,,,,,,,,,,,,,,,article,67,163,aloud,old,red,1554.1824793005362,None,1554.1824793005362,None,2,1.4709380995482206,1554.1824793005362,None,1.4709380995482206,1555.681302299723,None,1556.2025987999514,None,1556.2025987999514,None,r,0.7469284003600478,1556.2025987999514,None,0.7469284003600478,,,86 Aloud,001,2022_Nov_17_1153,ProdSingRedoBetween,2021.2.3,60.61124018055857,
,,,,163,0,163,0,,,,,,,,,,,,,,,,,,,,,,1559.0967564005405,None,,,,,,,,,,,,,,,,,rural,146,164,aloud,new,null,1557.478764500469,None,1557.478764500469,None,1,1.0628674002364278,1557.478764500469,None,1.0628674002364278,1558.5639714999124,None,1559.0636721001938,None,1559.0636721001938,None,r,0.005737300030887127,1559.0636721001938,None,0.005737300030887127,,,86 Aloud,001,2022_Nov_17_1153,ProdSingRedoBetween,2021.2.3,60.61124018055857,
,,,,164,0,164,0,,,,,,,,,,,,,,,,,,,,,,1563.0006739003584,None,,,,,,,,,,,,,,,,,split,85,165,aloud,old,red,1559.60025329981,None,1559.60025329981,None,5,2.6531517999246716,1559.60025329981,None,2.6531517999246716,1562.2845272999257,None,1562.7956124003977,None,1562.7956124003977,None,r,0.17785739991813898,1562.7956124003977,None,0.17785739991813898,,,86 Aloud,001,2022_Nov_17_1153,ProdSingRedoBetween,2021.2.3,60.61124018055857,
,,,,165,0,165,0,,,,,,,,,,,,,,,,,,,,,,1567.9390628002584,None,,,,,,,,,,,,,,,,,whole,21,166,aloud,old,yellow,1563.5113615998998,None,1563.5113615998998,None,2,3.766086299903691,1563.5113615998998,None,3.766086299903691,1567.3117168005556,None,1567.824771400541,None,1567.824771400541,None,r,0.08477510046213865,1567.824771400541,None,0.08477510046213865,,,86 Aloud,001,2022_Nov_17_1153,ProdSingRedoBetween,2021.2.3,60.61124018055857,
,,,,166,0,166,0,,,,,,,,,,,,,,,,,,,,,,1570.841936999932,None,,,,,,,,,,,,,,,,,foundation,178,167,aloud,new,null,1568.43966179993,None,1568.43966179993,None,1,1.6456615002825856,1568.43966179993,None,1.6456615002825856,1570.1077137999237,None,1570.6118815997615,None,1570.6118815997615,None,r,0.20954850036650896,1570.6118815997615,None,0.20954850036650896,,,86 Aloud,001,2022_Nov_17_1153,ProdSingRedoBetween,2021.2.3,60.61124018055857,
,,,,167,0,167,0,,,,,,,,,,,,,,,,,,,,,,1575.080723900348,None,,,,,,,,,,,,,,,,,skill,76,168,aloud,old,red,1571.3438801998273,None,1571.3438801998273,None,1,3.1496618995442986,1571.3438801998273,None,3.1496618995442986,1574.5141874998808,None,1575.0325776003301,None,1575.0325776003301,None,r,0.02895709965378046,1575.0325776003301,None,0.02895709965378046,,,86 Aloud,001,2022_Nov_17_1153,ProdSingRedoBetween,2021.2.3,60.61124018055857,
,,,,168,0,168,0,,,,,,,,,,,,,,,,,,,,,,1577.1497057005763,None,,,,,,,,,,,,,,,,,smooth,66,169,aloud,old,red,1575.5862491000444,None,1575.5862491000444,None,1,0.8911384996026754,1575.5862491000444,None,0.8911384996026754,1576.4990824004635,None,1577.0060774004087,None,1577.0060774004087,None,r,0.11938000004738569,1577.0060774004087,None,0.11938000004738569,,,86 Aloud,001,2022_Nov_17_1153,ProdSingRedoBetween,2021.2.3,60.61124018055857,
,,,,169,0,169,0,,,,,,,,,,,,,,,,,,,,,,1580.718479000032,None,,,,,,,,,,,,,,,,,death,56,170,aloud,old,blue,1577.6494719004259,None,1577.6494719004259,None,6,1.9159367997199297,1577.6494719004259,None,1.9159367997199297,1579.5851266002283,None,1580.0905443998054,None,1580.0905443998054,None,r,0.6030020006000996,1580.0905443998054,None,0.6030020006000996,,,86 Aloud,001,2022_Nov_17_1153,ProdSingRedoBetween,2021.2.3,60.61124018055857,
,,,,170,0,170,0,,,,,,,,,,,,,,,,,,,,,,1583.8238385999575,None,,,,,,,,,,,,,,,,,growth,128,171,aloud,new,null,1581.2251328006387,None,1581.2251328006387,None,5,1.580469099804759,1581.2251328006387,None,1.580469099804759,1582.8286664001644,None,1583.3383728004992,None,1583.3383728004992,None,r,0.4671768993139267,1583.3383728004992,None,0.4671768993139267,,,86 Aloud,001,2022_Nov_17_1153,ProdSingRedoBetween,2021.2.3,60.61124018055857,
,,,,171,0,171,0,,,,,,,,,,,,,,,,,,,,,,1588.24275900051,None,,,,,,,,,,,,,,,,,employment,83,172,aloud,old,red,1584.3482159003615,None,1584.3482159003615,None,1,2.5452111000195146,1584.3482159003615,None,2.5452111000195146,1586.9254438001662,None,1587.4310363000259,None,1587.4310363000259,None,r,0.7823735000565648,1587.4310363000259,None,0.7823735000565648,,,86 Aloud,001,2022_Nov_17_1153,ProdSingRedoBetween,2021.2.3,60.61124018055857,
,,,,172,0,172,0,,,,,,,,,,,,,,,,,,,,,,1590.81183790043,None,,,,,,,,,,,,,,,,,frank,11,173,aloud,old,yellow,1588.7489815000445,None,1588.7489815000445,None,1,1.4725176999345422,1588.7489815000445,None,1.4725176999345422,1590.2524850005284,None,1590.7619155002758,None,1590.7619155002758,None,r,0.019497700035572052,1590.7619155002758,None,0.019497700035572052,,,86 Aloud,001,2022_Nov_17_1153,ProdSingRedoBetween,2021.2.3,60.61124018055857,
,,,,173,0,173,0,,,,,,,,,,,,,,,,,,,,,,1593.0640126997605,None,,,,,,,,,,,,,,,,,public,39,174,aloud,old,blue,1591.3222917001694,None,1591.3222917001694,None,2,1.1310027996078134,1591.3222917001694,None,1.1310027996078134,1592.481278100051,None,1592.9847077000886,None,1592.9847077000886,None,r,0.05257900059223175,1592.9847077000886,None,0.05257900059223175,,,86 Aloud,001,2022_Nov_17_1153,ProdSingRedoBetween,2021.2.3,60.61124018055857,
,,,,174,0,174,0,,,,,,,,,,,,,,,,,,,,,,1595.6000193003565,None,,,,,,,,,,,,,,,,,range,9,175,aloud,old,yellow,1593.5731242001057,None,1593.5731242001057,None,2,1.184240199625492,1593.5731242001057,None,1.184240199625492,1594.783503900282,None,1595.2851343005896,None,1595.2851343005896,None,r,0.2883222000673413,1595.2851343005896,None,0.2883222000673413,,,86 Aloud,001,2022_Nov_17_1153,ProdSingRedoBetween,2021.2.3,60.61124018055857,
