StudyLoop.thisRepN,StudyLoop.thisTrialN,StudyLoop.thisN,StudyLoop.thisIndex,TestLoop.thisRepN,TestLoop.thisTrialN,TestLoop.thisN,TestLoop.thisIndex,textCondition.started,textCondition.stopped,keyCondition.keys,keyCondition.rt,keyCondition.started,keyCondition.stopped,Condition,textWelcome.started,textWelcome.stopped,keyWelcome.keys,keyWelcome.rt,keyWelcome.started,keyWelcome.stopped,textAloud.started,textAloud.stopped,textSilent.started,textSilent.stopped,textSing.started,textSing.stopped,conditional_text.started,conditional_text.stopped,textBlank500.started,textBlank500.stopped,study_word,study_num,study_order,study_type,word_color,textStudy.started,textStudy.stopped,keyStudy.keys,keyStudy.started,keyStudy.stopped,textTestInstructions.started,textTestInstructions.stopped,key_resp_3.keys,key_resp_3.rt,key_resp_3.started,key_resp_3.stopped,test_word,test_num,test_order,test_condition,old_new_test,test_word_original_color,textConf.started,textConf.stopped,textConfScale.started,textConfScale.stopped,keyConf.keys,keyConf.rt,keyConf.started,keyConf.stopped,confidence response time,textTestBlank.started,textTestBlank.stopped,textRKN.started,textRKN.stopped,textRKNScale.started,textRKNScale.stopped,keyRKN.keys,keyRKN.rt,keyRKN.started,keyRKN.stopped,rkn response time,textEnd.started,textEnd.stopped,participant,session,date,expName,psychopyVersion,frameRate,
,,,,,,,,19.090929600410163,None,c,8.759977200068533,19.090929600410163,None,,,,,,,,,,,,,,,,,,,,,,,,,,,,,,,,,,,,,,,,,,,,,,,,,,,,,,,,,,,,,,87 Sing,001,2022_Nov_17_1536,ProdSingRedoBetween,2021.2.3,60.212671035078976,
,,,,,,,,,,,,,,SingTest,27.896983499638736,None,space,1261.2796601997688,27.896983499638736,None,,,,,,,,,,,,,,,,,,,,,,,,,,,,,,,,,,,,,,,,,,,,,,,,,,,,,,,87 Sing,001,2022_Nov_17_1536,ProdSingRedoBetween,2021.2.3,60.212671035078976,
0,0,0,0,,,,,,,,,,,,,,,,,,27.896983499638736,None,27.896983499638736,None,27.896983499638736,None,27.896983499638736,None,1291.7214436000213,None,piece,50,1,sing,blue,1289.7139250002801,None,None,1289.7139250002801,None,,,,,,,,,,,,,,,,,,,,,,,,,,,,,,,,,,,87 Sing,001,2022_Nov_17_1536,ProdSingRedoBetween,2021.2.3,60.212671035078976,
1,0,1,0,,,,,,,,,,,,,,,,,,,,,,,,,,1294.2240920998156,None,engineer,58,2,sing,blue,1292.2220476996154,None,None,1292.2220476996154,None,,,,,,,,,,,,,,,,,,,,,,,,,,,,,,,,,,,87 Sing,001,2022_Nov_17_1536,ProdSingRedoBetween,2021.2.3,60.212671035078976,
2,0,2,0,,,,,,,,,,,,,,,,,,,,,,,,,,1296.74322460033,None,block,25,3,sing,yellow,1294.7354253996164,None,None,1294.7354253996164,None,,,,,,,,,,,,,,,,,,,,,,,,,,,,,,,,,,,87 Sing,001,2022_Nov_17_1536,ProdSingRedoBetween,2021.2.3,60.212671035078976,
3,0,3,0,,,,,,,,,,,,,,,,,,,,,,,,,,1299.2456954000518,None,accident,21,4,sing,yellow,1297.2433623997495,None,None,1297.2433623997495,None,,,,,,,,,,,,,,,,,,,,,,,,,,,,,,,,,,,87 Sing,001,2022_Nov_17_1536,ProdSingRedoBetween,2021.2.3,60.212671035078976,
4,0,4,0,,,,,,,,,,,,,,,,,,,,,,,,,,1301.7481372002512,None,front,33,5,sing,blue,1299.7490445002913,None,None,1299.7490445002913,None,,,,,,,,,,,,,,,,,,,,,,,,,,,,,,,,,,,87 Sing,001,2022_Nov_17_1536,ProdSingRedoBetween,2021.2.3,60.212671035078976,
5,0,5,0,,,,,,,,,,,,,,,,,,,,,,,,,,1304.250376000069,None,fashion,46,6,sing,blue,1302.2495378004387,None,None,1302.2495378004387,None,,,,,,,,,,,,,,,,,,,,,,,,,,,,,,,,,,,87 Sing,001,2022_Nov_17_1536,ProdSingRedoBetween,2021.2.3,60.212671035078976,
6,0,6,0,,,,,,,,,,,,,,,,,,,,,,,,,,1306.7530765002593,None,citizen,88,7,sing,red,1304.7519973004237,None,None,1304.7519973004237,None,,,,,,,,,,,,,,,,,,,,,,,,,,,,,,,,,,,87 Sing,001,2022_Nov_17_1536,ProdSingRedoBetween,2021.2.3,60.212671035078976,
7,0,7,0,,,,,,,,,,,,,,,,,,,,,,,,,,1309.2721020998433,None,guide,80,8,sing,red,1307.2584568997845,None,None,1307.2584568997845,None,,,,,,,,,,,,,,,,,,,,,,,,,,,,,,,,,,,87 Sing,001,2022_Nov_17_1536,ProdSingRedoBetween,2021.2.3,60.212671035078976,
8,0,8,0,,,,,,,,,,,,,,,,,,,,,,,,,,1311.7748264996335,None,testimony,18,9,sing,yellow,1309.7728952998295,None,None,1309.7728952998295,None,,,,,,,,,,,,,,,,,,,,,,,,,,,,,,,,,,,87 Sing,001,2022_Nov_17_1536,ProdSingRedoBetween,2021.2.3,60.212671035078976,
9,0,9,0,,,,,,,,,,,,,,,,,,,,,,,,,,1314.2773788999766,None,motion,45,10,sing,blue,1312.2753252005205,None,None,1312.2753252005205,None,,,,,,,,,,,,,,,,,,,,,,,,,,,,,,,,,,,87 Sing,001,2022_Nov_17_1536,ProdSingRedoBetween,2021.2.3,60.212671035078976,
10,0,10,0,,,,,,,,,,,,,,,,,,,,,,,,,,1316.7965933997184,None,society,7,11,sing,yellow,1314.7814881997183,None,None,1314.7814881997183,None,,,,,,,,,,,,,,,,,,,,,,,,,,,,,,,,,,,87 Sing,001,2022_Nov_17_1536,ProdSingRedoBetween,2021.2.3,60.212671035078976,
11,0,11,0,,,,,,,,,,,,,,,,,,,,,,,,,,1319.298972800374,None,second,54,12,sing,blue,1317.2981602996588,None,None,1317.2981602996588,None,,,,,,,,,,,,,,,,,,,,,,,,,,,,,,,,,,,87 Sing,001,2022_Nov_17_1536,ProdSingRedoBetween,2021.2.3,60.212671035078976,
12,0,12,0,,,,,,,,,,,,,,,,,,,,,,,,,,1321.817955300212,None,smell,6,13,sing,yellow,1319.8098074002191,None,None,1319.8098074002191,None,,,,,,,,,,,,,,,,,,,,,,,,,,,,,,,,,,,87 Sing,001,2022_Nov_17_1536,ProdSingRedoBetween,2021.2.3,60.212671035078976,
13,0,13,0,,,,,,,,,,,,,,,,,,,,,,,,,,1324.3206681003794,None,interior,51,14,sing,blue,1322.3186373999342,None,None,1322.3186373999342,None,,,,,,,,,,,,,,,,,,,,,,,,,,,,,,,,,,,87 Sing,001,2022_Nov_17_1536,ProdSingRedoBetween,2021.2.3,60.212671035078976,
14,0,14,0,,,,,,,,,,,,,,,,,,,,,,,,,,1326.8232618998736,None,meeting,1,15,sing,yellow,1324.8211021004245,None,None,1324.8211021004245,None,,,,,,,,,,,,,,,,,,,,,,,,,,,,,,,,,,,87 Sing,001,2022_Nov_17_1536,ProdSingRedoBetween,2021.2.3,60.212671035078976,
15,0,15,0,,,,,,,,,,,,,,,,,,,,,,,,,,1329.3423787998036,None,concern,38,16,sing,blue,1327.3282738998532,None,None,1327.3282738998532,None,,,,,,,,,,,,,,,,,,,,,,,,,,,,,,,,,,,87 Sing,001,2022_Nov_17_1536,ProdSingRedoBetween,2021.2.3,60.212671035078976,
16,0,16,0,,,,,,,,,,,,,,,,,,,,,,,,,,1331.844848900102,None,captain,34,17,sing,blue,1329.8439330998808,None,None,1329.8439330998808,None,,,,,,,,,,,,,,,,,,,,,,,,,,,,,,,,,,,87 Sing,001,2022_Nov_17_1536,ProdSingRedoBetween,2021.2.3,60.212671035078976,
17,0,17,0,,,,,,,,,,,,,,,,,,,,,,,,,,1334.3473046999425,None,stand,32,18,sing,blue,1332.3461958998814,None,None,1332.3461958998814,None,,,,,,,,,,,,,,,,,,,,,,,,,,,,,,,,,,,87 Sing,001,2022_Nov_17_1536,ProdSingRedoBetween,2021.2.3,60.212671035078976,
18,0,18,0,,,,,,,,,,,,,,,,,,,,,,,,,,1336.8666075002402,None,audience,0,19,sing,yellow,1334.853381600231,None,None,1334.853381600231,None,,,,,,,,,,,,,,,,,,,,,,,,,,,,,,,,,,,87 Sing,001,2022_Nov_17_1536,ProdSingRedoBetween,2021.2.3,60.212671035078976,
19,0,19,0,,,,,,,,,,,,,,,,,,,,,,,,,,1339.3856485998258,None,provision,31,20,sing,blue,1337.3726017996669,None,None,1337.3726017996669,None,,,,,,,,,,,,,,,,,,,,,,,,,,,,,,,,,,,87 Sing,001,2022_Nov_17_1536,ProdSingRedoBetween,2021.2.3,60.212671035078976,
20,0,20,0,,,,,,,,,,,,,,,,,,,,,,,,,,1341.9047881998122,None,measure,55,21,sing,blue,1339.8914633002132,None,None,1339.8914633002132,None,,,,,,,,,,,,,,,,,,,,,,,,,,,,,,,,,,,87 Sing,001,2022_Nov_17_1536,ProdSingRedoBetween,2021.2.3,60.212671035078976,
21,0,21,0,,,,,,,,,,,,,,,,,,,,,,,,,,1344.407531700097,None,property,64,22,sing,red,1342.4054137999192,None,None,1342.4054137999192,None,,,,,,,,,,,,,,,,,,,,,,,,,,,,,,,,,,,87 Sing,001,2022_Nov_17_1536,ProdSingRedoBetween,2021.2.3,60.212671035078976,
22,0,22,0,,,,,,,,,,,,,,,,,,,,,,,,,,1346.9264850998297,None,majority,44,23,sing,blue,1344.9182029003277,None,None,1344.9182029003277,None,,,,,,,,,,,,,,,,,,,,,,,,,,,,,,,,,,,87 Sing,001,2022_Nov_17_1536,ProdSingRedoBetween,2021.2.3,60.212671035078976,
23,0,23,0,,,,,,,,,,,,,,,,,,,,,,,,,,1349.4457628000528,None,mankind,23,24,sing,yellow,1347.4418388996273,None,None,1347.4418388996273,None,,,,,,,,,,,,,,,,,,,,,,,,,,,,,,,,,,,87 Sing,001,2022_Nov_17_1536,ProdSingRedoBetween,2021.2.3,60.212671035078976,
24,0,24,0,,,,,,,,,,,,,,,,,,,,,,,,,,1351.964892799966,None,religion,59,25,sing,yellow,1349.9538556998596,None,None,1349.9538556998596,None,,,,,,,,,,,,,,,,,,,,,,,,,,,,,,,,,,,87 Sing,001,2022_Nov_17_1536,ProdSingRedoBetween,2021.2.3,60.212671035078976,
25,0,25,0,,,,,,,,,,,,,,,,,,,,,,,,,,1354.4674107003957,None,sunset,36,26,sing,blue,1352.4654208999127,None,None,1352.4654208999127,None,,,,,,,,,,,,,,,,,,,,,,,,,,,,,,,,,,,87 Sing,001,2022_Nov_17_1536,ProdSingRedoBetween,2021.2.3,60.212671035078976,
26,0,26,0,,,,,,,,,,,,,,,,,,,,,,,,,,1356.9707765998319,None,swift,71,27,sing,red,1354.9678814001381,None,None,1354.9678814001381,None,,,,,,,,,,,,,,,,,,,,,,,,,,,,,,,,,,,87 Sing,001,2022_Nov_17_1536,ProdSingRedoBetween,2021.2.3,60.212671035078976,
27,0,27,0,,,,,,,,,,,,,,,,,,,,,,,,,,1359.4724422004074,None,close,37,28,sing,blue,1357.4700535004959,None,None,1357.4700535004959,None,,,,,,,,,,,,,,,,,,,,,,,,,,,,,,,,,,,87 Sing,001,2022_Nov_17_1536,ProdSingRedoBetween,2021.2.3,60.212671035078976,
28,0,28,0,,,,,,,,,,,,,,,,,,,,,,,,,,1361.9749768003821,None,nation,27,29,sing,yellow,1359.974307499826,None,None,1359.974307499826,None,,,,,,,,,,,,,,,,,,,,,,,,,,,,,,,,,,,87 Sing,001,2022_Nov_17_1536,ProdSingRedoBetween,2021.2.3,60.212671035078976,
29,0,29,0,,,,,,,,,,,,,,,,,,,,,,,,,,1364.494146199897,None,report,56,30,sing,blue,1362.4801273997873,None,None,1362.4801273997873,None,,,,,,,,,,,,,,,,,,,,,,,,,,,,,,,,,,,87 Sing,001,2022_Nov_17_1536,ProdSingRedoBetween,2021.2.3,60.212671035078976,
30,0,30,0,,,,,,,,,,,,,,,,,,,,,,,,,,1366.9965978004038,None,tennis,85,31,sing,red,1364.9945673998445,None,None,1364.9945673998445,None,,,,,,,,,,,,,,,,,,,,,,,,,,,,,,,,,,,87 Sing,001,2022_Nov_17_1536,ProdSingRedoBetween,2021.2.3,60.212671035078976,
31,0,31,0,,,,,,,,,,,,,,,,,,,,,,,,,,1369.4991284003481,None,military,40,32,sing,blue,1367.4987051999196,None,None,1367.4987051999196,None,,,,,,,,,,,,,,,,,,,,,,,,,,,,,,,,,,,87 Sing,001,2022_Nov_17_1536,ProdSingRedoBetween,2021.2.3,60.212671035078976,
32,0,32,0,,,,,,,,,,,,,,,,,,,,,,,,,,1372.0179620003328,None,bicycle,12,33,sing,yellow,1370.007515899837,None,None,1370.007515899837,None,,,,,,,,,,,,,,,,,,,,,,,,,,,,,,,,,,,87 Sing,001,2022_Nov_17_1536,ProdSingRedoBetween,2021.2.3,60.212671035078976,
33,0,33,0,,,,,,,,,,,,,,,,,,,,,,,,,,1374.5207332000136,None,couch,66,34,sing,red,1372.518741399981,None,None,1372.518741399981,None,,,,,,,,,,,,,,,,,,,,,,,,,,,,,,,,,,,87 Sing,001,2022_Nov_17_1536,ProdSingRedoBetween,2021.2.3,60.212671035078976,
34,0,34,0,,,,,,,,,,,,,,,,,,,,,,,,,,1377.023318800144,None,silence,8,35,sing,yellow,1375.021230599843,None,None,1375.021230599843,None,,,,,,,,,,,,,,,,,,,,,,,,,,,,,,,,,,,87 Sing,001,2022_Nov_17_1536,ProdSingRedoBetween,2021.2.3,60.212671035078976,
35,0,35,0,,,,,,,,,,,,,,,,,,,,,,,,,,1379.5424603000283,None,novel,17,36,sing,yellow,1377.5284334998578,None,None,1377.5284334998578,None,,,,,,,,,,,,,,,,,,,,,,,,,,,,,,,,,,,87 Sing,001,2022_Nov_17_1536,ProdSingRedoBetween,2021.2.3,60.212671035078976,
36,0,36,0,,,,,,,,,,,,,,,,,,,,,,,,,,1382.044906400144,None,atmosphere,87,37,sing,red,1380.0427590999752,None,None,1380.0427590999752,None,,,,,,,,,,,,,,,,,,,,,,,,,,,,,,,,,,,87 Sing,001,2022_Nov_17_1536,ProdSingRedoBetween,2021.2.3,60.212671035078976,
37,0,37,0,,,,,,,,,,,,,,,,,,,,,,,,,,1384.5474444003776,None,rural,9,38,sing,yellow,1382.5463715996593,None,None,1382.5463715996593,None,,,,,,,,,,,,,,,,,,,,,,,,,,,,,,,,,,,87 Sing,001,2022_Nov_17_1536,ProdSingRedoBetween,2021.2.3,60.212671035078976,
38,0,38,0,,,,,,,,,,,,,,,,,,,,,,,,,,1387.0499581005424,None,minute,81,39,sing,red,1385.0479346998036,None,None,1385.0479346998036,None,,,,,,,,,,,,,,,,,,,,,,,,,,,,,,,,,,,87 Sing,001,2022_Nov_17_1536,ProdSingRedoBetween,2021.2.3,60.212671035078976,
39,0,39,0,,,,,,,,,,,,,,,,,,,,,,,,,,1389.5523343998939,None,finance,77,40,sing,red,1387.5502514000982,None,None,1387.5502514000982,None,,,,,,,,,,,,,,,,,,,,,,,,,,,,,,,,,,,87 Sing,001,2022_Nov_17_1536,ProdSingRedoBetween,2021.2.3,60.212671035078976,
40,0,40,0,,,,,,,,,,,,,,,,,,,,,,,,,,1392.0549458004534,None,beginning,35,41,sing,blue,1390.0558393998072,None,None,1390.0558393998072,None,,,,,,,,,,,,,,,,,,,,,,,,,,,,,,,,,,,87 Sing,001,2022_Nov_17_1536,ProdSingRedoBetween,2021.2.3,60.212671035078976,
41,0,41,0,,,,,,,,,,,,,,,,,,,,,,,,,,1394.5574081996456,None,orchestra,73,42,sing,red,1392.5581251000986,None,None,1392.5581251000986,None,,,,,,,,,,,,,,,,,,,,,,,,,,,,,,,,,,,87 Sing,001,2022_Nov_17_1536,ProdSingRedoBetween,2021.2.3,60.212671035078976,
42,0,42,0,,,,,,,,,,,,,,,,,,,,,,,,,,1397.059923400171,None,place,20,43,sing,yellow,1395.0590121001005,None,None,1395.0590121001005,None,,,,,,,,,,,,,,,,,,,,,,,,,,,,,,,,,,,87 Sing,001,2022_Nov_17_1536,ProdSingRedoBetween,2021.2.3,60.212671035078976,
43,0,43,0,,,,,,,,,,,,,,,,,,,,,,,,,,1399.5624537002295,None,disease,83,44,sing,red,1397.5604525003582,None,None,1397.5604525003582,None,,,,,,,,,,,,,,,,,,,,,,,,,,,,,,,,,,,87 Sing,001,2022_Nov_17_1536,ProdSingRedoBetween,2021.2.3,60.212671035078976,
44,0,44,0,,,,,,,,,,,,,,,,,,,,,,,,,,1402.0816366998479,None,education,26,45,sing,yellow,1400.0675403997302,None,None,1400.0675403997302,None,,,,,,,,,,,,,,,,,,,,,,,,,,,,,,,,,,,87 Sing,001,2022_Nov_17_1536,ProdSingRedoBetween,2021.2.3,60.212671035078976,
45,0,45,0,,,,,,,,,,,,,,,,,,,,,,,,,,1404.5841532004997,None,distance,72,46,sing,red,1402.5818277997896,None,None,1402.5818277997896,None,,,,,,,,,,,,,,,,,,,,,,,,,,,,,,,,,,,87 Sing,001,2022_Nov_17_1536,ProdSingRedoBetween,2021.2.3,60.212671035078976,
46,0,46,0,,,,,,,,,,,,,,,,,,,,,,,,,,1407.1030566999689,None,member,76,47,sing,red,1405.0932208001614,None,None,1405.0932208001614,None,,,,,,,,,,,,,,,,,,,,,,,,,,,,,,,,,,,87 Sing,001,2022_Nov_17_1536,ProdSingRedoBetween,2021.2.3,60.212671035078976,
47,0,47,0,,,,,,,,,,,,,,,,,,,,,,,,,,1409.6223045997322,None,entrance,89,48,sing,red,1407.6081191003323,None,None,1407.6081191003323,None,,,,,,,,,,,,,,,,,,,,,,,,,,,,,,,,,,,87 Sing,001,2022_Nov_17_1536,ProdSingRedoBetween,2021.2.3,60.212671035078976,
48,0,48,0,,,,,,,,,,,,,,,,,,,,,,,,,,1412.1245886003599,None,native,4,49,sing,yellow,1410.124578899704,None,None,1410.124578899704,None,,,,,,,,,,,,,,,,,,,,,,,,,,,,,,,,,,,87 Sing,001,2022_Nov_17_1536,ProdSingRedoBetween,2021.2.3,60.212671035078976,
49,0,49,0,,,,,,,,,,,,,,,,,,,,,,,,,,1414.6271486999467,None,mechanical,24,50,sing,yellow,1412.6251359004527,None,None,1412.6251359004527,None,,,,,,,,,,,,,,,,,,,,,,,,,,,,,,,,,,,87 Sing,001,2022_Nov_17_1536,ProdSingRedoBetween,2021.2.3,60.212671035078976,
50,0,50,0,,,,,,,,,,,,,,,,,,,,,,,,,,1417.1300002001226,None,charter,57,51,sing,blue,1415.1290945000947,None,None,1415.1290945000947,None,,,,,,,,,,,,,,,,,,,,,,,,,,,,,,,,,,,87 Sing,001,2022_Nov_17_1536,ProdSingRedoBetween,2021.2.3,60.212671035078976,
51,0,51,0,,,,,,,,,,,,,,,,,,,,,,,,,,1419.6324653998017,None,track,60,52,sing,red,1417.6300964001566,None,None,1417.6300964001566,None,,,,,,,,,,,,,,,,,,,,,,,,,,,,,,,,,,,87 Sing,001,2022_Nov_17_1536,ProdSingRedoBetween,2021.2.3,60.212671035078976,
52,0,52,0,,,,,,,,,,,,,,,,,,,,,,,,,,1422.134965799749,None,range,68,53,sing,red,1420.1343050003052,None,None,1420.1343050003052,None,,,,,,,,,,,,,,,,,,,,,,,,,,,,,,,,,,,87 Sing,001,2022_Nov_17_1536,ProdSingRedoBetween,2021.2.3,60.212671035078976,
53,0,53,0,,,,,,,,,,,,,,,,,,,,,,,,,,1424.65414590016,None,subject,67,54,sing,red,1422.6411651996896,None,None,1422.6411651996896,None,,,,,,,,,,,,,,,,,,,,,,,,,,,,,,,,,,,87 Sing,001,2022_Nov_17_1536,ProdSingRedoBetween,2021.2.3,60.212671035078976,
54,0,54,0,,,,,,,,,,,,,,,,,,,,,,,,,,1427.1732484996319,None,employment,84,55,sing,red,1425.1599275004119,None,None,1425.1599275004119,None,,,,,,,,,,,,,,,,,,,,,,,,,,,,,,,,,,,87 Sing,001,2022_Nov_17_1536,ProdSingRedoBetween,2021.2.3,60.212671035078976,
55,0,55,0,,,,,,,,,,,,,,,,,,,,,,,,,,1429.6924884002656,None,still,82,56,sing,red,1427.6775914998725,None,None,1427.6775914998725,None,,,,,,,,,,,,,,,,,,,,,,,,,,,,,,,,,,,87 Sing,001,2022_Nov_17_1536,ProdSingRedoBetween,2021.2.3,60.212671035078976,
56,0,56,0,,,,,,,,,,,,,,,,,,,,,,,,,,1432.2117314003408,None,household,10,57,sing,yellow,1430.1962534999475,None,None,1430.1962534999475,None,,,,,,,,,,,,,,,,,,,,,,,,,,,,,,,,,,,87 Sing,001,2022_Nov_17_1536,ProdSingRedoBetween,2021.2.3,60.212671035078976,
57,0,57,0,,,,,,,,,,,,,,,,,,,,,,,,,,1434.7140097999945,None,grade,48,58,sing,blue,1432.7134151002392,None,None,1432.7134151002392,None,,,,,,,,,,,,,,,,,,,,,,,,,,,,,,,,,,,87 Sing,001,2022_Nov_17_1536,ProdSingRedoBetween,2021.2.3,60.212671035078976,
58,0,58,0,,,,,,,,,,,,,,,,,,,,,,,,,,1437.2166504003108,None,court,15,59,sing,yellow,1435.2142882002518,None,None,1435.2142882002518,None,,,,,,,,,,,,,,,,,,,,,,,,,,,,,,,,,,,87 Sing,001,2022_Nov_17_1536,ProdSingRedoBetween,2021.2.3,60.212671035078976,
59,0,59,0,,,,,,,,,,,,,,,,,,,,,,,,,,1439.7357897004113,None,treatment,41,60,sing,blue,1437.7229733997956,None,None,1437.7229733997956,None,,,,,,,,,,,,,,,,,,,,,,,,,,,,,,,,,,,87 Sing,001,2022_Nov_17_1536,ProdSingRedoBetween,2021.2.3,60.212671035078976,
60,0,60,0,,,,,,,,,,,,,,,,,,,,,,,,,,1442.2549831001088,None,figure,11,61,sing,yellow,1440.2403416000307,None,None,1440.2403416000307,None,,,,,,,,,,,,,,,,,,,,,,,,,,,,,,,,,,,87 Sing,001,2022_Nov_17_1536,ProdSingRedoBetween,2021.2.3,60.212671035078976,
61,0,61,0,,,,,,,,,,,,,,,,,,,,,,,,,,1444.7575054997578,None,edition,75,62,sing,red,1442.7554967999458,None,None,1442.7554967999458,None,,,,,,,,,,,,,,,,,,,,,,,,,,,,,,,,,,,87 Sing,001,2022_Nov_17_1536,ProdSingRedoBetween,2021.2.3,60.212671035078976,
62,0,62,0,,,,,,,,,,,,,,,,,,,,,,,,,,1447.276714200154,None,executive,16,63,sing,yellow,1445.265995300375,None,None,1445.265995300375,None,,,,,,,,,,,,,,,,,,,,,,,,,,,,,,,,,,,87 Sing,001,2022_Nov_17_1536,ProdSingRedoBetween,2021.2.3,60.212671035078976,
63,0,63,0,,,,,,,,,,,,,,,,,,,,,,,,,,1449.779182500206,None,watch,42,64,sing,blue,1447.778620899655,None,None,1447.778620899655,None,,,,,,,,,,,,,,,,,,,,,,,,,,,,,,,,,,,87 Sing,001,2022_Nov_17_1536,ProdSingRedoBetween,2021.2.3,60.212671035078976,
64,0,64,0,,,,,,,,,,,,,,,,,,,,,,,,,,1452.2982323998585,None,private,14,65,sing,yellow,1450.2837861003354,None,None,1450.2837861003354,None,,,,,,,,,,,,,,,,,,,,,,,,,,,,,,,,,,,87 Sing,001,2022_Nov_17_1536,ProdSingRedoBetween,2021.2.3,60.212671035078976,
65,0,65,0,,,,,,,,,,,,,,,,,,,,,,,,,,1454.800852600485,None,listen,74,66,sing,red,1452.8003064999357,None,None,1452.8003064999357,None,,,,,,,,,,,,,,,,,,,,,,,,,,,,,,,,,,,87 Sing,001,2022_Nov_17_1536,ProdSingRedoBetween,2021.2.3,60.212671035078976,
66,0,66,0,,,,,,,,,,,,,,,,,,,,,,,,,,1457.3032734999433,None,article,79,67,sing,red,1455.3030658997595,None,None,1455.3030658997595,None,,,,,,,,,,,,,,,,,,,,,,,,,,,,,,,,,,,87 Sing,001,2022_Nov_17_1536,ProdSingRedoBetween,2021.2.3,60.212671035078976,
67,0,67,0,,,,,,,,,,,,,,,,,,,,,,,,,,1459.8058513998985,None,public,61,68,sing,red,1457.804827099666,None,None,1457.804827099666,None,,,,,,,,,,,,,,,,,,,,,,,,,,,,,,,,,,,87 Sing,001,2022_Nov_17_1536,ProdSingRedoBetween,2021.2.3,60.212671035078976,
68,0,68,0,,,,,,,,,,,,,,,,,,,,,,,,,,1462.3082403000444,None,benefit,30,69,sing,blue,1460.3074193000793,None,None,1460.3074193000793,None,,,,,,,,,,,,,,,,,,,,,,,,,,,,,,,,,,,87 Sing,001,2022_Nov_17_1536,ProdSingRedoBetween,2021.2.3,60.212671035078976,
69,0,69,0,,,,,,,,,,,,,,,,,,,,,,,,,,1464.8106923997402,None,theme,22,70,sing,yellow,1462.8087386004627,None,None,1462.8087386004627,None,,,,,,,,,,,,,,,,,,,,,,,,,,,,,,,,,,,87 Sing,001,2022_Nov_17_1536,ProdSingRedoBetween,2021.2.3,60.212671035078976,
70,0,70,0,,,,,,,,,,,,,,,,,,,,,,,,,,1467.3133765999228,None,number,39,71,sing,blue,1465.3113444996998,None,None,1465.3113444996998,None,,,,,,,,,,,,,,,,,,,,,,,,,,,,,,,,,,,87 Sing,001,2022_Nov_17_1536,ProdSingRedoBetween,2021.2.3,60.212671035078976,
71,0,71,0,,,,,,,,,,,,,,,,,,,,,,,,,,1469.8325175000355,None,title,70,72,sing,red,1467.8203707002103,None,None,1467.8203707002103,None,,,,,,,,,,,,,,,,,,,,,,,,,,,,,,,,,,,87 Sing,001,2022_Nov_17_1536,ProdSingRedoBetween,2021.2.3,60.212671035078976,
72,0,72,0,,,,,,,,,,,,,,,,,,,,,,,,,,1472.3349881004542,None,people,13,73,sing,yellow,1470.3359452998266,None,None,1470.3359452998266,None,,,,,,,,,,,,,,,,,,,,,,,,,,,,,,,,,,,87 Sing,001,2022_Nov_17_1536,ProdSingRedoBetween,2021.2.3,60.212671035078976,
73,0,73,0,,,,,,,,,,,,,,,,,,,,,,,,,,1474.8374113999307,None,appearance,5,74,sing,yellow,1472.8378603998572,None,None,1472.8378603998572,None,,,,,,,,,,,,,,,,,,,,,,,,,,,,,,,,,,,87 Sing,001,2022_Nov_17_1536,ProdSingRedoBetween,2021.2.3,60.212671035078976,
74,0,74,0,,,,,,,,,,,,,,,,,,,,,,,,,,1477.3564863000065,None,capital,69,75,sing,red,1475.3443486997858,None,None,1475.3443486997858,None,,,,,,,,,,,,,,,,,,,,,,,,,,,,,,,,,,,87 Sing,001,2022_Nov_17_1536,ProdSingRedoBetween,2021.2.3,60.212671035078976,
75,0,75,0,,,,,,,,,,,,,,,,,,,,,,,,,,1479.8591692997143,None,fellow,43,76,sing,blue,1477.856943000108,None,None,1477.856943000108,None,,,,,,,,,,,,,,,,,,,,,,,,,,,,,,,,,,,87 Sing,001,2022_Nov_17_1536,ProdSingRedoBetween,2021.2.3,60.212671035078976,
76,0,76,0,,,,,,,,,,,,,,,,,,,,,,,,,,1482.378298100084,None,husband,53,77,sing,blue,1480.3633722998202,None,None,1480.3633722998202,None,,,,,,,,,,,,,,,,,,,,,,,,,,,,,,,,,,,87 Sing,001,2022_Nov_17_1536,ProdSingRedoBetween,2021.2.3,60.212671035078976,
77,0,77,0,,,,,,,,,,,,,,,,,,,,,,,,,,1484.8807773003355,None,light,65,78,sing,red,1482.878876700066,None,None,1482.878876700066,None,,,,,,,,,,,,,,,,,,,,,,,,,,,,,,,,,,,87 Sing,001,2022_Nov_17_1536,ProdSingRedoBetween,2021.2.3,60.212671035078976,
78,0,78,0,,,,,,,,,,,,,,,,,,,,,,,,,,1487.4000615002587,None,frank,86,79,sing,red,1485.3893291000277,None,None,1485.3893291000277,None,,,,,,,,,,,,,,,,,,,,,,,,,,,,,,,,,,,87 Sing,001,2022_Nov_17_1536,ProdSingRedoBetween,2021.2.3,60.212671035078976,
79,0,79,0,,,,,,,,,,,,,,,,,,,,,,,,,,1489.902443899773,None,bitter,52,80,sing,blue,1487.9004691997543,None,None,1487.9004691997543,None,,,,,,,,,,,,,,,,,,,,,,,,,,,,,,,,,,,87 Sing,001,2022_Nov_17_1536,ProdSingRedoBetween,2021.2.3,60.212671035078976,
80,0,80,0,,,,,,,,,,,,,,,,,,,,,,,,,,1492.4049572004005,None,plane,78,81,sing,red,1490.4040582003072,None,None,1490.4040582003072,None,,,,,,,,,,,,,,,,,,,,,,,,,,,,,,,,,,,87 Sing,001,2022_Nov_17_1536,ProdSingRedoBetween,2021.2.3,60.212671035078976,
81,0,81,0,,,,,,,,,,,,,,,,,,,,,,,,,,1494.9074200000614,None,weight,29,82,sing,blue,1492.9055232005194,None,None,1492.9055232005194,None,,,,,,,,,,,,,,,,,,,,,,,,,,,,,,,,,,,87 Sing,001,2022_Nov_17_1536,ProdSingRedoBetween,2021.2.3,60.212671035078976,
82,0,82,0,,,,,,,,,,,,,,,,,,,,,,,,,,1497.4099529003724,None,general,62,83,sing,red,1495.40765570011,None,None,1495.40765570011,None,,,,,,,,,,,,,,,,,,,,,,,,,,,,,,,,,,,87 Sing,001,2022_Nov_17_1536,ProdSingRedoBetween,2021.2.3,60.212671035078976,
83,0,83,0,,,,,,,,,,,,,,,,,,,,,,,,,,1499.9124541999772,None,safety,63,84,sing,red,1497.9122807001695,None,None,1497.9122807001695,None,,,,,,,,,,,,,,,,,,,,,,,,,,,,,,,,,,,87 Sing,001,2022_Nov_17_1536,ProdSingRedoBetween,2021.2.3,60.212671035078976,
84,0,84,0,,,,,,,,,,,,,,,,,,,,,,,,,,1502.4149468000978,None,health,2,85,sing,yellow,1500.4129461999983,None,None,1500.4129461999983,None,,,,,,,,,,,,,,,,,,,,,,,,,,,,,,,,,,,87 Sing,001,2022_Nov_17_1536,ProdSingRedoBetween,2021.2.3,60.212671035078976,
85,0,85,0,,,,,,,,,,,,,,,,,,,,,,,,,,1504.9172483002767,None,death,47,86,sing,blue,1502.915501399897,None,None,1502.915501399897,None,,,,,,,,,,,,,,,,,,,,,,,,,,,,,,,,,,,87 Sing,001,2022_Nov_17_1536,ProdSingRedoBetween,2021.2.3,60.212671035078976,
86,0,86,0,,,,,,,,,,,,,,,,,,,,,,,,,,1507.436606200412,None,series,49,87,sing,blue,1505.4215404000133,None,None,1505.4215404000133,None,,,,,,,,,,,,,,,,,,,,,,,,,,,,,,,,,,,87 Sing,001,2022_Nov_17_1536,ProdSingRedoBetween,2021.2.3,60.212671035078976,
87,0,87,0,,,,,,,,,,,,,,,,,,,,,,,,,,1509.9390869000927,None,degree,28,88,sing,yellow,1507.9371576998383,None,None,1507.9371576998383,None,,,,,,,,,,,,,,,,,,,,,,,,,,,,,,,,,,,87 Sing,001,2022_Nov_17_1536,ProdSingRedoBetween,2021.2.3,60.212671035078976,
88,0,88,0,,,,,,,,,,,,,,,,,,,,,,,,,,1512.4582721004263,None,literature,19,89,sing,yellow,1510.4430598001927,None,None,1510.4430598001927,None,,,,,,,,,,,,,,,,,,,,,,,,,,,,,,,,,,,87 Sing,001,2022_Nov_17_1536,ProdSingRedoBetween,2021.2.3,60.212671035078976,
89,0,89,0,,,,,,,,,,,,,,,,,,,,,,,,,,1514.9608020996675,None,portion,3,90,sing,yellow,1512.9598577003926,None,None,1512.9598577003926,None,,,,,,,,,,,,,,,,,,,,,,,,,,,,,,,,,,,87 Sing,001,2022_Nov_17_1536,ProdSingRedoBetween,2021.2.3,60.212671035078976,
,,,,,,,,,,,,,,,,,,,,,,,,,,,,,,,,,,,,,,,,,1515.4615323003381,None,k,183.37836239952594,1515.4615323003381,None,,,,,,,,,,,,,,,,,,,,,,,,,,,,,87 Sing,001,2022_Nov_17_1536,ProdSingRedoBetween,2021.2.3,60.212671035078976,
,,,,0,0,0,0,,,,,,,,,,,,,,,,,,,,,,1720.9328417005017,None,,,,,,,,,,,,,,,,,curve,116,1,sing,new,null,1699.36421839986,None,1699.36421839986,None,6,18.07579020038247,1699.36421839986,None,18.07579020038247,1717.471510800533,None,1717.983394799754,None,1717.983394799754,None,r,2.928578800521791,1717.983394799754,None,2.928578800521791,,,87 Sing,001,2022_Nov_17_1536,ProdSingRedoBetween,2021.2.3,60.212671035078976,
,,,,1,0,1,0,,,,,,,,,,,,,,,,,,,,,,1728.2249801997095,None,,,,,,,,,,,,,,,,,prime,143,2,sing,new,null,1721.4368171002716,None,1721.4368171002716,None,6,4.099045600742102,1721.4368171002716,None,4.099045600742102,1725.5553628997877,None,1726.0598507998511,None,1726.0598507998511,None,r,2.139963800087571,1726.0598507998511,None,2.139963800087571,,,87 Sing,001,2022_Nov_17_1536,ProdSingRedoBetween,2021.2.3,60.212671035078976,
,,,,2,0,2,0,,,,,,,,,,,,,,,,,,,,,,1732.777994000353,None,,,,,,,,,,,,,,,,,testimony,18,3,sing,old,yellow,1728.7407617997378,None,1728.7407617997378,None,6,2.3871710998937488,1728.7407617997378,None,2.3871710998937488,1731.1446479996666,None,1731.6491187997162,None,1731.6491187997162,None,r,1.1027141995728016,1731.6491187997162,None,1.1027141995728016,,,87 Sing,001,2022_Nov_17_1536,ProdSingRedoBetween,2021.2.3,60.212671035078976,
,,,,3,0,3,0,,,,,,,,,,,,,,,,,,,,,,1737.4326732996851,None,,,,,,,,,,,,,,,,,graduate,117,4,sing,new,null,1733.288085100241,None,1733.288085100241,None,6,2.519705300219357,1733.288085100241,None,2.519705300219357,1735.8308335999027,None,1736.337753600441,None,1736.337753600441,None,r,1.0781984999775887,1736.337753600441,None,1.0781984999775887,,,87 Sing,001,2022_Nov_17_1536,ProdSingRedoBetween,2021.2.3,60.212671035078976,
,,,,4,0,4,0,,,,,,,,,,,,,,,,,,,,,,1740.053598999977,None,,,,,,,,,,,,,,,,,captain,34,5,sing,old,blue,1737.9487639004365,None,1737.9487639004365,None,6,1.227147899568081,1737.9487639004365,None,1.227147899568081,1739.2025969000533,None,1739.7081923000515,None,1739.7081923000515,None,r,0.3237524004653096,1739.7081923000515,None,0.3237524004653096,,,87 Sing,001,2022_Nov_17_1536,ProdSingRedoBetween,2021.2.3,60.212671035078976,
,,,,5,0,5,0,,,,,,,,,,,,,,,,,,,,,,1742.270774899982,None,,,,,,,,,,,,,,,,,health,2,6,sing,old,yellow,1740.5636681001633,None,1740.5636681001633,None,6,0.9802192002534866,1740.5636681001633,None,0.9802192002534866,1741.5719234002754,None,1742.0886573996395,None,1742.0886573996395,None,r,0.15122179966419935,1742.0886573996395,None,0.15122179966419935,,,87 Sing,001,2022_Nov_17_1536,ProdSingRedoBetween,2021.2.3,60.212671035078976,
,,,,6,0,6,0,,,,,,,,,,,,,,,,,,,,,,1744.7733532004058,None,,,,,,,,,,,,,,,,,balance,150,7,sing,new,null,1742.7865610001609,None,1742.7865610001609,None,6,1.0454684998840094,1742.7865610001609,None,1.0454684998840094,1743.8662959998474,None,1744.3729924997315,None,1744.3729924997315,None,r,0.3709184005856514,1744.3729924997315,None,0.3709184005856514,,,87 Sing,001,2022_Nov_17_1536,ProdSingRedoBetween,2021.2.3,60.212671035078976,
,,,,7,0,7,0,,,,,,,,,,,,,,,,,,,,,,1747.0756873004138,None,,,,,,,,,,,,,,,,,subject,67,8,sing,old,red,1745.2787993997335,None,1745.2787993997335,None,6,1.1850865995511413,1745.2787993997335,None,1.1850865995511413,1746.4932382004336,None,1746.9923226004466,None,1746.9923226004466,None,r,0.0635802997276187,1746.9923226004466,None,0.0635802997276187,,,87 Sing,001,2022_Nov_17_1536,ProdSingRedoBetween,2021.2.3,60.212671035078976,
,,,,8,0,8,0,,,,,,,,,,,,,,,,,,,,,,1749.227674400434,None,,,,,,,,,,,,,,,,,personnel,122,9,sing,new,null,1747.5888451002538,None,1747.5888451002538,None,6,0.9791159005835652,1747.5888451002538,None,0.9791159005835652,1748.6017129998654,None,1749.1181025002152,None,1749.1181025002152,None,r,0.08173120021820068,1749.1181025002152,None,0.08173120021820068,,,87 Sing,001,2022_Nov_17_1536,ProdSingRedoBetween,2021.2.3,60.212671035078976,
,,,,9,0,9,0,,,,,,,,,,,,,,,,,,,,,,1751.3299182998016,None,,,,,,,,,,,,,,,,,institute,156,10,sing,new,null,1749.7298825001344,None,1749.7298825001344,None,6,0.8460894003510475,1749.7298825001344,None,0.8460894003510475,1750.600556800142,None,1751.1130953999236,None,1751.1130953999236,None,r,0.1908245999366045,1751.1130953999236,None,0.1908245999366045,,,87 Sing,001,2022_Nov_17_1536,ProdSingRedoBetween,2021.2.3,60.212671035078976,
,,,,10,0,10,0,,,,,,,,,,,,,,,,,,,,,,1753.769772700034,None,,,,,,,,,,,,,,,,,threat,99,11,sing,new,null,1751.8304000003263,None,1751.8304000003263,None,6,1.2974909003823996,1751.8304000003263,None,1.2974909003823996,1753.1480518998578,None,1753.6535032000393,None,1753.6535032000393,None,r,0.08266239985823631,1753.6535032000393,None,0.08266239985823631,,,87 Sing,001,2022_Nov_17_1536,ProdSingRedoBetween,2021.2.3,60.212671035078976,
,,,,11,0,11,0,,,,,,,,,,,,,,,,,,,,,,1757.2383113997057,None,,,,,,,,,,,,,,,,,court,15,12,sing,old,yellow,1754.290933500044,None,1754.290933500044,None,6,0.8449897998943925,1754.290933500044,None,0.8449897998943925,1755.1670401999727,None,1755.668099399656,None,1755.668099399656,None,r,1.539827600121498,1755.668099399656,None,1.539827600121498,,,87 Sing,001,2022_Nov_17_1536,ProdSingRedoBetween,2021.2.3,60.212671035078976,
,,,,12,0,12,0,,,,,,,,,,,,,,,,,,,,,,1759.5381880002096,None,,,,,,,,,,,,,,,,,season,131,13,sing,new,null,1757.7568084001541,None,1757.7568084001541,None,6,1.0030138995498419,1757.7568084001541,None,1.0030138995498419,1758.7889042999595,None,1759.288261000067,None,1759.288261000067,None,r,0.2235206002369523,1759.288261000067,None,0.2235206002369523,,,87 Sing,001,2022_Nov_17_1536,ProdSingRedoBetween,2021.2.3,60.212671035078976,
,,,,13,0,13,0,,,,,,,,,,,,,,,,,,,,,,1762.5743843000382,None,,,,,,,,,,,,,,,,,guide,80,14,sing,old,red,1760.0386915002018,None,1760.0386915002018,None,6,1.633189500309527,1760.0386915002018,None,1.633189500309527,1761.689921000041,None,1762.1933818003163,None,1762.1933818003163,None,r,0.3505279002711177,1762.1933818003163,None,0.3505279002711177,,,87 Sing,001,2022_Nov_17_1536,ProdSingRedoBetween,2021.2.3,60.212671035078976,
,,,,14,0,14,0,,,,,,,,,,,,,,,,,,,,,,1764.4428377002478,None,,,,,,,,,,,,,,,,,husband,53,15,sing,old,blue,1763.0860625999048,None,1763.0860625999048,None,6,0.6018105000257492,1763.0860625999048,None,0.6018105000257492,1763.7105561001226,None,1764.2140782997012,None,1764.2140782997012,None,r,0.20995269995182753,1764.2140782997012,None,0.20995269995182753,,,87 Sing,001,2022_Nov_17_1536,ProdSingRedoBetween,2021.2.3,60.212671035078976,
,,,,15,0,15,0,,,,,,,,,,,,,,,,,,,,,,1765.9274971997365,None,,,,,,,,,,,,,,,,,silence,8,16,sing,old,yellow,1764.9468096001074,None,1764.9468096001074,None,6,0.4049502005800605,1764.9468096001074,None,0.4049502005800605,1765.3874925002456,None,1765.8942497000098,None,1765.8942497000098,None,r,0.017508900724351406,1765.8942497000098,None,0.017508900724351406,,,87 Sing,001,2022_Nov_17_1536,ProdSingRedoBetween,2021.2.3,60.212671035078976,
,,,,16,0,16,0,,,,,,,,,,,,,,,,,,,,,,1767.6961035002023,None,,,,,,,,,,,,,,,,,running,118,17,sing,new,null,1766.437894999981,None,1766.437894999981,None,6,0.41796550061553717,1766.437894999981,None,0.41796550061553717,1766.8805015003309,None,1767.401506899856,None,1767.401506899856,None,r,0.2704058000817895,1767.401506899856,None,0.2704058000817895,,,87 Sing,001,2022_Nov_17_1536,ProdSingRedoBetween,2021.2.3,60.212671035078976,
,,,,17,0,17,0,,,,,,,,,,,,,,,,,,,,,,1769.3374575003982,None,,,,,,,,,,,,,,,,,interior,51,18,sing,old,blue,1768.2061646999791,None,1768.2061646999791,None,6,0.369781699962914,1768.2061646999791,None,0.369781699962914,1768.5980337997898,None,1769.1012717997655,None,1769.1012717997655,None,r,0.2106988998129964,1769.1012717997655,None,0.2106988998129964,,,87 Sing,001,2022_Nov_17_1536,ProdSingRedoBetween,2021.2.3,60.212671035078976,
,,,,18,0,18,0,,,,,,,,,,,,,,,,,,,,,,1771.583345300518,None,,,,,,,,,,,,,,,,,tough,111,19,sing,new,null,1769.8526009004563,None,1769.8526009004563,None,6,0.8912797998636961,1769.8526009004563,None,0.8912797998636961,1770.7668946003541,None,1771.2673102999106,None,1771.2673102999106,None,r,0.3005695007741451,1771.2673102999106,None,0.3005695007741451,,,87 Sing,001,2022_Nov_17_1536,ProdSingRedoBetween,2021.2.3,60.212671035078976,
,,,,19,0,19,0,,,,,,,,,,,,,,,,,,,,,,1773.3181894002482,None,,,,,,,,,,,,,,,,,mechanical,24,20,sing,old,yellow,1772.084047500044,None,1772.084047500044,None,6,0.5958789000287652,1772.084047500044,None,0.5958789000287652,1772.704443800263,None,1773.218464399688,None,1773.218464399688,None,r,0.06942309997975826,1773.218464399688,None,0.06942309997975826,,,87 Sing,001,2022_Nov_17_1536,ProdSingRedoBetween,2021.2.3,60.212671035078976,
,,,,20,0,20,0,,,,,,,,,,,,,,,,,,,,,,1774.8865879001096,None,,,,,,,,,,,,,,,,,hunger,108,21,sing,new,null,1773.8208878999576,None,1773.8208878999576,None,6,0.3548929998651147,1773.8208878999576,None,0.3548929998651147,1774.204110099934,None,1774.7032882999629,None,1774.7032882999629,None,r,0.16847420018166304,1774.7032882999629,None,0.16847420018166304,,,87 Sing,001,2022_Nov_17_1536,ProdSingRedoBetween,2021.2.3,60.212671035078976,
,,,,21,0,21,0,,,,,,,,,,,,,,,,,,,,,,1776.555061600171,None,,,,,,,,,,,,,,,,,department,170,22,sing,new,null,1775.3998574996367,None,1775.3998574996367,None,6,0.3280723998323083,1775.3998574996367,None,0.3280723998323083,1775.7585367998108,None,1776.271586799994,None,1776.271586799994,None,r,0.25619199965149164,1776.271586799994,None,0.25619199965149164,,,87 Sing,001,2022_Nov_17_1536,ProdSingRedoBetween,2021.2.3,60.212671035078976,
,,,,22,0,22,0,,,,,,,,,,,,,,,,,,,,,,1778.0565635999665,None,,,,,,,,,,,,,,,,,state,136,23,sing,new,null,1777.0568701000884,None,1777.0568701000884,None,6,0.29498490039259195,1777.0568701000884,None,0.29498490039259195,1777.3792454004288,None,1777.8929160004482,None,1777.8929160004482,None,r,0.14698300044983625,1777.8929160004482,None,0.14698300044983625,,,87 Sing,001,2022_Nov_17_1536,ProdSingRedoBetween,2021.2.3,60.212671035078976,
,,,,23,0,23,0,,,,,,,,,,,,,,,,,,,,,,1779.660121199675,None,,,,,,,,,,,,,,,,,swift,71,24,sing,old,red,1778.5569601999596,None,1778.5569601999596,None,6,0.34722229931503534,1778.5569601999596,None,0.34722229931503534,1778.925449400209,None,1779.4291182002053,None,1779.4291182002053,None,r,0.2027900004759431,1779.4291182002053,None,0.2027900004759431,,,87 Sing,001,2022_Nov_17_1536,ProdSingRedoBetween,2021.2.3,60.212671035078976,
,,,,24,0,24,0,,,,,,,,,,,,,,,,,,,,,,1781.3431094996631,None,,,,,,,,,,,,,,,,,attack,148,25,sing,new,null,1780.1763572003692,None,1780.1763572003692,None,6,0.5996451005339622,1780.1763572003692,None,0.5996451005339622,1780.798844399862,None,1781.3104995004833,None,1781.3104995004833,None,r,0.009358899667859077,1781.3104995004833,None,0.009358899667859077,,,87 Sing,001,2022_Nov_17_1536,ProdSingRedoBetween,2021.2.3,60.212671035078976,
,,,,25,0,25,0,,,,,,,,,,,,,,,,,,,,,,1782.7954454002902,None,,,,,,,,,,,,,,,,,member,76,26,sing,old,red,1781.846026999876,None,1781.846026999876,None,6,0.32969870045781136,1781.846026999876,None,0.32969870045781136,1782.1950556999072,None,1782.694926300086,None,1782.694926300086,None,r,0.08085430040955544,1782.694926300086,None,0.08085430040955544,,,87 Sing,001,2022_Nov_17_1536,ProdSingRedoBetween,2021.2.3,60.212671035078976,
,,,,26,0,26,0,,,,,,,,,,,,,,,,,,,,,,1784.4133906001225,None,,,,,,,,,,,,,,,,,audience,0,27,sing,old,yellow,1783.296635599807,None,1783.296635599807,None,6,0.31920129992067814,1783.296635599807,None,0.31920129992067814,1783.6480353996158,None,1784.1656723003834,None,1784.1656723003834,None,r,0.21823899913579226,1784.1656723003834,None,0.21823899913579226,,,87 Sing,001,2022_Nov_17_1536,ProdSingRedoBetween,2021.2.3,60.212671035078976,
,,,,27,0,27,0,,,,,,,,,,,,,,,,,,,,,,1785.8308870000765,None,,,,,,,,,,,,,,,,,orchestra,73,28,sing,old,red,1784.9162782998756,None,1784.9162782998756,None,6,0.2835751995444298,1784.9162782998756,None,0.2835751995444298,1785.2317706998438,None,1785.7367364997044,None,1785.7367364997044,None,r,0.06308590061962605,1785.7367364997044,None,0.06308590061962605,,,87 Sing,001,2022_Nov_17_1536,ProdSingRedoBetween,2021.2.3,60.212671035078976,
,,,,28,0,28,0,,,,,,,,,,,,,,,,,,,,,,1788.3833943000063,None,,,,,,,,,,,,,,,,,route,140,29,sing,new,null,1786.3401293996722,None,1786.3401293996722,None,6,0.5957380002364516,1786.3401293996722,None,0.5957380002364516,1786.9742165002972,None,1787.4904936999083,None,1787.4904936999083,None,r,0.8693963997066021,1787.4904936999083,None,0.8693963997066021,,,87 Sing,001,2022_Nov_17_1536,ProdSingRedoBetween,2021.2.3,60.212671035078976,
,,,,29,0,29,0,,,,,,,,,,,,,,,,,,,,,,1789.9517582999542,None,,,,,,,,,,,,,,,,,death,47,30,sing,old,blue,1788.8854422001168,None,1788.8854422001168,None,6,0.46640560030937195,1788.8854422001168,None,0.46640560030937195,1789.36768640019,None,1789.8682076996192,None,1789.8682076996192,None,r,0.06752300076186657,1789.8682076996192,None,0.06752300076186657,,,87 Sing,001,2022_Nov_17_1536,ProdSingRedoBetween,2021.2.3,60.212671035078976,
,,,,30,0,30,0,,,,,,,,,,,,,,,,,,,,,,1791.40297549963,None,,,,,,,,,,,,,,,,,conference,165,31,sing,new,null,1790.4532502004877,None,1790.4532502004877,None,6,0.29855490010231733,1790.4532502004877,None,0.29855490010231733,1790.784763599746,None,1791.2866254001856,None,1791.2866254001856,None,r,0.09723629988729954,1791.2866254001856,None,0.09723629988729954,,,87 Sing,001,2022_Nov_17_1536,ProdSingRedoBetween,2021.2.3,60.212671035078976,
,,,,31,0,31,0,,,,,,,,,,,,,,,,,,,,,,1792.9379607997835,None,,,,,,,,,,,,,,,,,rural,9,32,sing,old,yellow,1791.9035066999495,None,1791.9035066999495,None,6,0.26433899998664856,1791.9035066999495,None,0.26433899998664856,1792.1888787001371,None,1792.6925547998399,None,1792.6925547998399,None,r,0.22718430031090975,1792.6925547998399,None,0.22718430031090975,,,87 Sing,001,2022_Nov_17_1536,ProdSingRedoBetween,2021.2.3,60.212671035078976,
,,,,32,0,32,0,,,,,,,,,,,,,,,,,,,,,,1794.3375636003911,None,,,,,,,,,,,,,,,,,symbol,97,33,sing,new,null,1793.450130100362,None,1793.450130100362,None,6,0.17373600043356419,1793.450130100362,None,0.17373600043356419,1793.6423759004101,None,1794.1558549003676,None,1794.1558549003676,None,r,0.14836870040744543,1794.1558549003676,None,0.14836870040744543,,,87 Sing,001,2022_Nov_17_1536,ProdSingRedoBetween,2021.2.3,60.212671035078976,
,,,,33,0,33,0,,,,,,,,,,,,,,,,,,,,,,1795.7088780999184,None,,,,,,,,,,,,,,,,,music,124,34,sing,new,null,1794.8502195999026,None,1794.8502195999026,None,6,0.15767669957131147,1794.8502195999026,None,0.15767669957131147,1795.024917899631,None,1795.5409297998995,None,1795.5409297998995,None,r,0.1468241000548005,1795.5409297998995,None,0.1468241000548005,,,87 Sing,001,2022_Nov_17_1536,ProdSingRedoBetween,2021.2.3,60.212671035078976,
,,,,34,0,34,0,,,,,,,,,,,,,,,,,,,,,,1797.1449475996196,None,,,,,,,,,,,,,,,,,broke,139,35,sing,new,null,1796.219344199635,None,1796.219344199635,None,6,0.18050700053572655,1796.219344199635,None,0.18050700053572655,1796.4321560999379,None,1796.943214699626,None,1796.943214699626,None,r,0.176719699986279,1796.943214699626,None,0.176719699986279,,,87 Sing,001,2022_Nov_17_1536,ProdSingRedoBetween,2021.2.3,60.212671035078976,
,,,,35,0,35,0,,,,,,,,,,,,,,,,,,,,,,1798.5936348997056,None,,,,,,,,,,,,,,,,,bucket,91,36,sing,new,null,1797.665785100311,None,1797.665785100311,None,6,0.14200429990887642,1797.665785100311,None,0.14200429990887642,1797.8302662996575,None,1798.346222399734,None,1798.346222399734,None,r,0.22156650014221668,1798.346222399734,None,0.22156650014221668,,,87 Sing,001,2022_Nov_17_1536,ProdSingRedoBetween,2021.2.3,60.212671035078976,
,,,,36,0,36,0,,,,,,,,,,,,,,,,,,,,,,1799.980085699819,None,,,,,,,,,,,,,,,,,evidence,121,37,sing,new,null,1799.1123021999374,None,1799.1123021999374,None,6,0.15148739982396364,1799.1123021999374,None,0.15148739982396364,1799.303524300456,None,1799.8117236997932,None,1799.8117236997932,None,r,0.1401082994416356,1799.8117236997932,None,0.1401082994416356,,,87 Sing,001,2022_Nov_17_1536,ProdSingRedoBetween,2021.2.3,60.212671035078976,
,,,,37,0,37,0,,,,,,,,,,,,,,,,,,,,,,1801.2629436003044,None,,,,,,,,,,,,,,,,,sleep,123,38,sing,new,null,1800.497872799635,None,1800.497872799635,None,6,0.1180119002237916,1800.497872799635,None,0.1180119002237916,1800.6485540000722,None,1801.1630440000445,None,1801.1630440000445,None,r,0.0767713999375701,1801.1630440000445,None,0.0767713999375701,,,87 Sing,001,2022_Nov_17_1536,ProdSingRedoBetween,2021.2.3,60.212671035078976,
,,,,38,0,38,0,,,,,,,,,,,,,,,,,,,,,,1802.550312999636,None,,,,,,,,,,,,,,,,,tennis,85,39,sing,old,red,1801.7651802003384,None,1801.7651802003384,None,6,0.19474219996482134,1801.7651802003384,None,0.19474219996482134,1801.9834572002292,None,1802.5019359998405,None,1802.5019359998405,None,r,0.02601759973913431,1802.5019359998405,None,0.02601759973913431,,,87 Sing,001,2022_Nov_17_1536,ProdSingRedoBetween,2021.2.3,60.212671035078976,
,,,,39,0,39,0,,,,,,,,,,,,,,,,,,,,,,1804.1325668999925,None,,,,,,,,,,,,,,,,,concern,38,40,sing,old,blue,1803.0649597998708,None,1803.0649597998708,None,6,0.30295380018651485,1803.0649597998708,None,0.30295380018651485,1803.4065931001678,None,1803.9179968005046,None,1803.9179968005046,None,r,0.19380700029432774,1803.9179968005046,None,0.19380700029432774,,,87 Sing,001,2022_Nov_17_1536,ProdSingRedoBetween,2021.2.3,60.212671035078976,
,,,,40,0,40,0,,,,,,,,,,,,,,,,,,,,,,1805.7007395001128,None,,,,,,,,,,,,,,,,,account,146,41,sing,new,null,1804.6419526003301,None,1804.6419526003301,None,6,0.23785880021750927,1804.6419526003301,None,0.23785880021750927,1804.901053099893,None,1805.4024788998067,None,1805.4024788998067,None,r,0.2693566996604204,1805.4024788998067,None,0.2693566996604204,,,87 Sing,001,2022_Nov_17_1536,ProdSingRedoBetween,2021.2.3,60.212671035078976,
,,,,41,0,41,0,,,,,,,,,,,,,,,,,,,,,,1807.3522417005152,None,,,,,,,,,,,,,,,,,block,25,42,sing,old,yellow,1806.210974600166,None,1806.210974600166,None,6,0.16494600009173155,1806.210974600166,None,0.16494600009173155,1806.404604400508,None,1806.9187965998426,None,1806.9187965998426,None,r,0.40900079999119043,1806.9187965998426,None,0.40900079999119043,,,87 Sing,001,2022_Nov_17_1536,ProdSingRedoBetween,2021.2.3,60.212671035078976,
,,,,42,0,42,0,,,,,,,,,,,,,,,,,,,,,,1808.887168300338,None,,,,,,,,,,,,,,,,,cousin,92,43,sing,new,null,1807.8612155998126,None,1807.8612155998126,None,6,0.1386579992249608,1807.8612155998126,None,0.1386579992249608,1808.039406400174,None,1808.547193000093,None,1808.547193000093,None,r,0.3086540000513196,1808.547193000093,None,0.3086540000513196,,,87 Sing,001,2022_Nov_17_1536,ProdSingRedoBetween,2021.2.3,60.212671035078976,
,,,,43,0,43,0,,,,,,,,,,,,,,,,,,,,,,1810.3387323003262,None,,,,,,,,,,,,,,,,,religion,59,44,sing,old,yellow,1809.3907091999426,None,1809.3907091999426,None,6,0.13713780045509338,1809.3907091999426,None,0.13713780045509338,1809.5589832002297,None,1810.073424000293,None,1810.073424000293,None,r,0.23830030020326376,1810.073424000293,None,0.23830030020326376,,,87 Sing,001,2022_Nov_17_1536,ProdSingRedoBetween,2021.2.3,60.212671035078976,
,,,,44,0,44,0,,,,,,,,,,,,,,,,,,,,,,1811.9069293998182,None,,,,,,,,,,,,,,,,,article,79,45,sing,old,red,1810.84598740004,None,1810.84598740004,None,6,0.16195780038833618,1810.84598740004,None,0.16195780038833618,1811.046896500513,None,1811.556611799635,None,1811.556611799635,None,r,0.3310959003865719,1811.556611799635,None,0.3310959003865719,,,87 Sing,001,2022_Nov_17_1536,ProdSingRedoBetween,2021.2.3,60.212671035078976,
,,,,45,0,45,0,,,,,,,,,,,,,,,,,,,,,,1813.258249600418,None,,,,,,,,,,,,,,,,,minute,81,46,sing,old,red,1812.4194239005446,None,1812.4194239005446,None,6,0.1564742997288704,1812.4194239005446,None,0.1564742997288704,1812.5906958002597,None,1813.0916096,None,1813.0916096,None,r,0.14031209982931614,1813.0916096,None,0.14031209982931614,,,87 Sing,001,2022_Nov_17_1536,ProdSingRedoBetween,2021.2.3,60.212671035078976,
,,,,46,0,46,0,,,,,,,,,,,,,,,,,,,,,,1814.8765523005277,None,,,,,,,,,,,,,,,,,bicycle,12,47,sing,old,yellow,1813.7753100004047,None,1813.7753100004047,None,6,0.18440210074186325,1813.7753100004047,None,0.18440210074186325,1813.9794003004208,None,1814.4975318005309,None,1814.4975318005309,None,r,0.3582514002919197,1814.4975318005309,None,0.3582514002919197,,,87 Sing,001,2022_Nov_17_1536,ProdSingRedoBetween,2021.2.3,60.212671035078976,
,,,,47,0,47,0,,,,,,,,,,,,,,,,,,,,,,1816.3112895004451,None,,,,,,,,,,,,,,,,,fellow,43,48,sing,old,blue,1815.3850749004632,None,1815.3850749004632,None,6,0.13468000013381243,1815.3850749004632,None,0.13468000013381243,1815.5446931002662,None,1816.047941699624,None,1816.047941699624,None,r,0.24783449992537498,1816.047941699624,None,0.24783449992537498,,,87 Sing,001,2022_Nov_17_1536,ProdSingRedoBetween,2021.2.3,60.212671035078976,
,,,,48,0,48,0,,,,,,,,,,,,,,,,,,,,,,1817.8628906002268,None,,,,,,,,,,,,,,,,,sunset,36,49,sing,old,blue,1816.816157899797,None,1816.816157899797,None,6,0.2636246997863054,1816.816157899797,None,0.2636246997863054,1817.0973864002153,None,1817.6225803997368,None,1817.6225803997368,None,r,0.225229199975729,1817.6225803997368,None,0.225229199975729,,,87 Sing,001,2022_Nov_17_1536,ProdSingRedoBetween,2021.2.3,60.212671035078976,
,,,,49,0,49,0,,,,,,,,,,,,,,,,,,,,,,1820.2149745998904,None,,,,,,,,,,,,,,,,,volume,172,50,sing,new,null,1818.37369079981,None,1818.37369079981,None,6,0.25809659995138645,1818.37369079981,None,0.25809659995138645,1818.647500200197,None,1819.1476971004158,None,1819.1476971004158,None,r,1.052050600759685,1819.1476971004158,None,1.052050600759685,,,87 Sing,001,2022_Nov_17_1536,ProdSingRedoBetween,2021.2.3,60.212671035078976,
,,,,50,0,50,0,,,,,,,,,,,,,,,,,,,,,,1821.783429400064,None,,,,,,,,,,,,,,,,,alert,104,51,sing,new,null,1820.7159248003736,None,1820.7159248003736,None,6,0.2838944001123309,1820.7159248003736,None,0.2838944001123309,1821.0159288002178,None,1821.522816900164,None,1821.522816900164,None,r,0.24495600070804358,1821.522816900164,None,0.24495600070804358,,,87 Sing,001,2022_Nov_17_1536,ProdSingRedoBetween,2021.2.3,60.212671035078976,
,,,,51,0,51,0,,,,,,,,,,,,,,,,,,,,,,1823.335019200109,None,,,,,,,,,,,,,,,,,research,100,52,sing,new,null,1822.2840211000293,None,1822.2840211000293,None,6,0.17985820025205612,1822.2840211000293,None,0.17985820025205612,1822.4857619004324,None,1823.0014260997996,None,1823.0014260997996,None,r,0.30252519994974136,1823.0014260997996,None,0.30252519994974136,,,87 Sing,001,2022_Nov_17_1536,ProdSingRedoBetween,2021.2.3,60.212671035078976,
,,,,52,0,52,0,,,,,,,,,,,,,,,,,,,,,,1824.9754926003516,None,,,,,,,,,,,,,,,,,angle,96,53,sing,new,null,1823.8440733999014,None,1823.8440733999014,None,6,0.25176259968429804,1823.8440733999014,None,0.25176259968429804,1824.122359700501,None,1824.6364556998014,None,1824.6364556998014,None,r,0.315208800137043,1824.6364556998014,None,0.315208800137043,,,87 Sing,001,2022_Nov_17_1536,ProdSingRedoBetween,2021.2.3,60.212671035078976,
,,,,53,0,53,0,,,,,,,,,,,,,,,,,,,,,,1826.63833039999,None,,,,,,,,,,,,,,,,,length,138,54,sing,new,null,1825.487184099853,None,1825.487184099853,None,6,0.25650559924542904,1825.487184099853,None,0.25650559924542904,1825.7762682000175,None,1826.2879608999938,None,1826.2879608999938,None,r,0.3198023997247219,1826.2879608999938,None,0.3198023997247219,,,87 Sing,001,2022_Nov_17_1536,ProdSingRedoBetween,2021.2.3,60.212671035078976,
,,,,54,0,54,0,,,,,,,,,,,,,,,,,,,,,,1828.1566145997494,None,,,,,,,,,,,,,,,,,engineer,58,55,sing,old,blue,1827.1478575002402,None,1827.1478575002402,None,6,0.21199269965291023,1827.1478575002402,None,0.21199269965291023,1827.389953199774,None,1827.8912749998271,None,1827.8912749998271,None,r,0.23640079982578754,1827.8912749998271,None,0.23640079982578754,,,87 Sing,001,2022_Nov_17_1536,ProdSingRedoBetween,2021.2.3,60.212671035078976,
,,,,55,0,55,0,,,,,,,,,,,,,,,,,,,,,,1829.6927926000208,None,,,,,,,,,,,,,,,,,range,68,56,sing,old,red,1828.6626308998093,None,1828.6626308998093,None,6,0.24112190026789904,1828.6626308998093,None,0.24112190026789904,1828.9258102001622,None,1829.4433308998123,None,1829.4433308998123,None,r,0.22852149978280067,1829.4433308998123,None,0.22852149978280067,,,87 Sing,001,2022_Nov_17_1536,ProdSingRedoBetween,2021.2.3,60.212671035078976,
,,,,56,0,56,0,,,,,,,,,,,,,,,,,,,,,,1831.2456601997837,None,,,,,,,,,,,,,,,,,quick,175,57,sing,new,null,1830.1936363996938,None,1830.1936363996938,None,6,0.2622092003002763,1830.1936363996938,None,0.2622092003002763,1830.4812749996781,None,1830.9956972002983,None,1830.9956972002983,None,r,0.22819080017507076,1830.9956972002983,None,0.22819080017507076,,,87 Sing,001,2022_Nov_17_1536,ProdSingRedoBetween,2021.2.3,60.212671035078976,
,,,,57,0,57,0,,,,,,,,,,,,,,,,,,,,,,1832.8108459999785,None,,,,,,,,,,,,,,,,,provision,31,58,sing,old,blue,1831.763363899663,None,1831.763363899663,None,6,0.2845374997705221,1831.763363899663,None,0.2845374997705221,1832.081394799985,None,1832.6009013000876,None,1832.6009013000876,None,r,0.18278349936008453,1832.6009013000876,None,0.18278349936008453,,,87 Sing,001,2022_Nov_17_1536,ProdSingRedoBetween,2021.2.3,60.212671035078976,
,,,,58,0,58,0,,,,,,,,,,,,,,,,,,,,,,1834.6796644004062,None,,,,,,,,,,,,,,,,,answer,163,59,sing,new,null,1833.3124796999618,None,1833.3124796999618,None,6,0.3913148995488882,1833.3124796999618,None,0.3913148995488882,1833.7351094996557,None,1834.2513116998598,None,1834.2513116998598,None,r,0.4124796995893121,1834.2513116998598,None,0.4124796995893121,,,87 Sing,001,2022_Nov_17_1536,ProdSingRedoBetween,2021.2.3,60.212671035078976,
,,,,59,0,59,0,,,,,,,,,,,,,,,,,,,,,,1836.264504400082,None,,,,,,,,,,,,,,,,,minor,152,60,sing,new,null,1835.1815539002419,None,1835.1815539002419,None,6,0.2903185002505779,1835.1815539002419,None,0.2903185002505779,1835.4980693999678,None,1835.9999379999936,None,1835.9999379999936,None,r,0.24779750034213066,1835.9999379999936,None,0.24779750034213066,,,87 Sing,001,2022_Nov_17_1536,ProdSingRedoBetween,2021.2.3,60.212671035078976,
,,,,60,0,60,0,,,,,,,,,,,,,,,,,,,,,,1841.10285929963,None,,,,,,,,,,,,,,,,,listen,74,61,sing,old,red,1836.7735914997756,None,1836.7735914997756,None,6,1.2100487994030118,1836.7735914997756,None,1.2100487994030118,1838.0004072003067,None,1838.5093515999615,None,1838.5093515999615,None,r,2.5622266000136733,1838.5093515999615,None,2.5622266000136733,,,87 Sing,001,2022_Nov_17_1536,ProdSingRedoBetween,2021.2.3,60.212671035078976,
,,,,61,0,61,0,,,,,,,,,,,,,,,,,,,,,,1842.8210455998778,None,,,,,,,,,,,,,,,,,travel,133,62,sing,new,null,1841.6031820997596,None,1841.6031820997596,None,6,0.3724935995414853,1841.6031820997596,None,0.3724935995414853,1842.0049472004175,None,1842.5041883001104,None,1842.5041883001104,None,r,0.28752969950437546,1842.5041883001104,None,0.28752969950437546,,,87 Sing,001,2022_Nov_17_1536,ProdSingRedoBetween,2021.2.3,60.212671035078976,
,,,,62,0,62,0,,,,,,,,,,,,,,,,,,,,,,1844.4895032998174,None,,,,,,,,,,,,,,,,,story,130,63,sing,new,null,1843.3316729003564,None,1843.3316729003564,None,6,0.3320789001882076,1843.3316729003564,None,0.3320789001882076,1843.6903141997755,None,1844.1923494003713,None,1844.1923494003713,None,r,0.2793803997337818,1844.1923494003713,None,0.2793803997337818,,,87 Sing,001,2022_Nov_17_1536,ProdSingRedoBetween,2021.2.3,60.212671035078976,
,,,,63,0,63,0,,,,,,,,,,,,,,,,,,,,,,1846.0436358004808,None,,,,,,,,,,,,,,,,,leader,160,64,sing,new,null,1844.9960725000128,None,1844.9960725000128,None,6,0.29953949991613626,1844.9960725000128,None,0.29953949991613626,1845.323638400063,None,1845.8269402002916,None,1845.8269402002916,None,r,0.18903360050171614,1845.8269402002916,None,0.18903360050171614,,,87 Sing,001,2022_Nov_17_1536,ProdSingRedoBetween,2021.2.3,60.212671035078976,
,,,,64,0,64,0,,,,,,,,,,,,,,,,,,,,,,1847.609259299934,None,,,,,,,,,,,,,,,,,drove,153,65,sing,new,null,1846.5631991000846,None,1846.5631991000846,None,6,0.22071219980716705,1846.5631991000846,None,0.22071219980716705,1846.8098943997175,None,1847.3135488005355,None,1847.3135488005355,None,r,0.27817360032349825,1847.3135488005355,None,0.27817360032349825,,,87 Sing,001,2022_Nov_17_1536,ProdSingRedoBetween,2021.2.3,60.212671035078976,
,,,,65,0,65,0,,,,,,,,,,,,,,,,,,,,,,1848.910242700018,None,,,,,,,,,,,,,,,,,front,33,66,sing,old,blue,1848.1181952999905,None,1848.1181952999905,None,6,0.1855648998171091,1848.1181952999905,None,0.1855648998171091,1848.3286207998171,None,1848.8464162005112,None,1848.8464162005112,None,r,0.04135380033403635,1848.8464162005112,None,0.04135380033403635,,,87 Sing,001,2022_Nov_17_1536,ProdSingRedoBetween,2021.2.3,60.212671035078976,
,,,,66,0,66,0,,,,,,,,,,,,,,,,,,,,,,1850.529830600135,None,,,,,,,,,,,,,,,,,mankind,23,67,sing,old,yellow,1849.4143730001524,None,1849.4143730001524,None,6,0.20149200037121773,1849.4143730001524,None,0.20149200037121773,1849.65111310035,None,1850.1664722999558,None,1850.1664722999558,None,r,0.3373012999072671,1850.1664722999558,None,0.3373012999072671,,,87 Sing,001,2022_Nov_17_1536,ProdSingRedoBetween,2021.2.3,60.212671035078976,
,,,,67,0,67,0,,,,,,,,,,,,,,,,,,,,,,1851.9635426998138,None,,,,,,,,,,,,,,,,,division,119,68,sing,new,null,1851.0389858996496,None,1851.0389858996496,None,6,0.24074240028858185,1851.0389858996496,None,0.24074240028858185,1851.2992711002007,None,1851.8134994003922,None,1851.8134994003922,None,r,0.12216510064899921,1851.8134994003922,None,0.12216510064899921,,,87 Sing,001,2022_Nov_17_1536,ProdSingRedoBetween,2021.2.3,60.212671035078976,
,,,,68,0,68,0,,,,,,,,,,,,,,,,,,,,,,1853.4146974999458,None,,,,,,,,,,,,,,,,,congress,177,69,sing,new,null,1852.4700324004516,None,1852.4700324004516,None,6,0.15356569923460484,1852.4700324004516,None,0.15356569923460484,1852.6541809001938,None,1853.1645582001656,None,1853.1645582001656,None,r,0.23502209968864918,1853.1645582001656,None,0.23502209968864918,,,87 Sing,001,2022_Nov_17_1536,ProdSingRedoBetween,2021.2.3,60.212671035078976,
,,,,69,0,69,0,,,,,,,,,,,,,,,,,,,,,,1855.152220000513,None,,,,,,,,,,,,,,,,,second,54,70,sing,old,blue,1853.9156017005444,None,1853.9156017005444,None,6,0.25227269995957613,1853.9156017005444,None,0.25227269995957613,1854.199680400081,None,1854.6997193004936,None,1854.6997193004936,None,r,0.41989490017294884,1854.6997193004936,None,0.41989490017294884,,,87 Sing,001,2022_Nov_17_1536,ProdSingRedoBetween,2021.2.3,60.212671035078976,
,,,,70,0,70,0,,,,,,,,,,,,,,,,,,,,,,1856.835186299868,None,,,,,,,,,,,,,,,,,household,10,71,sing,old,yellow,1855.6691322997212,None,1855.6691322997212,None,6,0.24252020008862019,1855.6691322997212,None,0.24252020008862019,1855.9399963002652,None,1856.4556095004082,None,1856.4556095004082,None,r,0.3520136000588536,1856.4556095004082,None,0.3520136000588536,,,87 Sing,001,2022_Nov_17_1536,ProdSingRedoBetween,2021.2.3,60.212671035078976,
,,,,71,0,71,0,,,,,,,,,,,,,,,,,,,,,,1858.3537779003382,None,,,,,,,,,,,,,,,,,place,20,72,sing,old,yellow,1857.3436088003218,None,1857.3436088003218,None,6,0.28009659983217716,1857.3436088003218,None,0.28009659983217716,1857.6537391999736,None,1858.1612497000024,None,1858.1612497000024,None,r,0.1744738994166255,1858.1612497000024,None,0.1744738994166255,,,87 Sing,001,2022_Nov_17_1536,ProdSingRedoBetween,2021.2.3,60.212671035078976,
,,,,72,0,72,0,,,,,,,,,,,,,,,,,,,,,,1859.8713988000527,None,,,,,,,,,,,,,,,,,appearance,5,73,sing,old,yellow,1858.8605720000342,None,1858.8605720000342,None,6,0.2351382002234459,1858.8605720000342,None,0.2351382002234459,1859.1222160002217,None,1859.62219750043,None,1859.62219750043,None,r,0.22560499981045723,1859.62219750043,None,0.22560499981045723,,,87 Sing,001,2022_Nov_17_1536,ProdSingRedoBetween,2021.2.3,60.212671035078976,
,,,,73,0,73,0,,,,,,,,,,,,,,,,,,,,,,1861.3577124001458,None,,,,,,,,,,,,,,,,,beginning,35,74,sing,old,blue,1860.3828560002148,None,1860.3828560002148,None,6,0.2568196998909116,1860.3828560002148,None,0.2568196998909116,1860.657691099681,None,1861.1746405996382,None,1861.1746405996382,None,r,0.16115889977663755,1861.1746405996382,None,0.16115889977663755,,,87 Sing,001,2022_Nov_17_1536,ProdSingRedoBetween,2021.2.3,60.212671035078976,
,,,,74,0,74,0,,,,,,,,,,,,,,,,,,,,,,1862.9911938002333,None,,,,,,,,,,,,,,,,,foundation,168,75,sing,new,null,1861.8631597002968,None,1861.8631597002968,None,6,0.25648480001837015,1861.8631597002968,None,0.25648480001837015,1862.1408590003848,None,1862.6467923000455,None,1862.6467923000455,None,r,0.3289088001474738,1862.6467923000455,None,0.3289088001474738,,,87 Sing,001,2022_Nov_17_1536,ProdSingRedoBetween,2021.2.3,60.212671035078976,
,,,,75,0,75,0,,,,,,,,,,,,,,,,,,,,,,1864.5136050004512,None,,,,,,,,,,,,,,,,,trial,179,76,sing,new,null,1863.499274900183,None,1863.499274900183,None,6,0.20437300018966198,1863.499274900183,None,0.20437300018966198,1863.726424800232,None,1864.2306575002149,None,1864.2306575002149,None,r,0.25719729997217655,1864.2306575002149,None,0.25719729997217655,,,87 Sing,001,2022_Nov_17_1536,ProdSingRedoBetween,2021.2.3,60.212671035078976,
,,,,76,0,76,0,,,,,,,,,,,,,,,,,,,,,,1866.0626379996538,None,,,,,,,,,,,,,,,,,chief,161,77,sing,new,null,1865.0329565005377,None,1865.0329565005377,None,6,0.2706199996173382,1865.0329565005377,None,0.2706199996173382,1865.3269528998062,None,1865.8351392000914,None,1865.8351392000914,None,r,0.20471089985221624,1865.8351392000914,None,0.20471089985221624,,,87 Sing,001,2022_Nov_17_1536,ProdSingRedoBetween,2021.2.3,60.212671035078976,
,,,,77,0,77,0,,,,,,,,,,,,,,,,,,,,,,1867.5146717000753,None,,,,,,,,,,,,,,,,,opening,145,78,sing,new,null,1866.5947062000632,None,1866.5947062000632,None,6,0.14103309996426105,1866.5947062000632,None,0.14103309996426105,1866.7658759998158,None,1867.2828620998189,None,1867.2828620998189,None,r,0.2049305997788906,1867.2828620998189,None,0.2049305997788906,,,87 Sing,001,2022_Nov_17_1536,ProdSingRedoBetween,2021.2.3,60.212671035078976,
,,,,78,0,78,0,,,,,,,,,,,,,,,,,,,,,,1868.9471450001001,None,,,,,,,,,,,,,,,,,agency,128,79,sing,new,null,1868.0296384003013,None,1868.0296384003013,None,6,0.14607599936425686,1868.0296384003013,None,0.14607599936425686,1868.197775799781,None,1868.6973561001942,None,1868.6973561001942,None,r,0.2223885003477335,1868.6973561001942,None,0.2223885003477335,,,87 Sing,001,2022_Nov_17_1536,ProdSingRedoBetween,2021.2.3,60.212671035078976,
,,,,79,0,79,0,,,,,,,,,,,,,,,,,,,,,,1870.48204110004,None,,,,,,,,,,,,,,,,,distance,72,80,sing,old,red,1869.4545489000157,None,1869.4545489000157,None,6,0.20911990012973547,1869.4545489000157,None,0.20911990012973547,1869.682423000224,None,1870.1883335001767,None,1870.1883335001767,None,r,0.26736680045723915,1870.1883335001767,None,0.26736680045723915,,,87 Sing,001,2022_Nov_17_1536,ProdSingRedoBetween,2021.2.3,60.212671035078976,
,,,,80,0,80,0,,,,,,,,,,,,,,,,,,,,,,1871.9334752997383,None,,,,,,,,,,,,,,,,,citizen,88,81,sing,old,red,1870.990852800198,None,1870.990852800198,None,6,0.16084429994225502,1870.990852800198,None,0.16084429994225502,1871.1875975998119,None,1871.699984700419,None,1871.699984700419,None,r,0.20376399997621775,1871.699984700419,None,0.20376399997621775,,,87 Sing,001,2022_Nov_17_1536,ProdSingRedoBetween,2021.2.3,60.212671035078976,
,,,,81,0,81,0,,,,,,,,,,,,,,,,,,,,,,1873.5517066996545,None,,,,,,,,,,,,,,,,,society,7,82,sing,old,yellow,1872.4369925996289,None,1872.4369925996289,None,6,0.2825548006221652,1872.4369925996289,None,0.2825548006221652,1872.7532911002636,None,1873.2685898998752,None,1873.2685898998752,None,r,0.26701590046286583,1873.2685898998752,None,0.26701590046286583,,,87 Sing,001,2022_Nov_17_1536,ProdSingRedoBetween,2021.2.3,60.212671035078976,
,,,,82,0,82,0,,,,,,,,,,,,,,,,,,,,,,1875.2033730000257,None,,,,,,,,,,,,,,,,,voice,167,83,sing,new,null,1874.0636938996613,None,1874.0636938996613,None,6,0.30393579974770546,1874.0636938996613,None,0.30393579974770546,1874.3872616002336,None,1874.8883020002395,None,1874.8883020002395,None,r,0.29537339974194765,1874.8883020002395,None,0.29537339974194765,,,87 Sing,001,2022_Nov_17_1536,ProdSingRedoBetween,2021.2.3,60.212671035078976,
,,,,83,0,83,0,,,,,,,,,,,,,,,,,,,,,,1876.7880814000964,None,,,,,,,,,,,,,,,,,welcome,178,84,sing,new,null,1875.7132200999185,None,1875.7132200999185,None,6,0.28644740022718906,1875.7132200999185,None,0.28644740022718906,1876.0222890004516,None,1876.5295858001336,None,1876.5295858001336,None,r,0.23819379974156618,1876.5295858001336,None,0.23819379974156618,,,87 Sing,001,2022_Nov_17_1536,ProdSingRedoBetween,2021.2.3,60.212671035078976,
,,,,84,0,84,0,,,,,,,,,,,,,,,,,,,,,,1878.3562754001468,None,,,,,,,,,,,,,,,,,edition,75,85,sing,old,red,1877.2915978999808,None,1877.2915978999808,None,6,0.2521008998155594,1877.2915978999808,None,0.2521008998155594,1877.5732033997774,None,1878.0730250999331,None,1878.0730250999331,None,r,0.2547516003251076,1878.0730250999331,None,0.2547516003251076,,,87 Sing,001,2022_Nov_17_1536,ProdSingRedoBetween,2021.2.3,60.212671035078976,
,,,,85,0,85,0,,,,,,,,,,,,,,,,,,,,,,1879.9581083003432,None,,,,,,,,,,,,,,,,,republic,120,86,sing,new,null,1878.8682564003393,None,1878.8682564003393,None,6,0.2834499003365636,1878.8682564003393,None,0.2834499003365636,1879.1786356996745,None,1879.70088160038,None,1879.70088160038,None,r,0.23481719940900803,1879.70088160038,None,0.23481719940900803,,,87 Sing,001,2022_Nov_17_1536,ProdSingRedoBetween,2021.2.3,60.212671035078976,
,,,,86,0,86,0,,,,,,,,,,,,,,,,,,,,,,1881.5434552002698,None,,,,,,,,,,,,,,,,,motion,45,87,sing,old,blue,1880.459035700187,None,1880.459035700187,None,6,0.3246478997170925,1880.459035700187,None,0.3246478997170925,1880.81115449965,None,1881.3300876999274,None,1881.3300876999274,None,r,0.18966369982808828,1881.3300876999274,None,0.18966369982808828,,,87 Sing,001,2022_Nov_17_1536,ProdSingRedoBetween,2021.2.3,60.212671035078976,
,,,,87,0,87,0,,,,,,,,,,,,,,,,,,,,,,1884.2788335997611,None,,,,,,,,,,,,,,,,,solution,166,88,sing,new,null,1882.047149100341,None,1882.047149100341,None,6,1.240514500066638,1882.047149100341,None,1.240514500066638,1883.3129732003435,None,1883.8153948998079,None,1883.8153948998079,None,r,0.4322558995336294,1883.8153948998079,None,0.4322558995336294,,,87 Sing,001,2022_Nov_17_1536,ProdSingRedoBetween,2021.2.3,60.212671035078976,
,,,,88,0,88,0,,,,,,,,,,,,,,,,,,,,,,1885.8638486005366,None,,,,,,,,,,,,,,,,,harmony,171,89,sing,new,null,1884.7797186002135,None,1884.7797186002135,None,6,0.2598299002274871,1884.7797186002135,None,0.2598299002274871,1885.0663080997765,None,1885.580991299823,None,1885.580991299823,None,r,0.2666365997865796,1885.580991299823,None,0.2666365997865796,,,87 Sing,001,2022_Nov_17_1536,ProdSingRedoBetween,2021.2.3,60.212671035078976,
,,,,89,0,89,0,,,,,,,,,,,,,,,,,,,,,,1887.4822840001434,None,,,,,,,,,,,,,,,,,figure,11,90,sing,old,yellow,1886.3743214998394,None,1886.3743214998394,None,6,0.2653491999953985,1886.3743214998394,None,0.2653491999953985,1886.6662592003122,None,1887.1654321001843,None,1887.1654321001843,None,r,0.29815080016851425,1887.1654321001843,None,0.29815080016851425,,,87 Sing,001,2022_Nov_17_1536,ProdSingRedoBetween,2021.2.3,60.212671035078976,
,,,,90,0,90,0,,,,,,,,,,,,,,,,,,,,,,1889.1671516001225,None,,,,,,,,,,,,,,,,,number,39,91,sing,old,blue,1887.9909685999155,None,1887.9909685999155,None,6,0.24067100044339895,1887.9909685999155,None,0.24067100044339895,1888.2514279996976,None,1888.7691398998722,None,1888.7691398998722,None,r,0.38253379985690117,1888.7691398998722,None,0.38253379985690117,,,87 Sing,001,2022_Nov_17_1536,ProdSingRedoBetween,2021.2.3,60.212671035078976,
,,,,91,0,91,0,,,,,,,,,,,,,,,,,,,,,,1890.7519591003656,None,,,,,,,,,,,,,,,,,title,70,92,sing,old,red,1889.6678924001753,None,1889.6678924001753,None,6,0.29974579997360706,1889.6678924001753,None,0.29974579997360706,1889.9857473000884,None,1890.4853942999616,None,1890.4853942999616,None,r,0.24225609935820103,1890.4853942999616,None,0.24225609935820103,,,87 Sing,001,2022_Nov_17_1536,ProdSingRedoBetween,2021.2.3,60.212671035078976,
,,,,92,0,92,0,,,,,,,,,,,,,,,,,,,,,,1892.570674800314,None,,,,,,,,,,,,,,,,,public,61,93,sing,old,red,1891.2615026999265,None,1891.2615026999265,None,6,0.250211700797081,1891.2615026999265,None,0.250211700797081,1891.5398899996653,None,1892.05360809993,None,1892.05360809993,None,r,0.48998389951884747,1892.05360809993,None,0.48998389951884747,,,87 Sing,001,2022_Nov_17_1536,ProdSingRedoBetween,2021.2.3,60.212671035078976,
,,,,93,0,93,0,,,,,,,,,,,,,,,,,,,,,,1894.272195899859,None,,,,,,,,,,,,,,,,,career,110,94,sing,new,null,1893.0764043005183,None,1893.0764043005183,None,6,0.37123730033636093,1893.0764043005183,None,0.37123730033636093,1893.4728174004704,None,1893.9742646999657,None,1893.9742646999657,None,r,0.28133989963680506,1893.9742646999657,None,0.28133989963680506,,,87 Sing,001,2022_Nov_17_1536,ProdSingRedoBetween,2021.2.3,60.212671035078976,
,,,,94,0,94,0,,,,,,,,,,,,,,,,,,,,,,1895.790541600436,None,,,,,,,,,,,,,,,,,accident,21,95,sing,old,yellow,1894.7742082998157,None,1894.7742082998157,None,6,0.21746149938553572,1894.7742082998157,None,0.21746149938553572,1895.0095624998212,None,1895.527020700276,None,1895.527020700276,None,r,0.24062820058315992,1895.527020700276,None,0.24062820058315992,,,87 Sing,001,2022_Nov_17_1536,ProdSingRedoBetween,2021.2.3,60.212671035078976,
,,,,95,0,95,0,,,,,,,,,,,,,,,,,,,,,,1897.3587894001976,None,,,,,,,,,,,,,,,,,phrase,109,96,sing,new,null,1896.3001714004204,None,1896.3001714004204,None,6,0.25947940070182085,1896.3001714004204,None,0.25947940070182085,1896.575914000161,None,1897.0753089003265,None,1897.0753089003265,None,r,0.25248249992728233,1897.0753089003265,None,0.25248249992728233,,,87 Sing,001,2022_Nov_17_1536,ProdSingRedoBetween,2021.2.3,60.212671035078976,
,,,,96,0,96,0,,,,,,,,,,,,,,,,,,,,,,1898.9270417997614,None,,,,,,,,,,,,,,,,,youth,101,97,sing,new,null,1897.8639467004687,None,1897.8639467004687,None,6,0.2721915999427438,1897.8639467004687,None,0.2721915999427438,1898.1668362999335,None,1898.6820422997698,None,1898.6820422997698,None,r,0.22967979963868856,1898.6820422997698,None,0.22967979963868856,,,87 Sing,001,2022_Nov_17_1536,ProdSingRedoBetween,2021.2.3,60.212671035078976,
,,,,97,0,97,0,,,,,,,,,,,,,,,,,,,,,,1901.0122801000252,None,,,,,,,,,,,,,,,,,plane,78,98,sing,old,red,1899.4523330004886,None,1899.4523330004886,None,6,0.1871887007728219,1899.4523330004886,None,0.1871887007728219,1899.6709246002138,None,1900.1829316001385,None,1900.1829316001385,None,r,0.8085956992581487,1900.1829316001385,None,0.8085956992581487,,,87 Sing,001,2022_Nov_17_1536,ProdSingRedoBetween,2021.2.3,60.212671035078976,
,,,,98,0,98,0,,,,,,,,,,,,,,,,,,,,,,1902.5806616004556,None,,,,,,,,,,,,,,,,,scale,105,99,sing,new,null,1901.514204800129,None,1901.514204800129,None,6,0.3333172993734479,1901.514204800129,None,0.3333172993734479,1901.8680483996868,None,1902.3818771000952,None,1902.3818771000952,None,r,0.16991049982607365,1902.3818771000952,None,0.16991049982607365,,,87 Sing,001,2022_Nov_17_1536,ProdSingRedoBetween,2021.2.3,60.212671035078976,
,,,,99,0,99,0,,,,,,,,,,,,,,,,,,,,,,1904.0154819004238,None,,,,,,,,,,,,,,,,,passage,158,100,sing,new,null,1903.0894699003547,None,1903.0894699003547,None,6,0.20615539979189634,1903.0894699003547,None,0.20615539979189634,1903.316576000303,None,1903.8354328004643,None,1903.8354328004643,None,r,0.16434200014919043,1903.8354328004643,None,0.16434200014919043,,,87 Sing,001,2022_Nov_17_1536,ProdSingRedoBetween,2021.2.3,60.212671035078976,
,,,,100,0,100,0,,,,,,,,,,,,,,,,,,,,,,1905.7672600997612,None,,,,,,,,,,,,,,,,,employment,84,101,sing,old,red,1904.5192358000204,None,1904.5192358000204,None,6,0.2963926997035742,1904.5192358000204,None,0.2963926997035742,1904.841064600274,None,1905.3502515004948,None,1905.3502515004948,None,r,0.3934043999761343,1905.3502515004948,None,0.3934043999761343,,,87 Sing,001,2022_Nov_17_1536,ProdSingRedoBetween,2021.2.3,60.212671035078976,
,,,,101,0,101,0,,,,,,,,,,,,,,,,,,,,,,1907.3353882003576,None,,,,,,,,,,,,,,,,,novel,17,102,sing,old,yellow,1906.2799215996638,None,1906.2799215996638,None,6,0.27167450077831745,1906.2799215996638,None,0.27167450077831745,1906.573275799863,None,1907.0852500004694,None,1907.0852500004694,None,r,0.22640949953347445,1907.0852500004694,None,0.22640949953347445,,,87 Sing,001,2022_Nov_17_1536,ProdSingRedoBetween,2021.2.3,60.212671035078976,
,,,,102,0,102,0,,,,,,,,,,,,,,,,,,,,,,1908.7701768996194,None,,,,,,,,,,,,,,,,,literature,19,103,sing,old,yellow,1907.847208100371,None,1907.847208100371,None,6,0.1524109998717904,1907.847208100371,None,0.1524109998717904,1908.020422199741,None,1908.526287900284,None,1908.526287900284,None,r,0.21742230001837015,1908.526287900284,None,0.21742230001837015,,,87 Sing,001,2022_Nov_17_1536,ProdSingRedoBetween,2021.2.3,60.212671035078976,
,,,,103,0,103,0,,,,,,,,,,,,,,,,,,,,,,1910.423232600093,None,,,,,,,,,,,,,,,,,majority,44,104,sing,old,blue,1909.283049499616,None,1909.283049499616,None,6,0.2125466000288725,1909.283049499616,None,0.2125466000288725,1909.5364162996411,None,1910.0382259003818,None,1910.0382259003818,None,r,0.35347170010209084,1910.0382259003818,None,0.35347170010209084,,,87 Sing,001,2022_Nov_17_1536,ProdSingRedoBetween,2021.2.3,60.212671035078976,
,,,,104,0,104,0,,,,,,,,,,,,,,,,,,,,,,1911.9066665004939,None,,,,,,,,,,,,,,,,,portion,3,105,sing,old,yellow,1910.933009000495,None,1910.933009000495,None,6,0.18660819996148348,1910.933009000495,None,0.18660819996148348,1911.1398553997278,None,1911.644802399911,None,1911.644802399911,None,r,0.23474919982254505,1911.644802399911,None,0.23474919982254505,,,87 Sing,001,2022_Nov_17_1536,ProdSingRedoBetween,2021.2.3,60.212671035078976,
,,,,105,0,105,0,,,,,,,,,,,,,,,,,,,,,,1913.3415168002248,None,,,,,,,,,,,,,,,,,turkey,159,106,sing,new,null,1912.4183755004779,None,1912.4183755004779,None,6,0.1333042997866869,1912.4183755004779,None,0.1333042997866869,1912.5793275004253,None,1913.091567600146,None,1913.091567600146,None,r,0.21994560025632381,1913.091567600146,None,0.21994560025632381,,,87 Sing,001,2022_Nov_17_1536,ProdSingRedoBetween,2021.2.3,60.212671035078976,
,,,,106,0,106,0,,,,,,,,,,,,,,,,,,,,,,1914.792833100073,None,,,,,,,,,,,,,,,,,bureau,132,107,sing,new,null,1913.8545369999483,None,1913.8545369999483,None,6,0.19299970008432865,1913.8545369999483,None,0.19299970008432865,1914.075478600338,None,1914.5761197004467,None,1914.5761197004467,None,r,0.19943980034440756,1914.5761197004467,None,0.19943980034440756,,,87 Sing,001,2022_Nov_17_1536,ProdSingRedoBetween,2021.2.3,60.212671035078976,
,,,,107,0,107,0,,,,,,,,,,,,,,,,,,,,,,1916.4609297001734,None,,,,,,,,,,,,,,,,,general,62,108,sing,old,red,1915.2932029003277,None,1915.2932029003277,None,6,0.21827950049191713,1915.2932029003277,None,0.21827950049191713,1915.5267422003672,None,1916.0276917004958,None,1916.0276917004958,None,r,0.41183819994330406,1916.0276917004958,None,0.41183819994330406,,,87 Sing,001,2022_Nov_17_1536,ProdSingRedoBetween,2021.2.3,60.212671035078976,
,,,,108,0,108,0,,,,,,,,,,,,,,,,,,,,,,1917.9457352003083,None,,,,,,,,,,,,,,,,,still,82,109,sing,old,red,1916.9617902999744,None,1916.9617902999744,None,6,0.22174360044300556,1916.9617902999744,None,0.22174360044300556,1917.2119685998186,None,1917.7123619001359,None,1917.7123619001359,None,r,0.20725630037486553,1917.7123619001359,None,0.20725630037486553,,,87 Sing,001,2022_Nov_17_1536,ProdSingRedoBetween,2021.2.3,60.212671035078976,
,,,,109,0,109,0,,,,,,,,,,,,,,,,,,,,,,1919.5141096003354,None,,,,,,,,,,,,,,,,,agreement,125,110,sing,new,null,1918.4466345002875,None,1918.4466345002875,None,6,0.3209875002503395,1918.4466345002875,None,0.3209875002503395,1918.7977111004293,None,1919.2985906004906,None,1919.2985906004906,None,r,0.19696300011128187,1919.2985906004906,None,0.19696300011128187,,,87 Sing,001,2022_Nov_17_1536,ProdSingRedoBetween,2021.2.3,60.212671035078976,
,,,,110,0,110,0,,,,,,,,,,,,,,,,,,,,,,1920.8028519004583,None,,,,,,,,,,,,,,,,,people,13,111,sing,old,yellow,1920.0211958996952,None,1920.0211958996952,None,6,0.14650029968470335,1920.0211958996952,None,0.14650029968470335,1920.1995138004422,None,1920.7039483999833,None,1920.7039483999833,None,r,0.07186670042574406,1920.7039483999833,None,0.07186670042574406,,,87 Sing,001,2022_Nov_17_1536,ProdSingRedoBetween,2021.2.3,60.212671035078976,
,,,,111,0,111,0,,,,,,,,,,,,,,,,,,,,,,1923.019771100022,None,,,,,,,,,,,,,,,,,throw,135,112,sing,new,null,1921.323510600254,None,1921.323510600254,None,6,0.6920710001140833,1921.323510600254,None,0.6920710001140833,1922.0362801998854,None,1922.553234799765,None,1922.553234799765,None,r,0.4384368993341923,1922.553234799765,None,0.4384368993341923,,,87 Sing,001,2022_Nov_17_1536,ProdSingRedoBetween,2021.2.3,60.212671035078976,
,,,,112,0,112,0,,,,,,,,,,,,,,,,,,,,,,1925.153186599724,None,,,,,,,,,,,,,,,,,safety,63,113,sing,old,red,1923.5463489005342,None,1923.5463489005342,None,6,0.6211967999115586,1923.5463489005342,None,0.6211967999115586,1924.189458400011,None,1924.7028093999252,None,1924.7028093999252,None,r,0.4247800996527076,1924.7028093999252,None,0.4247800996527076,,,87 Sing,001,2022_Nov_17_1536,ProdSingRedoBetween,2021.2.3,60.212671035078976,
,,,,113,0,113,0,,,,,,,,,,,,,,,,,,,,,,1927.3551102997735,None,,,,,,,,,,,,,,,,,property,64,114,sing,old,red,1925.6646519005299,None,1925.6646519005299,None,6,0.5029364991933107,1925.6646519005299,None,0.5029364991933107,1926.1890489999205,None,1926.6933794999495,None,1926.6933794999495,None,r,0.6422322001308203,1926.6933794999495,None,0.6422322001308203,,,87 Sing,001,2022_Nov_17_1536,ProdSingRedoBetween,2021.2.3,60.212671035078976,
,,,,114,0,114,0,,,,,,,,,,,,,,,,,,,,,,1929.4741710005328,None,,,,,,,,,,,,,,,,,track,60,115,sing,old,red,1927.868603900075,None,1927.868603900075,None,6,0.426876999437809,1927.868603900075,None,0.426876999437809,1928.3246614998206,None,1928.8290555998683,None,1928.8290555998683,None,r,0.6185109000653028,1928.8290555998683,None,0.6185109000653028,,,87 Sing,001,2022_Nov_17_1536,ProdSingRedoBetween,2021.2.3,60.212671035078976,
,,,,115,0,115,0,,,,,,,,,,,,,,,,,,,,,,1932.2611341001466,None,,,,,,,,,,,,,,,,,substance,94,116,sing,new,null,1929.9910361999646,None,1929.9910361999646,None,6,1.1605756003409624,1929.9910361999646,None,1.1605756003409624,1931.1794595001265,None,1931.700834300369,None,1931.700834300369,None,r,0.5388271994888783,1931.700834300369,None,0.5388271994888783,,,87 Sing,001,2022_Nov_17_1536,ProdSingRedoBetween,2021.2.3,60.212671035078976,
,,,,116,0,116,0,,,,,,,,,,,,,,,,,,,,,,1934.829479300417,None,,,,,,,,,,,,,,,,,light,65,117,sing,old,red,1932.7625462999567,None,1932.7625462999567,None,6,0.7650209004059434,1932.7625462999567,None,0.7650209004059434,1933.546184300445,None,1934.0461565004662,None,1934.0461565004662,None,r,0.7533555999398232,1934.0461565004662,None,0.7533555999398232,,,87 Sing,001,2022_Nov_17_1536,ProdSingRedoBetween,2021.2.3,60.212671035078976,
,,,,117,0,117,0,,,,,,,,,,,,,,,,,,,,,,1936.8816029001027,None,,,,,,,,,,,,,,,,,frank,86,118,sing,old,red,1935.3343385001644,None,1935.3343385001644,None,6,0.5291785001754761,1935.3343385001644,None,0.5291785001754761,1935.8822419997305,None,1936.3976356005296,None,1936.3976356005296,None,r,0.4659206001088023,1936.3976356005296,None,0.4659206001088023,,,87 Sing,001,2022_Nov_17_1536,ProdSingRedoBetween,2021.2.3,60.212671035078976,
,,,,118,0,118,0,,,,,,,,,,,,,,,,,,,,,,1939.1335848998278,None,,,,,,,,,,,,,,,,,executive,16,119,sing,old,yellow,1937.3821569997817,None,1937.3821569997817,None,6,0.785436499863863,1937.3821569997817,None,0.785436499863863,1938.1846334002912,None,1938.7001940002665,None,1938.7001940002665,None,r,0.40343450009822845,1938.7001940002665,None,0.40343450009822845,,,87 Sing,001,2022_Nov_17_1536,ProdSingRedoBetween,2021.2.3,60.212671035078976,
,,,,119,0,119,0,,,,,,,,,,,,,,,,,,,,,,1941.3359292000532,None,,,,,,,,,,,,,,,,,treatment,41,120,sing,old,blue,1939.6369559997693,None,1939.6369559997693,None,6,0.35494530014693737,1939.6369559997693,None,0.35494530014693737,1940.0408763997257,None,1940.5520056001842,None,1940.5520056001842,None,r,0.7674194993451238,1940.5520056001842,None,0.7674194993451238,,,87 Sing,001,2022_Nov_17_1536,ProdSingRedoBetween,2021.2.3,60.212671035078976,
,,,,120,0,120,0,,,,,,,,,,,,,,,,,,,,,,1943.6403799001127,None,,,,,,,,,,,,,,,,,piece,50,121,sing,old,blue,1941.8445602003485,None,1941.8445602003485,None,6,0.7549365004524589,1941.8445602003485,None,0.7549365004524589,1942.620614499785,None,1943.12104550004,None,1943.12104550004,None,r,0.4864925006404519,1943.12104550004,None,0.4864925006404519,,,87 Sing,001,2022_Nov_17_1536,ProdSingRedoBetween,2021.2.3,60.212671035078976,
,,,,121,0,121,0,,,,,,,,,,,,,,,,,,,,,,1946.3075008997694,None,,,,,,,,,,,,,,,,,measure,55,122,sing,old,blue,1944.161316100508,None,1944.161316100508,None,6,1.0781757002696395,1944.161316100508,None,1.0781757002696395,1945.268116700463,None,1945.773692900315,None,1945.773692900315,None,r,0.5137659003958106,1945.773692900315,None,0.5137659003958106,,,87 Sing,001,2022_Nov_17_1536,ProdSingRedoBetween,2021.2.3,60.212671035078976,
,,,,122,0,122,0,,,,,,,,,,,,,,,,,,,,,,1948.3263129005209,None,,,,,,,,,,,,,,,,,equipment,114,123,sing,new,null,1946.809409099631,None,1946.809409099631,None,6,0.574155799113214,1946.809409099631,None,0.574155799113214,1947.410407599993,None,1947.9259174000472,None,1947.9259174000472,None,r,0.3776428997516632,1947.9259174000472,None,0.3776428997516632,,,87 Sing,001,2022_Nov_17_1536,ProdSingRedoBetween,2021.2.3,60.212671035078976,
,,,,123,0,123,0,,,,,,,,,,,,,,,,,,,,,,1950.778672600165,None,,,,,,,,,,,,,,,,,benefit,30,124,sing,old,blue,1948.8353990996256,None,1948.8353990996256,None,6,0.6841999003663659,1948.8353990996256,None,0.6841999003663659,1949.5479752002284,None,1950.061509899795,None,1950.061509899795,None,r,0.6900188000872731,1950.061509899795,None,0.6900188000872731,,,87 Sing,001,2022_Nov_17_1536,ProdSingRedoBetween,2021.2.3,60.212671035078976,
,,,,124,0,124,0,,,,,,,,,,,,,,,,,,,,,,1953.014386399649,None,,,,,,,,,,,,,,,,,science,95,125,sing,new,null,1951.2898391997442,None,1951.2898391997442,None,6,0.5177469998598099,1951.2898391997442,None,0.5177469998598099,1951.832379899919,None,1952.347127799876,None,1952.347127799876,None,r,0.636357999406755,1952.347127799876,None,0.636357999406755,,,87 Sing,001,2022_Nov_17_1536,ProdSingRedoBetween,2021.2.3,60.212671035078976,
,,,,125,0,125,0,,,,,,,,,,,,,,,,,,,,,,1954.8495191000402,None,,,,,,,,,,,,,,,,,nation,27,126,sing,old,yellow,1953.5221806997433,None,1953.5221806997433,None,6,0.33351940009742975,1953.5221806997433,None,0.33351940009742975,1953.8844697000459,None,1954.3991314005107,None,1954.3991314005107,None,r,0.4323776997625828,1954.3991314005107,None,0.4323776997625828,,,87 Sing,001,2022_Nov_17_1536,ProdSingRedoBetween,2021.2.3,60.212671035078976,
,,,,126,0,126,0,,,,,,,,,,,,,,,,,,,,,,1956.917950199917,None,,,,,,,,,,,,,,,,,company,147,127,sing,new,null,1955.3625082997605,None,1955.3625082997605,None,6,0.2930909004062414,1955.3625082997605,None,0.2930909004062414,1955.6927749002352,None,1956.201004399918,None,1956.201004399918,None,r,0.6865373002365232,1956.201004399918,None,0.6865373002365232,,,87 Sing,001,2022_Nov_17_1536,ProdSingRedoBetween,2021.2.3,60.212671035078976,
,,,,127,0,127,0,,,,,,,,,,,,,,,,,,,,,,1959.2097116997465,None,,,,,,,,,,,,,,,,,broad,126,128,sing,new,null,1957.4201531000435,None,1957.4201531000435,None,6,0.8514941995963454,1957.4201531000435,None,0.8514941995963454,1958.307121699676,None,1958.820163300261,None,1958.820163300261,None,r,0.3634632993489504,1958.820163300261,None,0.3634632993489504,,,87 Sing,001,2022_Nov_17_1536,ProdSingRedoBetween,2021.2.3,60.212671035078976,
,,,,128,0,128,0,,,,,,,,,,,,,,,,,,,,,,1961.0221261996776,None,,,,,,,,,,,,,,,,,military,40,129,sing,old,blue,1959.731879499741,None,1959.731879499741,None,6,0.4517471995204687,1959.731879499741,None,0.4517471995204687,1960.2063044998795,None,1960.7128279004246,None,1960.7128279004246,None,r,0.28672780003398657,1960.7128279004246,None,0.28672780003398657,,,87 Sing,001,2022_Nov_17_1536,ProdSingRedoBetween,2021.2.3,60.212671035078976,
,,,,129,0,129,0,,,,,,,,,,,,,,,,,,,,,,1962.67372540012,None,,,,,,,,,,,,,,,,,stand,32,130,sing,old,blue,1961.528443899937,None,1961.528443899937,None,6,0.3110789004713297,1961.528443899937,None,0.3110789004713297,1961.8622260000557,None,1962.3785707000643,None,1962.3785707000643,None,r,0.2769683003425598,1962.3785707000643,None,0.2769683003425598,,,87 Sing,001,2022_Nov_17_1536,ProdSingRedoBetween,2021.2.3,60.212671035078976,
,,,,130,0,130,0,,,,,,,,,,,,,,,,,,,,,,1964.5255599003285,None,,,,,,,,,,,,,,,,,mayor,144,131,sing,new,null,1963.1766341002658,None,1963.1766341002658,None,6,0.3509662002325058,1963.1766341002658,None,0.3509662002325058,1963.5616484005004,None,1964.0754466000944,None,1964.0754466000944,None,r,0.42810959927737713,1964.0754466000944,None,0.42810959927737713,,,87 Sing,001,2022_Nov_17_1536,ProdSingRedoBetween,2021.2.3,60.212671035078976,
,,,,131,0,131,0,,,,,,,,,,,,,,,,,,,,,,1966.2109978999943,None,,,,,,,,,,,,,,,,,close,37,132,sing,old,blue,1965.0309685003012,None,1965.0309685003012,None,6,0.2725605992600322,1965.0309685003012,None,0.2725605992600322,1965.3298478005454,None,1965.845013000071,None,1965.845013000071,None,r,0.3465341003611684,1965.845013000071,None,0.3465341003611684,,,87 Sing,001,2022_Nov_17_1536,ProdSingRedoBetween,2021.2.3,60.212671035078976,
,,,,132,0,132,0,,,,,,,,,,,,,,,,,,,,,,1968.1794325998053,None,,,,,,,,,,,,,,,,,couch,66,133,sing,old,red,1966.71119119972,None,1966.71119119972,None,6,0.6082282001152635,1966.71119119972,None,0.6082282001152635,1967.349001600407,None,1967.8624422997236,None,1967.8624422997236,None,r,0.29712199978530407,1967.8624422997236,None,0.29712199978530407,,,87 Sing,001,2022_Nov_17_1536,ProdSingRedoBetween,2021.2.3,60.212671035078976,
,,,,133,0,133,0,,,,,,,,,,,,,,,,,,,,,,1969.799928500317,None,,,,,,,,,,,,,,,,,weight,29,134,sing,old,blue,1968.6877361005172,None,1968.6877361005172,None,6,0.2797715999186039,1968.6877361005172,None,0.2797715999186039,1968.9987725997344,None,1969.5184714002535,None,1969.5184714002535,None,r,0.2491795001551509,1969.5184714002535,None,0.2491795001551509,,,87 Sing,001,2022_Nov_17_1536,ProdSingRedoBetween,2021.2.3,60.212671035078976,
,,,,134,0,134,0,,,,,,,,,,,,,,,,,,,,,,1971.3325813002884,None,,,,,,,,,,,,,,,,,bitter,52,135,sing,old,blue,1970.3221741002053,None,1970.3221741002053,None,6,0.23741820082068443,1970.3221741002053,None,0.23741820082068443,1970.5817063003778,None,1971.0823031002656,None,1971.0823031002656,None,r,0.22126519959419966,1971.0823031002656,None,0.22126519959419966,,,87 Sing,001,2022_Nov_17_1536,ProdSingRedoBetween,2021.2.3,60.212671035078976,
,,,,135,0,135,0,,,,,,,,,,,,,,,,,,,,,,1972.9008670002222,None,,,,,,,,,,,,,,,,,report,56,136,sing,old,blue,1971.8391770999879,None,1971.8391770999879,None,6,0.24839810002595186,1971.8391770999879,None,0.24839810002595186,1972.1182163003832,None,1972.6172960996628,None,1972.6172960996628,None,r,0.2622162997722626,1972.6172960996628,None,0.2622162997722626,,,87 Sing,001,2022_Nov_17_1536,ProdSingRedoBetween,2021.2.3,60.212671035078976,
,,,,136,0,136,0,,,,,,,,,,,,,,,,,,,,,,1974.6859277999029,None,,,,,,,,,,,,,,,,,strength,164,137,sing,new,null,1973.4121291004121,None,1973.4121291004121,None,6,0.36336749978363514,1973.4121291004121,None,0.36336749978363514,1973.803274200298,None,1974.3023295998573,None,1974.3023295998573,None,r,0.36130439955741167,1974.3023295998573,None,0.36130439955741167,,,87 Sing,001,2022_Nov_17_1536,ProdSingRedoBetween,2021.2.3,60.212671035078976,
,,,,137,0,137,0,,,,,,,,,,,,,,,,,,,,,,1976.3543087998405,None,,,,,,,,,,,,,,,,,marriage,154,138,sing,new,null,1975.188792400062,None,1975.188792400062,None,6,0.3066299008205533,1975.188792400062,None,0.3066299008205533,1975.522988700308,None,1976.0371249001473,None,1976.0371249001473,None,r,0.2903194995597005,1976.0371249001473,None,0.2903194995597005,,,87 Sing,001,2022_Nov_17_1536,ProdSingRedoBetween,2021.2.3,60.212671035078976,
,,,,138,0,138,0,,,,,,,,,,,,,,,,,,,,,,1978.239462999627,None,,,,,,,,,,,,,,,,,service,137,139,sing,new,null,1976.8702114997432,None,1976.8702114997432,None,6,0.6093155005946755,1976.8702114997432,None,0.6093155005946755,1977.5112274000421,None,1978.0271813003346,None,1978.0271813003346,None,r,0.19637979939579964,1978.0271813003346,None,0.19637979939579964,,,87 Sing,001,2022_Nov_17_1536,ProdSingRedoBetween,2021.2.3,60.212671035078976,
,,,,139,0,139,0,,,,,,,,,,,,,,,,,,,,,,1979.874520400539,None,,,,,,,,,,,,,,,,,smell,6,140,sing,old,yellow,1978.7443295996636,None,1978.7443295996636,None,6,0.3350982004776597,1978.7443295996636,None,0.3350982004776597,1979.1141069000587,None,1979.6244393996894,None,1979.6244393996894,None,r,0.23112419992685318,1979.6244393996894,None,0.23112419992685318,,,87 Sing,001,2022_Nov_17_1536,ProdSingRedoBetween,2021.2.3,60.212671035078976,
,,,,140,0,140,0,,,,,,,,,,,,,,,,,,,,,,1981.5592708997428,None,,,,,,,,,,,,,,,,,atmosphere,87,141,sing,old,red,1980.3843069002032,None,1980.3843069002032,None,6,0.30320269986987114,1980.3843069002032,None,0.30320269986987114,1980.7112934002653,None,1981.2262046998367,None,1981.2262046998367,None,r,0.30936740059405565,1981.2262046998367,None,0.30936740059405565,,,87 Sing,001,2022_Nov_17_1536,ProdSingRedoBetween,2021.2.3,60.212671035078976,
,,,,141,0,141,0,,,,,,,,,,,,,,,,,,,,,,1983.2947783004493,None,,,,,,,,,,,,,,,,,sight,155,142,sing,new,null,1982.072485900484,None,1982.072485900484,None,6,0.3109750999137759,1982.072485900484,None,0.3109750999137759,1982.4113931003958,None,1982.9107109997422,None,1982.9107109997422,None,r,0.36084930039942265,1982.9107109997422,None,0.36084930039942265,,,87 Sing,001,2022_Nov_17_1536,ProdSingRedoBetween,2021.2.3,60.212671035078976,
,,,,142,0,142,0,,,,,,,,,,,,,,,,,,,,,,1984.8637562999502,None,,,,,,,,,,,,,,,,,cover,142,143,sing,new,null,1983.8103587003425,None,1983.8103587003425,None,6,0.22122709918767214,1983.8103587003425,None,0.22122709918767214,1984.0682118004188,None,1984.580357200466,None,1984.580357200466,None,r,0.25124269910156727,1984.580357200466,None,0.25124269910156727,,,87 Sing,001,2022_Nov_17_1536,ProdSingRedoBetween,2021.2.3,60.212671035078976,
,,,,143,0,143,0,,,,,,,,,,,,,,,,,,,,,,1986.3477178998291,None,,,,,,,,,,,,,,,,,disease,83,144,sing,old,red,1985.3687629001215,None,1985.3687629001215,None,6,0.14272550027817488,1985.3687629001215,None,0.14272550027817488,1985.5315527999774,None,1986.0355679998174,None,1986.0355679998174,None,r,0.2839064998552203,1986.0355679998174,None,0.2839064998552203,,,87 Sing,001,2022_Nov_17_1536,ProdSingRedoBetween,2021.2.3,60.212671035078976,
,,,,144,0,144,0,,,,,,,,,,,,,,,,,,,,,,1988.0325386999175,None,,,,,,,,,,,,,,,,,meeting,1,145,sing,old,yellow,1986.850887699984,None,1986.850887699984,None,6,0.2125809993594885,1986.850887699984,None,0.2125809993594885,1987.085273399949,None,1987.6023770002648,None,1987.6023770002648,None,r,0.40533730015158653,1987.6023770002648,None,0.40533730015158653,,,87 Sing,001,2022_Nov_17_1536,ProdSingRedoBetween,2021.2.3,60.212671035078976,
,,,,145,0,145,0,,,,,,,,,,,,,,,,,,,,,,1990.1680167997256,None,,,,,,,,,,,,,,,,,gesture,141,146,sing,new,null,1988.5418878998607,None,1988.5418878998607,None,6,0.3296544998884201,1988.5418878998607,None,0.3296544998884201,1988.903532200493,None,1989.4171187998727,None,1989.4171187998727,None,r,0.7264340007677674,1989.4171187998727,None,0.7264340007677674,,,87 Sing,001,2022_Nov_17_1536,ProdSingRedoBetween,2021.2.3,60.212671035078976,
,,,,146,0,146,0,,,,,,,,,,,,,,,,,,,,,,1991.9364347001538,None,,,,,,,,,,,,,,,,,narrow,98,147,sing,new,null,1990.676832200028,None,1990.676832200028,None,6,0.33055630046874285,1990.676832200028,None,0.33055630046874285,1991.0366219999269,None,1991.5415743999183,None,1991.5415743999183,None,r,0.3700003996491432,1991.5415743999183,None,0.3700003996491432,,,87 Sing,001,2022_Nov_17_1536,ProdSingRedoBetween,2021.2.3,60.212671035078976,
,,,,147,0,147,0,,,,,,,,,,,,,,,,,,,,,,1993.5713935997337,None,,,,,,,,,,,,,,,,,contract,90,148,sing,new,null,1992.4434104999527,None,1992.4434104999527,None,6,0.28415700048208237,1992.4434104999527,None,0.28415700048208237,1992.7557663004845,None,1993.2711276998743,None,1993.2711276998743,None,r,0.2723709000274539,1993.2711276998743,None,0.2723709000274539,,,87 Sing,001,2022_Nov_17_1536,ProdSingRedoBetween,2021.2.3,60.212671035078976,
,,,,148,0,148,0,,,,,,,,,,,,,,,,,,,,,,1995.2083735996857,None,,,,,,,,,,,,,,,,,exchange,115,149,sing,new,null,1994.0846440996975,None,1994.0846440996975,None,6,0.3228641003370285,1994.0846440996975,None,0.3228641003370285,1994.426406700164,None,1994.9420961001888,None,1994.9420961001888,None,r,0.24139759968966246,1994.9420961001888,None,0.24139759968966246,,,87 Sing,001,2022_Nov_17_1536,ProdSingRedoBetween,2021.2.3,60.212671035078976,
,,,,149,0,149,0,,,,,,,,,,,,,,,,,,,,,,1997.0915978997946,None,,,,,,,,,,,,,,,,,theme,22,150,sing,old,yellow,1995.7283322000876,None,1995.7283322000876,None,6,0.31924139987677336,1995.7283322000876,None,0.31924139987677336,1996.0766671001911,None,1996.5912969997153,None,1996.5912969997153,None,r,0.4801746001467109,1996.5912969997153,None,0.4801746001467109,,,87 Sing,001,2022_Nov_17_1536,ProdSingRedoBetween,2021.2.3,60.212671035078976,
,,,,150,0,150,0,,,,,,,,,,,,,,,,,,,,,,1998.7263508997858,None,,,,,,,,,,,,,,,,,discussion,102,151,sing,new,null,1997.5988125996664,None,1997.5988125996664,None,6,0.2967565003782511,1997.5988125996664,None,0.2967565003782511,1997.927403899841,None,1998.433749999851,None,1998.433749999851,None,r,0.27777190040796995,1998.433749999851,None,0.27777190040796995,,,87 Sing,001,2022_Nov_17_1536,ProdSingRedoBetween,2021.2.3,60.212671035078976,
,,,,151,0,151,0,,,,,,,,,,,,,,,,,,,,,,2000.3782126996666,None,,,,,,,,,,,,,,,,,government,129,152,sing,new,null,1999.231628600508,None,1999.231628600508,None,6,0.29586249962449074,1999.231628600508,None,0.29586249962449074,1999.5491343000904,None,2000.0689524998888,None,2000.0689524998888,None,r,0.29070420004427433,2000.0689524998888,None,0.29070420004427433,,,87 Sing,001,2022_Nov_17_1536,ProdSingRedoBetween,2021.2.3,60.212671035078976,
,,,,152,0,152,0,,,,,,,,,,,,,,,,,,,,,,2002.03007410001,None,,,,,,,,,,,,,,,,,straight,169,153,sing,new,null,2000.8823669003323,None,2000.8823669003323,None,6,0.30098980013281107,2000.8823669003323,None,0.30098980013281107,2001.2163441004232,None,2001.7299370998517,None,2001.7299370998517,None,r,0.2694087000563741,2001.7299370998517,None,0.2694087000563741,,,87 Sing,001,2022_Nov_17_1536,ProdSingRedoBetween,2021.2.3,60.212671035078976,
,,,,153,0,153,0,,,,,,,,,,,,,,,,,,,,,,2003.6314401999116,None,,,,,,,,,,,,,,,,,century,113,154,sing,new,null,2002.5340865002945,None,2002.5340865002945,None,6,0.24924430064857006,2002.5340865002945,None,0.24924430064857006,2002.8213148005307,None,2003.3381206998602,None,2003.3381206998602,None,r,0.2694020997732878,2003.3381206998602,None,0.2694020997732878,,,87 Sing,001,2022_Nov_17_1536,ProdSingRedoBetween,2021.2.3,60.212671035078976,
,,,,154,0,154,0,,,,,,,,,,,,,,,,,,,,,,2005.299464800395,None,,,,,,,,,,,,,,,,,capital,69,155,sing,old,red,2004.1414160002023,None,2004.1414160002023,None,6,0.27418529987335205,2004.1414160002023,None,0.27418529987335205,2004.4350990001112,None,2004.9540705000982,None,2004.9540705000982,None,r,0.31728329975157976,2004.9540705000982,None,0.31728329975157976,,,87 Sing,001,2022_Nov_17_1536,ProdSingRedoBetween,2021.2.3,60.212671035078976,
,,,,155,0,155,0,,,,,,,,,,,,,,,,,,,,,,2007.3017806001008,None,,,,,,,,,,,,,,,,,search,127,156,sing,new,null,2005.8042908003554,None,2005.8042908003554,None,6,0.4191393004730344,2005.8042908003554,None,0.4191393004730344,2006.2507924996316,None,2006.7511029001325,None,2006.7511029001325,None,r,0.5202931994572282,2006.7511029001325,None,0.5202931994572282,,,87 Sing,001,2022_Nov_17_1536,ProdSingRedoBetween,2021.2.3,60.212671035078976,
,,,,156,0,156,0,,,,,,,,,,,,,,,,,,,,,,2009.0534341996536,None,,,,,,,,,,,,,,,,,fashion,46,157,sing,old,blue,2007.8104838002473,None,2007.8104838002473,None,6,0.23703510034829378,2007.8104838002473,None,0.23703510034829378,2008.0770421000198,None,2008.5865088002756,None,2008.5865088002756,None,r,0.43712690006941557,2008.5865088002756,None,0.43712690006941557,,,87 Sing,001,2022_Nov_17_1536,ProdSingRedoBetween,2021.2.3,60.212671035078976,
,,,,157,0,157,0,,,,,,,,,,,,,,,,,,,,,,2010.821704200469,None,,,,,,,,,,,,,,,,,grade,48,158,sing,old,blue,2009.5542118996382,None,2009.5542118996382,None,6,0.17336540017277002,2009.5542118996382,None,0.17336540017277002,2009.754884400405,None,2010.2559139002115,None,2010.2559139002115,None,r,0.5435429997742176,2010.2559139002115,None,0.5435429997742176,,,87 Sing,001,2022_Nov_17_1536,ProdSingRedoBetween,2021.2.3,60.212671035078976,
,,,,158,0,158,0,,,,,,,,,,,,,,,,,,,,,,2012.6237348997965,None,,,,,,,,,,,,,,,,,series,49,159,sing,old,blue,2011.3317162003368,None,2011.3317162003368,None,6,0.39570319931954145,2011.3317162003368,None,0.39570319931954145,2011.7581380000338,None,2012.2755247000605,None,2012.2755247000605,None,r,0.32389350049197674,2012.2755247000605,None,0.32389350049197674,,,87 Sing,001,2022_Nov_17_1536,ProdSingRedoBetween,2021.2.3,60.212671035078976,
,,,,159,0,159,0,,,,,,,,,,,,,,,,,,,,,,2014.5590701000765,None,,,,,,,,,,,,,,,,,business,134,160,sing,new,null,2013.1268680999056,None,2013.1268680999056,None,6,0.536544599570334,2013.1268680999056,None,0.536544599570334,2013.6943829003721,None,2014.2138208001852,None,2014.2138208001852,None,r,0.32959899958223104,2014.2138208001852,None,0.32959899958223104,,,87 Sing,001,2022_Nov_17_1536,ProdSingRedoBetween,2021.2.3,60.212671035078976,
,,,,160,0,160,0,,,,,,,,,,,,,,,,,,,,,,2016.2940734000877,None,,,,,,,,,,,,,,,,,rapid,157,161,sing,new,null,2015.0657307999209,None,2015.0657307999209,None,6,0.3177968002855778,2015.0657307999209,None,0.3177968002855778,2015.4113264000043,None,2015.9156561000273,None,2015.9156561000273,None,r,0.35579369962215424,2015.9156561000273,None,0.35579369962215424,,,87 Sing,001,2022_Nov_17_1536,ProdSingRedoBetween,2021.2.3,60.212671035078976,
,,,,161,0,161,0,,,,,,,,,,,,,,,,,,,,,,2018.0625096997246,None,,,,,,,,,,,,,,,,,school,149,162,sing,new,null,2016.804407699965,None,2016.804407699965,None,6,0.38707289937883615,2016.804407699965,None,0.38707289937883615,2017.215399400331,None,2017.7325387997553,None,2017.7325387997553,None,r,0.30680879950523376,2017.7325387997553,None,0.30680879950523376,,,87 Sing,001,2022_Nov_17_1536,ProdSingRedoBetween,2021.2.3,60.212671035078976,
,,,,162,0,162,0,,,,,,,,,,,,,,,,,,,,,,2019.7179589001462,None,,,,,,,,,,,,,,,,,education,26,163,sing,old,yellow,2018.5631074002013,None,2018.5631074002013,None,6,0.2922610007226467,2018.5631074002013,None,0.2922610007226467,2018.8840701002628,None,2019.3973658997566,None,2019.3973658997566,None,r,0.2982369000092149,2019.3973658997566,None,0.2982369000092149,,,87 Sing,001,2022_Nov_17_1536,ProdSingRedoBetween,2021.2.3,60.212671035078976,
,,,,163,0,163,0,,,,,,,,,,,,,,,,,,,,,,2021.4864851003513,None,,,,,,,,,,,,,,,,,pancakes,106,164,sing,new,null,2020.235700700432,None,2020.235700700432,None,6,0.30773939937353134,2020.235700700432,None,0.30773939937353134,2020.5677151000127,None,2021.0953924003989,None,2021.0953924003989,None,r,0.36807020008563995,2021.0953924003989,None,0.36807020008563995,,,87 Sing,001,2022_Nov_17_1536,ProdSingRedoBetween,2021.2.3,60.212671035078976,
,,,,164,0,164,0,,,,,,,,,,,,,,,,,,,,,,2023.417958999984,None,,,,,,,,,,,,,,,,,interview,151,165,sing,new,null,2022.0032615000382,None,2022.0032615000382,None,6,0.2762706996873021,2022.0032615000382,None,0.2762706996873021,2022.3060149000958,None,2022.8271222002804,None,2022.8271222002804,None,r,0.5642794007435441,2022.8271222002804,None,0.5642794007435441,,,87 Sing,001,2022_Nov_17_1536,ProdSingRedoBetween,2021.2.3,60.212671035078976,
,,,,165,0,165,0,,,,,,,,,,,,,,,,,,,,,,2025.4196910001338,None,,,,,,,,,,,,,,,,,quarter,107,166,sing,new,null,2023.9259416004643,None,2023.9259416004643,None,6,0.5535951005294919,2023.9259416004643,None,0.5535951005294919,2024.514818300493,None,2025.0273603005335,None,2025.0273603005335,None,r,0.36416950076818466,2025.0273603005335,None,0.36416950076818466,,,87 Sing,001,2022_Nov_17_1536,ProdSingRedoBetween,2021.2.3,60.212671035078976,
,,,,166,0,166,0,,,,,,,,,,,,,,,,,,,,,,2027.2383391996846,None,,,,,,,,,,,,,,,,,entrance,89,167,sing,old,red,2025.9233598997816,None,2025.9233598997816,None,6,0.46819480042904615,2025.9233598997816,None,0.46819480042904615,2026.431240499951,None,2026.9381991997361,None,2026.9381991997361,None,r,0.28532310016453266,2026.9381991997361,None,0.28532310016453266,,,87 Sing,001,2022_Nov_17_1536,ProdSingRedoBetween,2021.2.3,60.212671035078976,
,,,,167,0,167,0,,,,,,,,,,,,,,,,,,,,,,2028.8065799996257,None,,,,,,,,,,,,,,,,,author,103,168,sing,new,null,2027.7390331998467,None,2027.7390331998467,None,6,0.29248160030692816,2027.7390331998467,None,0.29248160030692816,2028.055841700174,None,2028.5681854002178,None,2028.5681854002178,None,r,0.2151980996131897,2028.5681854002178,None,0.2151980996131897,,,87 Sing,001,2022_Nov_17_1536,ProdSingRedoBetween,2021.2.3,60.212671035078976,
,,,,168,0,168,0,,,,,,,,,,,,,,,,,,,,,,2030.4590944005176,None,,,,,,,,,,,,,,,,,quiet,176,169,sing,new,null,2029.3133557001129,None,2029.3133557001129,None,6,0.2940675998106599,2029.3133557001129,None,0.2940675998106599,2029.6253955997527,None,2030.1291807005182,None,2030.1291807005182,None,r,0.31030619982630014,2030.1291807005182,None,0.31030619982630014,,,87 Sing,001,2022_Nov_17_1536,ProdSingRedoBetween,2021.2.3,60.212671035078976,
,,,,169,0,169,0,,,,,,,,,,,,,,,,,,,,,,2032.2266135001555,None,,,,,,,,,,,,,,,,,council,174,170,sing,new,null,2030.9666999001056,None,2030.9666999001056,None,6,0.5047158002853394,2030.9666999001056,None,0.5047158002853394,2031.4952837005258,None,2032.0098353996873,None,2032.0098353996873,None,r,0.19762759935110807,2032.0098353996873,None,0.19762759935110807,,,87 Sing,001,2022_Nov_17_1536,ProdSingRedoBetween,2021.2.3,60.212671035078976,
,,,,170,0,170,0,,,,,,,,,,,,,,,,,,,,,,2033.8782852999866,None,,,,,,,,,,,,,,,,,charter,57,171,sing,old,blue,2032.7288434002548,None,2032.7288434002548,None,6,0.29455080069601536,2032.7288434002548,None,0.29455080069601536,2033.0453661996871,None,2033.5447538997978,None,2033.5447538997978,None,r,0.31879230029881,2033.5447538997978,None,0.31879230029881,,,87 Sing,001,2022_Nov_17_1536,ProdSingRedoBetween,2021.2.3,60.212671035078976,
,,,,171,0,171,0,,,,,,,,,,,,,,,,,,,,,,2036.0316030001268,None,,,,,,,,,,,,,,,,,strain,173,172,sing,new,null,2034.3858457002789,None,2034.3858457002789,None,6,0.7734496993944049,2034.3858457002789,None,0.7734496993944049,2035.1973195001483,None,2035.6966273998842,None,2035.6966273998842,None,r,0.3106647003442049,2035.6966273998842,None,0.3106647003442049,,,87 Sing,001,2022_Nov_17_1536,ProdSingRedoBetween,2021.2.3,60.212671035078976,
,,,,172,0,172,0,,,,,,,,,,,,,,,,,,,,,,2037.6320686005056,None,,,,,,,,,,,,,,,,,private,14,173,sing,old,yellow,2036.5312435002998,None,2036.5312435002998,None,6,0.3400791995227337,2036.5312435002998,None,0.3400791995227337,2036.9048744998872,None,2037.4211066002026,None,2037.4211066002026,None,r,0.19428900070488453,2037.4211066002026,None,0.19428900070488453,,,87 Sing,001,2022_Nov_17_1536,ProdSingRedoBetween,2021.2.3,60.212671035078976,
,,,,173,0,173,0,,,,,,,,,,,,,,,,,,,,,,2039.2001304002479,None,,,,,,,,,,,,,,,,,degree,28,174,sing,old,yellow,2038.1413561003283,None,2038.1413561003283,None,6,0.2979798996821046,2038.1413561003283,None,0.2979798996821046,2038.4683924997225,None,2038.9857181003317,None,2038.9857181003317,None,r,0.1896706996485591,2038.9857181003317,None,0.1896706996485591,,,87 Sing,001,2022_Nov_17_1536,ProdSingRedoBetween,2021.2.3,60.212671035078976,
,,,,174,0,174,0,,,,,,,,,,,,,,,,,,,,,,2040.753971000202,None,,,,,,,,,,,,,,,,,native,4,175,sing,old,yellow,2039.7089283000678,None,2039.7089283000678,None,6,0.2665550000965595,2039.7089283000678,None,0.2665550000965595,2040.0052795000374,None,2040.5183856002986,None,2040.5183856002986,None,r,0.20900440029799938,2040.5183856002986,None,0.20900440029799938,,,87 Sing,001,2022_Nov_17_1536,ProdSingRedoBetween,2021.2.3,60.212671035078976,
