StudyLoop.thisRepN,StudyLoop.thisTrialN,StudyLoop.thisN,StudyLoop.thisIndex,TestLoop.thisRepN,TestLoop.thisTrialN,TestLoop.thisN,TestLoop.thisIndex,textCondition.started,textCondition.stopped,keyCondition.keys,keyCondition.rt,keyCondition.started,keyCondition.stopped,Condition,textWelcome.started,textWelcome.stopped,keyWelcome.keys,keyWelcome.rt,keyWelcome.started,keyWelcome.stopped,textAloud.started,textAloud.stopped,textSilent.started,textSilent.stopped,textSing.started,textSing.stopped,conditional_text.started,conditional_text.stopped,textBlank500.started,textBlank500.stopped,study_word,study_num,study_order,study_type,word_color,textStudy.started,textStudy.stopped,keyStudy.keys,keyStudy.started,keyStudy.stopped,textTestInstructions.started,textTestInstructions.stopped,key_resp_3.keys,key_resp_3.rt,key_resp_3.started,key_resp_3.stopped,test_word,test_num,test_order,test_condition,old_new_test,test_word_original_color,textConf.started,textConf.stopped,textConfScale.started,textConfScale.stopped,keyConf.keys,keyConf.rt,keyConf.started,keyConf.stopped,confidence response time,textTestBlank.started,textTestBlank.stopped,textRKN.started,textRKN.stopped,textRKNScale.started,textRKNScale.stopped,keyRKN.keys,keyRKN.rt,keyRKN.started,keyRKN.stopped,rkn response time,textEnd.started,textEnd.stopped,participant,session,date,expName,psychopyVersion,frameRate
,,,,,,,,23.126661,None,a,136.0751429,23.126661,None,,,,,,,,,,,,,,,,,,,,,,,,,,,,,,,,,,,,,,,,,,,,,,,,,,,,,,,,,,,,,,Nov18Silent3,88,2022_Nov_18_1527,ProdSingRedoBetween,2021.2.3,59.94553348
,,,,,,,,,,,,,,SilentTest,159.2416918,None,space,4.328085,159.2416918,None,,,,,,,,,,,,,,,,,,,,,,,,,,,,,,,,,,,,,,,,,,,,,,,,,,,,,,,Nov18Silent3,88,2022_Nov_18_1527,ProdSingRedoBetween,2021.2.3,59.94553348
0,0,0,0,,,,,,,,,,,,,,,,,,159.2416918,None,159.2416918,None,159.2416918,None,159.2416918,None,166.1184107,None,object,54,1,silent,blue,164.103451,None,None,164.103451,None,,,,,,,,,,,,,,,,,,,,,,,,,,,,,,,,,,,Nov18Silent3,88,2022_Nov_18_1527,ProdSingRedoBetween,2021.2.3,59.94553348
1,0,1,0,,,,,,,,,,,,,,,,,,,,,,,,,,168.6205799,None,engineer,52,2,silent,blue,166.6187391,None,None,166.6187391,None,,,,,,,,,,,,,,,,,,,,,,,,,,,,,,,,,,,Nov18Silent3,88,2022_Nov_18_1527,ProdSingRedoBetween,2021.2.3,59.94553348
2,0,2,0,,,,,,,,,,,,,,,,,,,,,,,,,,171.1230443,None,block,20,3,silent,yellow,169.1211441,None,None,169.1211441,None,,,,,,,,,,,,,,,,,,,,,,,,,,,,,,,,,,,Nov18Silent3,88,2022_Nov_18_1527,ProdSingRedoBetween,2021.2.3,59.94553348
3,0,3,0,,,,,,,,,,,,,,,,,,,,,,,,,,173.6255442,None,cousin,53,4,silent,blue,171.623419,None,None,171.623419,None,,,,,,,,,,,,,,,,,,,,,,,,,,,,,,,,,,,Nov18Silent3,88,2022_Nov_18_1527,ProdSingRedoBetween,2021.2.3,59.94553348
4,0,4,0,,,,,,,,,,,,,,,,,,,,,,,,,,176.1280589,None,scene,64,5,silent,red,174.126375,None,None,174.126375,None,,,,,,,,,,,,,,,,,,,,,,,,,,,,,,,,,,,Nov18Silent3,88,2022_Nov_18_1527,ProdSingRedoBetween,2021.2.3,59.94553348
5,0,5,0,,,,,,,,,,,,,,,,,,,,,,,,,,178.6307718,None,solution,51,6,silent,blue,176.6287319,None,None,176.6287319,None,,,,,,,,,,,,,,,,,,,,,,,,,,,,,,,,,,,Nov18Silent3,88,2022_Nov_18_1527,ProdSingRedoBetween,2021.2.3,59.94553348
6,0,6,0,,,,,,,,,,,,,,,,,,,,,,,,,,181.1331219,None,match,24,7,silent,yellow,179.1312013,None,None,179.1312013,None,,,,,,,,,,,,,,,,,,,,,,,,,,,,,,,,,,,Nov18Silent3,88,2022_Nov_18_1527,ProdSingRedoBetween,2021.2.3,59.94553348
7,0,7,0,,,,,,,,,,,,,,,,,,,,,,,,,,183.6356802,None,tennis,72,8,silent,red,181.6335695,None,None,181.6335695,None,,,,,,,,,,,,,,,,,,,,,,,,,,,,,,,,,,,Nov18Silent3,88,2022_Nov_18_1527,ProdSingRedoBetween,2021.2.3,59.94553348
8,0,8,0,,,,,,,,,,,,,,,,,,,,,,,,,,186.1380216,None,finish,39,9,silent,blue,184.1361621,None,None,184.1361621,None,,,,,,,,,,,,,,,,,,,,,,,,,,,,,,,,,,,Nov18Silent3,88,2022_Nov_18_1527,ProdSingRedoBetween,2021.2.3,59.94553348
9,0,9,0,,,,,,,,,,,,,,,,,,,,,,,,,,188.6407306,None,heavy,19,10,silent,yellow,186.6385462,None,None,186.6385462,None,,,,,,,,,,,,,,,,,,,,,,,,,,,,,,,,,,,Nov18Silent3,88,2022_Nov_18_1527,ProdSingRedoBetween,2021.2.3,59.94553348
10,0,10,0,,,,,,,,,,,,,,,,,,,,,,,,,,191.1431153,None,community,33,11,silent,blue,189.1411033,None,None,189.1411033,None,,,,,,,,,,,,,,,,,,,,,,,,,,,,,,,,,,,Nov18Silent3,88,2022_Nov_18_1527,ProdSingRedoBetween,2021.2.3,59.94553348
11,0,11,0,,,,,,,,,,,,,,,,,,,,,,,,,,193.6456496,None,music,12,12,silent,yellow,191.6436352,None,None,191.6436352,None,,,,,,,,,,,,,,,,,,,,,,,,,,,,,,,,,,,Nov18Silent3,88,2022_Nov_18_1527,ProdSingRedoBetween,2021.2.3,59.94553348
12,0,12,0,,,,,,,,,,,,,,,,,,,,,,,,,,196.1481967,None,interior,2,13,silent,yellow,194.1463909,None,None,194.1463909,None,,,,,,,,,,,,,,,,,,,,,,,,,,,,,,,,,,,Nov18Silent3,88,2022_Nov_18_1527,ProdSingRedoBetween,2021.2.3,59.94553348
13,0,13,0,,,,,,,,,,,,,,,,,,,,,,,,,,198.6508176,None,narrow,21,14,silent,yellow,196.6486981,None,None,196.6486981,None,,,,,,,,,,,,,,,,,,,,,,,,,,,,,,,,,,,Nov18Silent3,88,2022_Nov_18_1527,ProdSingRedoBetween,2021.2.3,59.94553348
14,0,14,0,,,,,,,,,,,,,,,,,,,,,,,,,,201.1532076,None,marriage,71,15,silent,red,199.1512194,None,None,199.1512194,None,,,,,,,,,,,,,,,,,,,,,,,,,,,,,,,,,,,Nov18Silent3,88,2022_Nov_18_1527,ProdSingRedoBetween,2021.2.3,59.94553348
15,0,15,0,,,,,,,,,,,,,,,,,,,,,,,,,,203.6556495,None,service,7,16,silent,yellow,201.6538559,None,None,201.6538559,None,,,,,,,,,,,,,,,,,,,,,,,,,,,,,,,,,,,Nov18Silent3,88,2022_Nov_18_1527,ProdSingRedoBetween,2021.2.3,59.94553348
16,0,16,0,,,,,,,,,,,,,,,,,,,,,,,,,,206.1579771,None,breath,49,17,silent,blue,204.156154,None,None,204.156154,None,,,,,,,,,,,,,,,,,,,,,,,,,,,,,,,,,,,Nov18Silent3,88,2022_Nov_18_1527,ProdSingRedoBetween,2021.2.3,59.94553348
17,0,17,0,,,,,,,,,,,,,,,,,,,,,,,,,,208.660569,None,brilliant,30,18,silent,blue,206.6584744,None,None,206.6584744,None,,,,,,,,,,,,,,,,,,,,,,,,,,,,,,,,,,,Nov18Silent3,88,2022_Nov_18_1527,ProdSingRedoBetween,2021.2.3,59.94553348
18,0,18,0,,,,,,,,,,,,,,,,,,,,,,,,,,211.1634121,None,spoke,10,19,silent,yellow,209.1611034,None,None,209.1611034,None,,,,,,,,,,,,,,,,,,,,,,,,,,,,,,,,,,,Nov18Silent3,88,2022_Nov_18_1527,ProdSingRedoBetween,2021.2.3,59.94553348
19,0,19,0,,,,,,,,,,,,,,,,,,,,,,,,,,213.6822079,None,straight,59,20,silent,yellow,211.6680763,None,None,211.6680763,None,,,,,,,,,,,,,,,,,,,,,,,,,,,,,,,,,,,Nov18Silent3,88,2022_Nov_18_1527,ProdSingRedoBetween,2021.2.3,59.94553348
20,0,20,0,,,,,,,,,,,,,,,,,,,,,,,,,,216.2016223,None,expansion,84,21,silent,red,214.1865532,None,None,214.1865532,None,,,,,,,,,,,,,,,,,,,,,,,,,,,,,,,,,,,Nov18Silent3,88,2022_Nov_18_1527,ProdSingRedoBetween,2021.2.3,59.94553348
21,0,21,0,,,,,,,,,,,,,,,,,,,,,,,,,,218.704247,None,bureau,89,22,silent,red,216.704548,None,None,216.704548,None,,,,,,,,,,,,,,,,,,,,,,,,,,,,,,,,,,,Nov18Silent3,88,2022_Nov_18_1527,ProdSingRedoBetween,2021.2.3,59.94553348
22,0,22,0,,,,,,,,,,,,,,,,,,,,,,,,,,221.2066504,None,character,25,23,silent,yellow,219.2045421,None,None,219.2045421,None,,,,,,,,,,,,,,,,,,,,,,,,,,,,,,,,,,,Nov18Silent3,88,2022_Nov_18_1527,ProdSingRedoBetween,2021.2.3,59.94553348
23,0,23,0,,,,,,,,,,,,,,,,,,,,,,,,,,223.7258718,None,instrument,37,24,silent,blue,221.7112005,None,None,221.7112005,None,,,,,,,,,,,,,,,,,,,,,,,,,,,,,,,,,,,Nov18Silent3,88,2022_Nov_18_1527,ProdSingRedoBetween,2021.2.3,59.94553348
24,0,24,0,,,,,,,,,,,,,,,,,,,,,,,,,,226.2449392,None,right,31,25,silent,blue,224.2315556,None,None,224.2315556,None,,,,,,,,,,,,,,,,,,,,,,,,,,,,,,,,,,,Nov18Silent3,88,2022_Nov_18_1527,ProdSingRedoBetween,2021.2.3,59.94553348
25,0,25,0,,,,,,,,,,,,,,,,,,,,,,,,,,228.7642086,None,article,56,26,silent,blue,226.7488919,None,None,226.7488919,None,,,,,,,,,,,,,,,,,,,,,,,,,,,,,,,,,,,Nov18Silent3,88,2022_Nov_18_1527,ProdSingRedoBetween,2021.2.3,59.94553348
26,0,26,0,,,,,,,,,,,,,,,,,,,,,,,,,,231.2667,None,congress,29,27,silent,blue,229.2647505,None,None,229.2647505,None,,,,,,,,,,,,,,,,,,,,,,,,,,,,,,,,,,,Nov18Silent3,88,2022_Nov_18_1527,ProdSingRedoBetween,2021.2.3,59.94553348
27,0,27,0,,,,,,,,,,,,,,,,,,,,,,,,,,233.7692144,None,carry,78,28,silent,red,231.7671638,None,None,231.7671638,None,,,,,,,,,,,,,,,,,,,,,,,,,,,,,,,,,,,Nov18Silent3,88,2022_Nov_18_1527,ProdSingRedoBetween,2021.2.3,59.94553348
28,0,28,0,,,,,,,,,,,,,,,,,,,,,,,,,,236.2717196,None,entrance,8,29,silent,yellow,234.271561,None,None,234.271561,None,,,,,,,,,,,,,,,,,,,,,,,,,,,,,,,,,,,Nov18Silent3,88,2022_Nov_18_1527,ProdSingRedoBetween,2021.2.3,59.94553348
29,0,29,0,,,,,,,,,,,,,,,,,,,,,,,,,,238.7741019,None,testimony,50,30,silent,blue,236.7751617,None,None,236.7751617,None,,,,,,,,,,,,,,,,,,,,,,,,,,,,,,,,,,,Nov18Silent3,88,2022_Nov_18_1527,ProdSingRedoBetween,2021.2.3,59.94553348
30,0,30,0,,,,,,,,,,,,,,,,,,,,,,,,,,241.2765776,None,commercial,66,31,silent,red,239.2763508,None,None,239.2763508,None,,,,,,,,,,,,,,,,,,,,,,,,,,,,,,,,,,,Nov18Silent3,88,2022_Nov_18_1527,ProdSingRedoBetween,2021.2.3,59.94553348
31,0,31,0,,,,,,,,,,,,,,,,,,,,,,,,,,243.7792448,None,cross,60,32,silent,red,241.77716,None,None,241.77716,None,,,,,,,,,,,,,,,,,,,,,,,,,,,,,,,,,,,Nov18Silent3,88,2022_Nov_18_1527,ProdSingRedoBetween,2021.2.3,59.94553348
32,0,32,0,,,,,,,,,,,,,,,,,,,,,,,,,,246.2983287,None,pattern,58,33,silent,blue,244.2910893,None,None,244.2910893,None,,,,,,,,,,,,,,,,,,,,,,,,,,,,,,,,,,,Nov18Silent3,88,2022_Nov_18_1527,ProdSingRedoBetween,2021.2.3,59.94553348
33,0,33,0,,,,,,,,,,,,,,,,,,,,,,,,,,248.8008505,None,write,46,34,silent,blue,246.8003525,None,None,246.8003525,None,,,,,,,,,,,,,,,,,,,,,,,,,,,,,,,,,,,Nov18Silent3,88,2022_Nov_18_1527,ProdSingRedoBetween,2021.2.3,59.94553348
34,0,34,0,,,,,,,,,,,,,,,,,,,,,,,,,,251.3200138,None,discovery,43,35,silent,blue,249.3081197,None,None,249.3081197,None,,,,,,,,,,,,,,,,,,,,,,,,,,,,,,,,,,,Nov18Silent3,88,2022_Nov_18_1527,ProdSingRedoBetween,2021.2.3,59.94553348
35,0,35,0,,,,,,,,,,,,,,,,,,,,,,,,,,253.8225121,None,impact,14,36,silent,yellow,251.8205007,None,None,251.8205007,None,,,,,,,,,,,,,,,,,,,,,,,,,,,,,,,,,,,Nov18Silent3,88,2022_Nov_18_1527,ProdSingRedoBetween,2021.2.3,59.94553348
36,0,36,0,,,,,,,,,,,,,,,,,,,,,,,,,,256.3249364,None,place,6,37,silent,yellow,254.3230445,None,None,254.3230445,None,,,,,,,,,,,,,,,,,,,,,,,,,,,,,,,,,,,Nov18Silent3,88,2022_Nov_18_1527,ProdSingRedoBetween,2021.2.3,59.94553348
37,0,37,0,,,,,,,,,,,,,,,,,,,,,,,,,,258.8441774,None,crisis,41,38,silent,blue,256.8290797,None,None,256.8290797,None,,,,,,,,,,,,,,,,,,,,,,,,,,,,,,,,,,,Nov18Silent3,88,2022_Nov_18_1527,ProdSingRedoBetween,2021.2.3,59.94553348
38,0,38,0,,,,,,,,,,,,,,,,,,,,,,,,,,261.3467053,None,style,22,39,silent,yellow,259.3451059,None,None,259.3451059,None,,,,,,,,,,,,,,,,,,,,,,,,,,,,,,,,,,,Nov18Silent3,88,2022_Nov_18_1527,ProdSingRedoBetween,2021.2.3,59.94553348
39,0,39,0,,,,,,,,,,,,,,,,,,,,,,,,,,263.8655646,None,corner,47,40,silent,blue,261.8508674,None,None,261.8508674,None,,,,,,,,,,,,,,,,,,,,,,,,,,,,,,,,,,,Nov18Silent3,88,2022_Nov_18_1527,ProdSingRedoBetween,2021.2.3,59.94553348
40,0,40,0,,,,,,,,,,,,,,,,,,,,,,,,,,266.3684802,None,literature,13,41,silent,yellow,264.3661887,None,None,264.3661887,None,,,,,,,,,,,,,,,,,,,,,,,,,,,,,,,,,,,Nov18Silent3,88,2022_Nov_18_1527,ProdSingRedoBetween,2021.2.3,59.94553348
41,0,41,0,,,,,,,,,,,,,,,,,,,,,,,,,,268.8875784,None,substance,80,42,silent,red,266.8740299,None,None,266.8740299,None,,,,,,,,,,,,,,,,,,,,,,,,,,,,,,,,,,,Nov18Silent3,88,2022_Nov_18_1527,ProdSingRedoBetween,2021.2.3,59.94553348
42,0,42,0,,,,,,,,,,,,,,,,,,,,,,,,,,271.3900391,None,crowd,76,43,silent,red,269.3894286,None,None,269.3894286,None,,,,,,,,,,,,,,,,,,,,,,,,,,,,,,,,,,,Nov18Silent3,88,2022_Nov_18_1527,ProdSingRedoBetween,2021.2.3,59.94553348
43,0,43,0,,,,,,,,,,,,,,,,,,,,,,,,,,273.8925193,None,edition,55,44,silent,blue,271.8905884,None,None,271.8905884,None,,,,,,,,,,,,,,,,,,,,,,,,,,,,,,,,,,,Nov18Silent3,88,2022_Nov_18_1527,ProdSingRedoBetween,2021.2.3,59.94553348
44,0,44,0,,,,,,,,,,,,,,,,,,,,,,,,,,276.3949954,None,permit,4,45,silent,yellow,274.3954426,None,None,274.3954426,None,,,,,,,,,,,,,,,,,,,,,,,,,,,,,,,,,,,Nov18Silent3,88,2022_Nov_18_1527,ProdSingRedoBetween,2021.2.3,59.94553348
45,0,45,0,,,,,,,,,,,,,,,,,,,,,,,,,,278.8974503,None,individual,62,46,silent,red,276.8955817,None,None,276.8955817,None,,,,,,,,,,,,,,,,,,,,,,,,,,,,,,,,,,,Nov18Silent3,88,2022_Nov_18_1527,ProdSingRedoBetween,2021.2.3,59.94553348
46,0,46,0,,,,,,,,,,,,,,,,,,,,,,,,,,281.4164156,None,speech,9,47,silent,yellow,279.4014901,None,None,279.4014901,None,,,,,,,,,,,,,,,,,,,,,,,,,,,,,,,,,,,Nov18Silent3,88,2022_Nov_18_1527,ProdSingRedoBetween,2021.2.3,59.94553348
47,0,47,0,,,,,,,,,,,,,,,,,,,,,,,,,,283.9191475,None,minor,1,48,silent,yellow,281.9171935,None,None,281.9171935,None,,,,,,,,,,,,,,,,,,,,,,,,,,,,,,,,,,,Nov18Silent3,88,2022_Nov_18_1527,ProdSingRedoBetween,2021.2.3,59.94553348
48,0,48,0,,,,,,,,,,,,,,,,,,,,,,,,,,286.4217002,None,gesture,28,49,silent,yellow,284.4202988,None,None,284.4202988,None,,,,,,,,,,,,,,,,,,,,,,,,,,,,,,,,,,,Nov18Silent3,88,2022_Nov_18_1527,ProdSingRedoBetween,2021.2.3,59.94553348
49,0,49,0,,,,,,,,,,,,,,,,,,,,,,,,,,288.9242466,None,budget,69,50,silent,red,286.9245123,None,None,286.9245123,None,,,,,,,,,,,,,,,,,,,,,,,,,,,,,,,,,,,Nov18Silent3,88,2022_Nov_18_1527,ProdSingRedoBetween,2021.2.3,59.94553348
50,0,50,0,,,,,,,,,,,,,,,,,,,,,,,,,,291.4428945,None,raise,18,51,silent,yellow,289.4291891,None,None,289.4291891,None,,,,,,,,,,,,,,,,,,,,,,,,,,,,,,,,,,,Nov18Silent3,88,2022_Nov_18_1527,ProdSingRedoBetween,2021.2.3,59.94553348
51,0,51,0,,,,,,,,,,,,,,,,,,,,,,,,,,293.9458696,None,household,74,52,silent,red,291.9465665,None,None,291.9465665,None,,,,,,,,,,,,,,,,,,,,,,,,,,,,,,,,,,,Nov18Silent3,88,2022_Nov_18_1527,ProdSingRedoBetween,2021.2.3,59.94553348
52,0,52,0,,,,,,,,,,,,,,,,,,,,,,,,,,296.4483398,None,sight,3,53,silent,yellow,294.4489507,None,None,294.4489507,None,,,,,,,,,,,,,,,,,,,,,,,,,,,,,,,,,,,Nov18Silent3,88,2022_Nov_18_1527,ProdSingRedoBetween,2021.2.3,59.94553348
53,0,53,0,,,,,,,,,,,,,,,,,,,,,,,,,,298.9672369,None,revolution,75,54,silent,red,296.953461,None,None,296.953461,None,,,,,,,,,,,,,,,,,,,,,,,,,,,,,,,,,,,Nov18Silent3,88,2022_Nov_18_1527,ProdSingRedoBetween,2021.2.3,59.94553348
54,0,54,0,,,,,,,,,,,,,,,,,,,,,,,,,,301.4700183,None,title,27,55,silent,yellow,299.4687583,None,None,299.4687583,None,,,,,,,,,,,,,,,,,,,,,,,,,,,,,,,,,,,Nov18Silent3,88,2022_Nov_18_1527,ProdSingRedoBetween,2021.2.3,59.94553348
55,0,55,0,,,,,,,,,,,,,,,,,,,,,,,,,,303.9725246,None,trail,83,56,silent,red,301.9720121,None,None,301.9720121,None,,,,,,,,,,,,,,,,,,,,,,,,,,,,,,,,,,,Nov18Silent3,88,2022_Nov_18_1527,ProdSingRedoBetween,2021.2.3,59.94553348
56,0,56,0,,,,,,,,,,,,,,,,,,,,,,,,,,306.4749336,None,reading,16,57,silent,yellow,304.4752669,None,None,304.4752669,None,,,,,,,,,,,,,,,,,,,,,,,,,,,,,,,,,,,Nov18Silent3,88,2022_Nov_18_1527,ProdSingRedoBetween,2021.2.3,59.94553348
57,0,57,0,,,,,,,,,,,,,,,,,,,,,,,,,,308.9943095,None,search,86,58,silent,red,306.979904,None,None,306.979904,None,,,,,,,,,,,,,,,,,,,,,,,,,,,,,,,,,,,Nov18Silent3,88,2022_Nov_18_1527,ProdSingRedoBetween,2021.2.3,59.94553348
58,0,58,0,,,,,,,,,,,,,,,,,,,,,,,,,,311.4966193,None,tough,73,59,silent,red,309.4947531,None,None,309.4947531,None,,,,,,,,,,,,,,,,,,,,,,,,,,,,,,,,,,,Nov18Silent3,88,2022_Nov_18_1527,ProdSingRedoBetween,2021.2.3,59.94553348
59,0,59,0,,,,,,,,,,,,,,,,,,,,,,,,,,314.0159317,None,appearance,35,60,silent,blue,312.0058963,None,None,312.0058963,None,,,,,,,,,,,,,,,,,,,,,,,,,,,,,,,,,,,Nov18Silent3,88,2022_Nov_18_1527,ProdSingRedoBetween,2021.2.3,59.94553348
60,0,60,0,,,,,,,,,,,,,,,,,,,,,,,,,,316.5184381,None,incident,77,61,silent,red,314.5164861,None,None,314.5164861,None,,,,,,,,,,,,,,,,,,,,,,,,,,,,,,,,,,,Nov18Silent3,88,2022_Nov_18_1527,ProdSingRedoBetween,2021.2.3,59.94553348
61,0,61,0,,,,,,,,,,,,,,,,,,,,,,,,,,319.020975,None,century,88,62,silent,red,317.0191773,None,None,317.0191773,None,,,,,,,,,,,,,,,,,,,,,,,,,,,,,,,,,,,Nov18Silent3,88,2022_Nov_18_1527,ProdSingRedoBetween,2021.2.3,59.94553348
62,0,62,0,,,,,,,,,,,,,,,,,,,,,,,,,,321.5233843,None,point,17,63,silent,yellow,319.5236743,None,None,319.5236743,None,,,,,,,,,,,,,,,,,,,,,,,,,,,,,,,,,,,Nov18Silent3,88,2022_Nov_18_1527,ProdSingRedoBetween,2021.2.3,59.94553348
63,0,63,0,,,,,,,,,,,,,,,,,,,,,,,,,,324.0426502,None,executive,36,64,silent,blue,322.0276132,None,None,322.0276132,None,,,,,,,,,,,,,,,,,,,,,,,,,,,,,,,,,,,Nov18Silent3,88,2022_Nov_18_1527,ProdSingRedoBetween,2021.2.3,59.94553348
64,0,64,0,,,,,,,,,,,,,,,,,,,,,,,,,,326.5617463,None,measure,63,65,silent,red,324.5532084,None,None,324.5532084,None,,,,,,,,,,,,,,,,,,,,,,,,,,,,,,,,,,,Nov18Silent3,88,2022_Nov_18_1527,ProdSingRedoBetween,2021.2.3,59.94553348
65,0,65,0,,,,,,,,,,,,,,,,,,,,,,,,,,329.064191,None,government,85,66,silent,red,327.0621902,None,None,327.0621902,None,,,,,,,,,,,,,,,,,,,,,,,,,,,,,,,,,,,Nov18Silent3,88,2022_Nov_18_1527,ProdSingRedoBetween,2021.2.3,59.94553348
66,0,66,0,,,,,,,,,,,,,,,,,,,,,,,,,,331.566697,None,distance,34,67,silent,blue,329.5647592,None,None,329.5647592,None,,,,,,,,,,,,,,,,,,,,,,,,,,,,,,,,,,,Nov18Silent3,88,2022_Nov_18_1527,ProdSingRedoBetween,2021.2.3,59.94553348
67,0,67,0,,,,,,,,,,,,,,,,,,,,,,,,,,334.0691387,None,count,45,68,silent,blue,332.0669632,None,None,332.0669632,None,,,,,,,,,,,,,,,,,,,,,,,,,,,,,,,,,,,Nov18Silent3,88,2022_Nov_18_1527,ProdSingRedoBetween,2021.2.3,59.94553348
68,0,68,0,,,,,,,,,,,,,,,,,,,,,,,,,,336.5717364,None,minute,81,69,silent,red,334.5694905,None,None,334.5694905,None,,,,,,,,,,,,,,,,,,,,,,,,,,,,,,,,,,,Nov18Silent3,88,2022_Nov_18_1527,ProdSingRedoBetween,2021.2.3,59.94553348
69,0,69,0,,,,,,,,,,,,,,,,,,,,,,,,,,339.0908706,None,universal,44,70,silent,blue,337.0753194,None,None,337.0753194,None,,,,,,,,,,,,,,,,,,,,,,,,,,,,,,,,,,,Nov18Silent3,88,2022_Nov_18_1527,ProdSingRedoBetween,2021.2.3,59.94553348
70,0,70,0,,,,,,,,,,,,,,,,,,,,,,,,,,341.6101019,None,election,23,71,silent,yellow,339.5955546,None,None,339.5955546,None,,,,,,,,,,,,,,,,,,,,,,,,,,,,,,,,,,,Nov18Silent3,88,2022_Nov_18_1527,ProdSingRedoBetween,2021.2.3,59.94553348
71,0,71,0,,,,,,,,,,,,,,,,,,,,,,,,,,344.1122985,None,union,32,72,silent,blue,342.1103607,None,None,342.1103607,None,,,,,,,,,,,,,,,,,,,,,,,,,,,,,,,,,,,Nov18Silent3,88,2022_Nov_18_1527,ProdSingRedoBetween,2021.2.3,59.94553348
72,0,72,0,,,,,,,,,,,,,,,,,,,,,,,,,,346.6151668,None,public,11,73,silent,yellow,344.6140462,None,None,344.6140462,None,,,,,,,,,,,,,,,,,,,,,,,,,,,,,,,,,,,Nov18Silent3,88,2022_Nov_18_1527,ProdSingRedoBetween,2021.2.3,59.94553348
73,0,73,0,,,,,,,,,,,,,,,,,,,,,,,,,,349.1176242,None,mayor,68,74,silent,red,347.1156781,None,None,347.1156781,None,,,,,,,,,,,,,,,,,,,,,,,,,,,,,,,,,,,Nov18Silent3,88,2022_Nov_18_1527,ProdSingRedoBetween,2021.2.3,59.94553348
74,0,74,0,,,,,,,,,,,,,,,,,,,,,,,,,,351.6200769,None,contract,26,75,silent,yellow,349.6201691,None,None,349.6201691,None,,,,,,,,,,,,,,,,,,,,,,,,,,,,,,,,,,,Nov18Silent3,88,2022_Nov_18_1527,ProdSingRedoBetween,2021.2.3,59.94553348
75,0,75,0,,,,,,,,,,,,,,,,,,,,,,,,,,354.1392333,None,range,40,76,silent,blue,352.1241865,None,None,352.1241865,None,,,,,,,,,,,,,,,,,,,,,,,,,,,,,,,,,,,Nov18Silent3,88,2022_Nov_18_1527,ProdSingRedoBetween,2021.2.3,59.94553348
76,0,76,0,,,,,,,,,,,,,,,,,,,,,,,,,,356.658447,None,suspect,61,77,silent,red,354.650145,None,None,354.650145,None,,,,,,,,,,,,,,,,,,,,,,,,,,,,,,,,,,,Nov18Silent3,88,2022_Nov_18_1527,ProdSingRedoBetween,2021.2.3,59.94553348
77,0,77,0,,,,,,,,,,,,,,,,,,,,,,,,,,359.1606964,None,bucket,82,78,silent,red,357.1612674,None,None,357.1612674,None,,,,,,,,,,,,,,,,,,,,,,,,,,,,,,,,,,,Nov18Silent3,88,2022_Nov_18_1527,ProdSingRedoBetween,2021.2.3,59.94553348
78,0,78,0,,,,,,,,,,,,,,,,,,,,,,,,,,361.6800015,None,command,87,79,silent,red,359.6699321,None,None,359.6699321,None,,,,,,,,,,,,,,,,,,,,,,,,,,,,,,,,,,,Nov18Silent3,88,2022_Nov_18_1527,ProdSingRedoBetween,2021.2.3,59.94553348
79,0,79,0,,,,,,,,,,,,,,,,,,,,,,,,,,364.1826904,None,color,0,80,silent,yellow,362.1813965,None,None,362.1813965,None,,,,,,,,,,,,,,,,,,,,,,,,,,,,,,,,,,,Nov18Silent3,88,2022_Nov_18_1527,ProdSingRedoBetween,2021.2.3,59.94553348
80,0,80,0,,,,,,,,,,,,,,,,,,,,,,,,,,366.685139,None,stranger,5,81,silent,yellow,364.6830665,None,None,364.6830665,None,,,,,,,,,,,,,,,,,,,,,,,,,,,,,,,,,,,Nov18Silent3,88,2022_Nov_18_1527,ProdSingRedoBetween,2021.2.3,59.94553348
81,0,81,0,,,,,,,,,,,,,,,,,,,,,,,,,,369.1876044,None,skill,57,82,silent,blue,367.1853185,None,None,367.1853185,None,,,,,,,,,,,,,,,,,,,,,,,,,,,,,,,,,,,Nov18Silent3,88,2022_Nov_18_1527,ProdSingRedoBetween,2021.2.3,59.94553348
82,0,82,0,,,,,,,,,,,,,,,,,,,,,,,,,,371.6899879,None,member,48,83,silent,blue,369.6899712,None,None,369.6899712,None,,,,,,,,,,,,,,,,,,,,,,,,,,,,,,,,,,,Nov18Silent3,88,2022_Nov_18_1527,ProdSingRedoBetween,2021.2.3,59.94553348
83,0,83,0,,,,,,,,,,,,,,,,,,,,,,,,,,374.2091603,None,agency,70,84,silent,red,372.196702,None,None,372.196702,None,,,,,,,,,,,,,,,,,,,,,,,,,,,,,,,,,,,Nov18Silent3,88,2022_Nov_18_1527,ProdSingRedoBetween,2021.2.3,59.94553348
84,0,84,0,,,,,,,,,,,,,,,,,,,,,,,,,,376.7117284,None,rural,15,85,silent,yellow,374.7097517,None,None,374.7097517,None,,,,,,,,,,,,,,,,,,,,,,,,,,,,,,,,,,,Nov18Silent3,88,2022_Nov_18_1527,ProdSingRedoBetween,2021.2.3,59.94553348
85,0,85,0,,,,,,,,,,,,,,,,,,,,,,,,,,379.2144181,None,crime,38,86,silent,blue,377.2123021,None,None,377.2123021,None,,,,,,,,,,,,,,,,,,,,,,,,,,,,,,,,,,,Nov18Silent3,88,2022_Nov_18_1527,ProdSingRedoBetween,2021.2.3,59.94553348
86,0,86,0,,,,,,,,,,,,,,,,,,,,,,,,,,381.7332411,None,guide,42,87,silent,blue,379.7192814,None,None,379.7192814,None,,,,,,,,,,,,,,,,,,,,,,,,,,,,,,,,,,,Nov18Silent3,88,2022_Nov_18_1527,ProdSingRedoBetween,2021.2.3,59.94553348
87,0,87,0,,,,,,,,,,,,,,,,,,,,,,,,,,384.235905,None,second,67,88,silent,red,382.2352576,None,None,382.2352576,None,,,,,,,,,,,,,,,,,,,,,,,,,,,,,,,,,,,Nov18Silent3,88,2022_Nov_18_1527,ProdSingRedoBetween,2021.2.3,59.94553348
88,0,88,0,,,,,,,,,,,,,,,,,,,,,,,,,,386.7383937,None,empty,65,89,silent,red,384.7367901,None,None,384.7367901,None,,,,,,,,,,,,,,,,,,,,,,,,,,,,,,,,,,,Nov18Silent3,88,2022_Nov_18_1527,ProdSingRedoBetween,2021.2.3,59.94553348
89,0,89,0,,,,,,,,,,,,,,,,,,,,,,,,,,389.2408886,None,pressure,79,90,silent,red,387.2387211,None,None,387.2387211,None,,,,,,,,,,,,,,,,,,,,,,,,,,,,,,,,,,,Nov18Silent3,88,2022_Nov_18_1527,ProdSingRedoBetween,2021.2.3,59.94553348
,,,,,,,,,,,,,,,,,,,,,,,,,,,,,,,,,,,,,,,,,389.7415998,None,k,74.5559462,389.7415998,None,,,,,,,,,,,,,,,,,,,,,,,,,,,,,Nov18Silent3,88,2022_Nov_18_1527,ProdSingRedoBetween,2021.2.3,59.94553348
,,,,0,0,0,0,,,,,,,,,,,,,,,,,,,,,,474.2756489,None,,,,,,,,,,,,,,,,,executive,36,1,silent,old,blue,464.8287622,None,464.8287622,None,6,5.3485423,464.8287622,None,5.3485423,470.2065475,None,470.7225719,None,470.7225719,None,r,3.5346921,470.7225719,None,3.5346921,,,Nov18Silent3,88,2022_Nov_18_1527,ProdSingRedoBetween,2021.2.3,59.94553348
,,,,1,0,1,0,,,,,,,,,,,,,,,,,,,,,,487.4477568,None,,,,,,,,,,,,,,,,,reach,146,2,silent,new,null,474.7769058,None,474.7769058,None,4,3.9365632,474.7769058,None,3.9365632,478.7331869,None,479.2474782,None,479.2474782,None,f,8.1617761,479.2474782,None,8.1617761,,,Nov18Silent3,88,2022_Nov_18_1527,ProdSingRedoBetween,2021.2.3,59.94553348
,,,,2,0,2,0,,,,,,,,,,,,,,,,,,,,,,497.7826962,None,,,,,,,,,,,,,,,,,breath,49,3,silent,old,blue,487.9561866,None,487.9561866,None,2,5.4452029,487.9561866,None,5.4452029,493.4337734,None,493.9489006,None,493.9489006,None,f,3.8043585,493.9489006,None,3.8043585,,,Nov18Silent3,88,2022_Nov_18_1527,ProdSingRedoBetween,2021.2.3,59.94553348
,,,,3,0,3,0,,,,,,,,,,,,,,,,,,,,,,506.0741212,None,,,,,,,,,,,,,,,,,religion,128,4,silent,new,null,498.28576,None,498.28576,None,2,3.291522199,498.28576,None,3.291522199,501.6030779,None,502.1060667,None,502.1060667,None,n,3.943242501,502.1060667,None,3.943242501,,,Nov18Silent3,88,2022_Nov_18_1527,ProdSingRedoBetween,2021.2.3,59.94553348
,,,,4,0,4,0,,,,,,,,,,,,,,,,,,,,,,510.5284846,None,,,,,,,,,,,,,,,,,expansion,84,5,silent,old,red,506.5823897,None,506.5823897,None,5,2.618835799,506.5823897,None,2.618835799,509.2291533,None,509.7444856,None,509.7444856,None,f,0.7608526,509.7444856,None,0.7608526,,,Nov18Silent3,88,2022_Nov_18_1527,ProdSingRedoBetween,2021.2.3,59.94553348
,,,,5,0,5,0,,,,,,,,,,,,,,,,,,,,,,514.6156193,None,,,,,,,,,,,,,,,,,enemy,161,6,silent,new,null,511.0397877,None,511.0397877,None,5,2.1214861,511.0397877,None,2.1214861,513.1843938,None,513.6984435,None,513.6984435,None,f,0.894934,513.6984435,None,0.894934,,,Nov18Silent3,88,2022_Nov_18_1527,ProdSingRedoBetween,2021.2.3,59.94553348
,,,,6,0,6,0,,,,,,,,,,,,,,,,,,,,,,523.5081757,None,,,,,,,,,,,,,,,,,length,155,7,silent,new,null,515.1167534,None,515.1167534,None,3,4.188652201,515.1167534,None,4.188652201,519.3205933,None,519.8213641,None,519.8213641,None,n,3.6598256,519.8213641,None,3.6598256,,,Nov18Silent3,88,2022_Nov_18_1527,ProdSingRedoBetween,2021.2.3,59.94553348
,,,,7,0,7,0,,,,,,,,,,,,,,,,,,,,,,529.229826,None,,,,,,,,,,,,,,,,,space,150,8,silent,new,null,524.0140545,None,524.0140545,None,4,3.5392252,524.0140545,None,3.5392252,527.5824233,None,528.0962353,None,528.0962353,None,f,1.096956099,528.0962353,None,1.096956099,,,Nov18Silent3,88,2022_Nov_18_1527,ProdSingRedoBetween,2021.2.3,59.94553348
,,,,8,0,8,0,,,,,,,,,,,,,,,,,,,,,,534.1876139,None,,,,,,,,,,,,,,,,,crisis,41,9,silent,old,blue,529.7344188,None,529.7344188,None,5,2.0267526,529.7344188,None,2.0267526,531.7996211,None,532.3001984,None,532.3001984,None,r,1.8691761,532.3001984,None,1.8691761,,,Nov18Silent3,88,2022_Nov_18_1527,ProdSingRedoBetween,2021.2.3,59.94553348
,,,,9,0,9,0,,,,,,,,,,,,,,,,,,,,,,537.7084791,None,,,,,,,,,,,,,,,,,congress,29,10,silent,old,blue,534.7026829,None,534.7026829,None,6,1.9306014,534.7026829,None,1.9306014,536.6579318,None,537.1873771,None,537.1873771,None,r,0.4939215,537.1873771,None,0.4939215,,,Nov18Silent3,88,2022_Nov_18_1527,ProdSingRedoBetween,2021.2.3,59.94553348
,,,,10,0,10,0,,,,,,,,,,,,,,,,,,,,,,543.0943164,None,,,,,,,,,,,,,,,,,quarter,167,11,silent,new,null,538.2257606,None,538.2257606,None,4,3.4875115,538.2257606,None,3.4875115,541.7440526,None,542.251114,None,542.251114,None,f,0.81421,542.251114,None,0.81421,,,Nov18Silent3,88,2022_Nov_18_1527,ProdSingRedoBetween,2021.2.3,59.94553348
,,,,11,0,11,0,,,,,,,,,,,,,,,,,,,,,,547.3151379,None,,,,,,,,,,,,,,,,,contract,26,12,silent,old,yellow,543.6013264,None,543.6013264,None,5,1.8638979,543.6013264,None,1.8638979,545.4801042,None,545.9833336,None,545.9833336,None,r,1.305885901,545.9833336,None,1.305885901,,,Nov18Silent3,88,2022_Nov_18_1527,ProdSingRedoBetween,2021.2.3,59.94553348
,,,,12,0,12,0,,,,,,,,,,,,,,,,,,,,,,555.306558,None,,,,,,,,,,,,,,,,,fight,137,13,silent,new,null,547.8190889,None,547.8190889,None,3,3.2542077,547.8190889,None,3.2542077,551.1034312,None,551.60296,None,551.60296,None,n,3.6862116,551.60296,None,3.6862116,,,Nov18Silent3,88,2022_Nov_18_1527,ProdSingRedoBetween,2021.2.3,59.94553348
,,,,13,0,13,0,,,,,,,,,,,,,,,,,,,,,,558.6597712,None,,,,,,,,,,,,,,,,,century,88,14,silent,old,red,555.8070036,None,555.8070036,None,6,1.9462209,555.8070036,None,1.9462209,557.7784465,None,558.3031235,None,558.3031235,None,r,0.3379863,558.3031235,None,0.3379863,,,Nov18Silent3,88,2022_Nov_18_1527,ProdSingRedoBetween,2021.2.3,59.94553348
,,,,14,0,14,0,,,,,,,,,,,,,,,,,,,,,,564.2154654,None,,,,,,,,,,,,,,,,,budget,69,15,silent,old,red,559.1648136,None,559.1648136,None,6,3.6525363,559.1648136,None,3.6525363,562.8474925,None,563.3480295,None,563.3480295,None,r,0.8371833,563.3480295,None,0.8371833,,,Nov18Silent3,88,2022_Nov_18_1527,ProdSingRedoBetween,2021.2.3,59.94553348
,,,,15,0,15,0,,,,,,,,,,,,,,,,,,,,,,567.0516538,None,,,,,,,,,,,,,,,,,agency,70,16,silent,old,red,564.7305065,None,564.7305065,None,6,1.4466743,564.7305065,None,1.4466743,566.2027797,None,566.7228841,None,566.7228841,None,r,0.3102996,566.7228841,None,0.3102996,,,Nov18Silent3,88,2022_Nov_18_1527,ProdSingRedoBetween,2021.2.3,59.94553348
,,,,16,0,16,0,,,,,,,,,,,,,,,,,,,,,,569.3871711,None,,,,,,,,,,,,,,,,,drink,90,17,silent,new,null,567.5614841,None,567.5614841,None,6,0.9918371,567.5614841,None,0.9918371,568.5747556,None,569.0879392,None,569.0879392,None,r,0.281191001,569.0879392,None,0.281191001,,,Nov18Silent3,88,2022_Nov_18_1527,ProdSingRedoBetween,2021.2.3,59.94553348
,,,,17,0,17,0,,,,,,,,,,,,,,,,,,,,,,574.0084536,None,,,,,,,,,,,,,,,,,patient,148,18,silent,new,null,569.8884272,None,569.8884272,None,4,2.7608474,569.8884272,None,2.7608474,572.6801087,None,573.1930701,None,573.1930701,None,f,0.8001065,573.1930701,None,0.8001065,,,Nov18Silent3,88,2022_Nov_18_1527,ProdSingRedoBetween,2021.2.3,59.94553348
,,,,18,0,18,0,,,,,,,,,,,,,,,,,,,,,,578.1959885,None,,,,,,,,,,,,,,,,,incident,77,19,silent,old,red,574.5175632,None,574.5175632,None,4,2.6595528,574.5175632,None,2.6595528,577.1947672,None,577.6979163,None,577.6979163,None,f,0.471198,577.6979163,None,0.471198,,,Nov18Silent3,88,2022_Nov_18_1527,ProdSingRedoBetween,2021.2.3,59.94553348
,,,,19,0,19,0,,,,,,,,,,,,,,,,,,,,,,584.3021499,None,,,,,,,,,,,,,,,,,suspect,61,20,silent,old,red,578.7077316,None,578.7077316,None,6,4.549411,578.7077316,None,4.549411,583.2853832,None,583.7918749,None,583.7918749,None,f,0.4813011,583.7918749,None,0.4813011,,,Nov18Silent3,88,2022_Nov_18_1527,ProdSingRedoBetween,2021.2.3,59.94553348
,,,,20,0,20,0,,,,,,,,,,,,,,,,,,,,,,598.1159127,None,,,,,,,,,,,,,,,,,attack,131,21,silent,new,null,584.8104241,None,584.8104241,None,4,11.9106902,584.8104241,None,11.9106902,596.750418,None,597.265236,None,597.265236,None,f,0.831878101,597.265236,None,0.831878101,,,Nov18Silent3,88,2022_Nov_18_1527,ProdSingRedoBetween,2021.2.3,59.94553348
,,,,21,0,21,0,,,,,,,,,,,,,,,,,,,,,,602.103159,None,,,,,,,,,,,,,,,,,theme,140,22,silent,new,null,598.6234928,None,598.6234928,None,3,2.2898937,598.6234928,None,2.2898937,600.9363277,None,601.4401303,None,601.4401303,None,n,0.641035399,601.4401303,None,0.641035399,,,Nov18Silent3,88,2022_Nov_18_1527,ProdSingRedoBetween,2021.2.3,59.94553348
,,,,22,0,22,0,,,,,,,,,,,,,,,,,,,,,,607.4085242,None,,,,,,,,,,,,,,,,,object,54,23,silent,old,blue,602.6139511,None,602.6139511,None,6,1.9551761,602.6139511,None,1.9551761,604.5902426,None,605.0895349,None,605.0895349,None,r,2.3038103,605.0895349,None,2.3038103,,,Nov18Silent3,88,2022_Nov_18_1527,ProdSingRedoBetween,2021.2.3,59.94553348
,,,,23,0,23,0,,,,,,,,,,,,,,,,,,,,,,615.2683126,None,,,,,,,,,,,,,,,,,owner,153,24,silent,new,null,607.9104832,None,607.9104832,None,1,2.3946557,607.9104832,None,2.3946557,610.3284122,None,610.8424801,None,610.8424801,None,n,4.4066981,610.8424801,None,4.4066981,,,Nov18Silent3,88,2022_Nov_18_1527,ProdSingRedoBetween,2021.2.3,59.94553348
,,,,24,0,24,0,,,,,,,,,,,,,,,,,,,,,,625.0760601,None,,,,,,,,,,,,,,,,,point,17,25,silent,old,yellow,615.7834944,None,615.7834944,None,2,3.9695646,615.7834944,None,3.9695646,619.7728981,None,620.2910045,None,620.2910045,None,f,4.7581328,620.2910045,None,4.7581328,,,Nov18Silent3,88,2022_Nov_18_1527,ProdSingRedoBetween,2021.2.3,59.94553348
,,,,25,0,25,0,,,,,,,,,,,,,,,,,,,,,,629.2478584,None,,,,,,,,,,,,,,,,,article,56,26,silent,old,blue,625.5766664,None,625.5766664,None,2,2.7923637,625.5766664,None,2.7923637,628.3967687,None,628.8984336,None,628.8984336,None,f,0.3267065,628.8984336,None,0.3267065,,,Nov18Silent3,88,2022_Nov_18_1527,ProdSingRedoBetween,2021.2.3,59.94553348
,,,,26,0,26,0,,,,,,,,,,,,,,,,,,,,,,640.2411994,None,,,,,,,,,,,,,,,,,silence,174,27,silent,new,null,629.7493343,None,629.7493343,None,4,5.395639299,629.7493343,None,5.395639299,635.171708,None,635.6868561,None,635.6868561,None,f,4.538309501,635.6868561,None,4.538309501,,,Nov18Silent3,88,2022_Nov_18_1527,ProdSingRedoBetween,2021.2.3,59.94553348
,,,,27,0,27,0,,,,,,,,,,,,,,,,,,,,,,645.2127927,None,,,,,,,,,,,,,,,,,minute,81,28,silent,old,red,640.7518111,None,640.7518111,None,3,3.6092245,640.7518111,None,3.6092245,644.3784468,None,644.8819652,None,644.8819652,None,f,0.303029099,644.8819652,None,0.303029099,,,Nov18Silent3,88,2022_Nov_18_1527,ProdSingRedoBetween,2021.2.3,59.94553348
,,,,28,0,28,0,,,,,,,,,,,,,,,,,,,,,,648.8164916,None,,,,,,,,,,,,,,,,,spoke,10,29,silent,old,yellow,645.724754,None,645.724754,None,5,2.2202892,645.724754,None,2.2202892,647.9671399,None,648.4828252,None,648.4828252,None,r,0.3182498,648.4828252,None,0.3182498,,,Nov18Silent3,88,2022_Nov_18_1527,ProdSingRedoBetween,2021.2.3,59.94553348
,,,,29,0,29,0,,,,,,,,,,,,,,,,,,,,,,652.4033749,None,,,,,,,,,,,,,,,,,majority,136,30,silent,new,null,649.3269449,None,649.3269449,None,4,2.202105,649.3269449,None,2.202105,651.5554559,None,652.0698513,None,652.0698513,None,f,0.307233,652.0698513,None,0.307233,,,Nov18Silent3,88,2022_Nov_18_1527,ProdSingRedoBetween,2021.2.3,59.94553348
,,,,30,0,30,0,,,,,,,,,,,,,,,,,,,,,,656.7576277,None,,,,,,,,,,,,,,,,,public,11,31,silent,old,yellow,652.9115158,None,652.9115158,None,6,1.5855351,652.9115158,None,1.5855351,654.5241349,None,655.0392916,None,655.0392916,None,r,1.697853399,655.0392916,None,1.697853399,,,Nov18Silent3,88,2022_Nov_18_1527,ProdSingRedoBetween,2021.2.3,59.94553348
,,,,31,0,31,0,,,,,,,,,,,,,,,,,,,,,,660.2297878,None,,,,,,,,,,,,,,,,,search,86,32,silent,old,red,657.2612086,None,657.2612086,None,3,2.0598254,657.2612086,None,2.0598254,659.3456164,None,659.8609393,None,659.8609393,None,f,0.340207799,659.8609393,None,0.340207799,,,Nov18Silent3,88,2022_Nov_18_1527,ProdSingRedoBetween,2021.2.3,59.94553348
,,,,32,0,32,0,,,,,,,,,,,,,,,,,,,,,,663.3642666,None,,,,,,,,,,,,,,,,,clear,116,33,silent,new,null,660.7469093,None,660.7469093,None,4,1.7740577,660.7469093,None,1.7740577,662.5477399,None,663.0514166,None,663.0514166,None,f,0.2855741,663.0514166,None,0.2855741,,,Nov18Silent3,88,2022_Nov_18_1527,ProdSingRedoBetween,2021.2.3,59.94553348
,,,,33,0,33,0,,,,,,,,,,,,,,,,,,,,,,666.7009805,None,,,,,,,,,,,,,,,,,staff,147,34,silent,new,null,663.8783524,None,663.8783524,None,4,1.434877899,663.8783524,None,1.434877899,665.3392015,None,665.8501768,None,665.8501768,None,f,0.830775,665.8501768,None,0.830775,,,Nov18Silent3,88,2022_Nov_18_1527,ProdSingRedoBetween,2021.2.3,59.94553348
,,,,34,0,34,0,,,,,,,,,,,,,,,,,,,,,,670.9051684,None,,,,,,,,,,,,,,,,,guide,42,35,silent,old,blue,667.2080185,None,667.2080185,None,6,2.824999999,667.2080185,None,2.824999999,670.0569868,None,670.5715887,None,670.5715887,None,f,0.3094932,670.5715887,None,0.3094932,,,Nov18Silent3,88,2022_Nov_18_1527,ProdSingRedoBetween,2021.2.3,59.94553348
,,,,35,0,35,0,,,,,,,,,,,,,,,,,,,,,,675.2647576,None,,,,,,,,,,,,,,,,,history,94,36,silent,new,null,671.4089004,None,671.4089004,None,4,3.0080911,671.4089004,None,3.0080911,674.4418878,None,674.9425763,None,674.9425763,None,f,0.2903973,674.9425763,None,0.2903973,,,Nov18Silent3,88,2022_Nov_18_1527,ProdSingRedoBetween,2021.2.3,59.94553348
,,,,36,0,36,0,,,,,,,,,,,,,,,,,,,,,,678.5794219,None,,,,,,,,,,,,,,,,,style,22,37,silent,old,yellow,675.7786858,None,675.7786858,None,6,1.8464968,675.7786858,None,1.8464968,677.6533261,None,678.1641836,None,678.1641836,None,r,0.3888294,678.1641836,None,0.3888294,,,Nov18Silent3,88,2022_Nov_18_1527,ProdSingRedoBetween,2021.2.3,59.94553348
,,,,37,0,37,0,,,,,,,,,,,,,,,,,,,,,,681.5824418,None,,,,,,,,,,,,,,,,,listen,104,38,silent,new,null,679.0819859,None,679.0819859,None,6,1.670909801,679.0819859,None,1.670909801,680.7819428,None,681.2824878,None,681.2824878,None,r,0.2785337,681.2824878,None,0.2785337,,,Nov18Silent3,88,2022_Nov_18_1527,ProdSingRedoBetween,2021.2.3,59.94553348
,,,,38,0,38,0,,,,,,,,,,,,,,,,,,,,,,684.6354678,None,,,,,,,,,,,,,,,,,crowd,76,39,silent,old,red,682.0914779,None,682.0914779,None,6,1.7095427,682.0914779,None,1.7095427,683.8216415,None,684.3399797,None,684.3399797,None,r,0.269153,684.3399797,None,0.269153,,,Nov18Silent3,88,2022_Nov_18_1527,ProdSingRedoBetween,2021.2.3,59.94553348
,,,,39,0,39,0,,,,,,,,,,,,,,,,,,,,,,688.2724617,None,,,,,,,,,,,,,,,,,account,109,40,silent,new,null,685.1457418,None,685.1457418,None,3,1.8713627,685.1457418,None,1.8713627,687.0376419,None,687.5424153,None,687.5424153,None,f,0.714755201,687.5424153,None,0.714755201,,,Nov18Silent3,88,2022_Nov_18_1527,ProdSingRedoBetween,2021.2.3,59.94553348
,,,,40,0,40,0,,,,,,,,,,,,,,,,,,,,,,693.1439251,None,,,,,,,,,,,,,,,,,reading,16,41,silent,old,yellow,688.7831617,None,688.7831617,None,1,2.265931,688.7831617,None,2.265931,691.0821035,None,691.5945343,None,691.5945343,None,n,1.5345428,691.5945343,None,1.5345428,,,Nov18Silent3,88,2022_Nov_18_1527,ProdSingRedoBetween,2021.2.3,59.94553348
,,,,41,0,41,0,,,,,,,,,,,,,,,,,,,,,,696.4639303,None,,,,,,,,,,,,,,,,,place,6,42,silent,old,yellow,693.6568421,None,693.6568421,None,4,2.0162451,693.6568421,None,2.0162451,695.6977385,None,696.2014752,None,696.2014752,None,f,0.2314796,696.2014752,None,0.2314796,,,Nov18Silent3,88,2022_Nov_18_1527,ProdSingRedoBetween,2021.2.3,59.94553348
,,,,42,0,42,0,,,,,,,,,,,,,,,,,,,,,,700.0174024,None,,,,,,,,,,,,,,,,,weather,95,43,silent,new,null,696.9705485,None,696.9705485,None,1,2.0783498,696.9705485,None,2.0783498,699.068576,None,699.5881446,None,699.5881446,None,n,0.412889999,699.5881446,None,0.412889999,,,Nov18Silent3,88,2022_Nov_18_1527,ProdSingRedoBetween,2021.2.3,59.94553348
,,,,43,0,43,0,,,,,,,,,,,,,,,,,,,,,,703.2569704,None,,,,,,,,,,,,,,,,,produce,121,44,silent,new,null,700.5329467,None,700.5329467,None,3,1.907988301,700.5329467,None,1.907988301,702.4705211,None,702.9737768,None,702.9737768,None,f,0.2592159,702.9737768,None,0.2592159,,,Nov18Silent3,88,2022_Nov_18_1527,ProdSingRedoBetween,2021.2.3,59.94553348
,,,,44,0,44,0,,,,,,,,,,,,,,,,,,,,,,708.7928784,None,,,,,,,,,,,,,,,,,corner,47,45,silent,old,blue,703.7717113,None,703.7717113,None,6,3.4371676,703.7717113,None,3.4371676,707.2247982,None,707.7252493,None,707.7252493,None,r,1.043591101,707.7252493,None,1.043591101,,,Nov18Silent3,88,2022_Nov_18_1527,ProdSingRedoBetween,2021.2.3,59.94553348
,,,,45,0,45,0,,,,,,,,,,,,,,,,,,,,,,712.4407706,None,,,,,,,,,,,,,,,,,employment,105,46,silent,new,null,709.3023394,None,709.3023394,None,6,1.2505436,709.3023394,None,1.2505436,710.5848949,None,711.0955028,None,711.0955028,None,f,1.3136949,711.0955028,None,1.3136949,,,Nov18Silent3,88,2022_Nov_18_1527,ProdSingRedoBetween,2021.2.3,59.94553348
,,,,46,0,46,0,,,,,,,,,,,,,,,,,,,,,,716.2336328,None,,,,,,,,,,,,,,,,,principal,97,47,silent,new,null,712.9595471,None,712.9595471,None,4,2.6254264,712.9595471,None,2.6254264,715.6164303,None,716.1169743,None,716.1169743,None,f,0.0919713,716.1169743,None,0.0919713,,,Nov18Silent3,88,2022_Nov_18_1527,ProdSingRedoBetween,2021.2.3,59.94553348
,,,,47,0,47,0,,,,,,,,,,,,,,,,,,,,,,720.4233548,None,,,,,,,,,,,,,,,,,message,169,48,silent,new,null,716.7421071,None,716.7421071,None,3,2.6267971,716.7421071,None,2.6267971,719.3880561,None,719.8933117,None,719.8933117,None,f,0.4997754,719.8933117,None,0.4997754,,,Nov18Silent3,88,2022_Nov_18_1527,ProdSingRedoBetween,2021.2.3,59.94553348
,,,,48,0,48,0,,,,,,,,,,,,,,,,,,,,,,723.2740226,None,,,,,,,,,,,,,,,,,vision,152,49,silent,new,null,720.9447161,None,720.9447161,None,6,1.5362742,720.9447161,None,1.5362742,722.511921,None,723.0238289,None,723.0238289,None,f,0.2251291,723.0238289,None,0.2251291,,,Nov18Silent3,88,2022_Nov_18_1527,ProdSingRedoBetween,2021.2.3,59.94553348
,,,,49,0,49,0,,,,,,,,,,,,,,,,,,,,,,727.3639845,None,,,,,,,,,,,,,,,,,evidence,158,50,silent,new,null,723.7808991,None,723.7808991,None,5,2.7400486,723.7808991,None,2.7400486,726.5470898,None,727.0664027,None,727.0664027,None,f,0.2708578,727.0664027,None,0.2708578,,,Nov18Silent3,88,2022_Nov_18_1527,ProdSingRedoBetween,2021.2.3,59.94553348
,,,,50,0,50,0,,,,,,,,,,,,,,,,,,,,,,731.1651495,None,,,,,,,,,,,,,,,,,pressure,79,51,silent,old,red,727.8786628,None,727.8786628,None,3,2.4022114,727.8786628,None,2.4022114,730.2992192,None,730.8040964,None,730.8040964,None,f,0.332833299,730.8040964,None,0.332833299,,,Nov18Silent3,88,2022_Nov_18_1527,ProdSingRedoBetween,2021.2.3,59.94553348
,,,,51,0,51,0,,,,,,,,,,,,,,,,,,,,,,736.2868951,None,,,,,,,,,,,,,,,,,cross,60,52,silent,old,red,731.6725846,None,731.6725846,None,6,3.7202404,731.6725846,None,3.7202404,735.4239937,None,735.9461581,None,735.9461581,None,r,0.3105895,735.9461581,None,0.3105895,,,Nov18Silent3,88,2022_Nov_18_1527,ProdSingRedoBetween,2021.2.3,59.94553348
,,,,52,0,52,0,,,,,,,,,,,,,,,,,,,,,,740.0240561,None,,,,,,,,,,,,,,,,,research,99,53,silent,new,null,736.7916559,None,736.7916559,None,5,2.3772543,736.7916559,None,2.3772543,739.191512,None,739.6974157,None,739.6974157,None,f,0.303666799,739.6974157,None,0.303666799,,,Nov18Silent3,88,2022_Nov_18_1527,ProdSingRedoBetween,2021.2.3,59.94553348
,,,,53,0,53,0,,,,,,,,,,,,,,,,,,,,,,742.9435908,None,,,,,,,,,,,,,,,,,division,144,54,silent,new,null,740.5247938,None,740.5247938,None,6,1.628198001,740.5247938,None,1.628198001,742.1774274,None,742.6767999,None,742.6767999,None,r,0.252093701,742.6767999,None,0.252093701,,,Nov18Silent3,88,2022_Nov_18_1527,ProdSingRedoBetween,2021.2.3,59.94553348
,,,,54,0,54,0,,,,,,,,,,,,,,,,,,,,,,745.7798778,None,,,,,,,,,,,,,,,,,raise,18,55,silent,old,yellow,743.4541866,None,743.4541866,None,6,1.4747458,743.4541866,None,1.4747458,744.9501787,None,745.4629724,None,745.4629724,None,r,0.297978,745.4629724,None,0.297978,,,Nov18Silent3,88,2022_Nov_18_1527,ProdSingRedoBetween,2021.2.3,59.94553348
,,,,55,0,55,0,,,,,,,,,,,,,,,,,,,,,,751.5022083,None,,,,,,,,,,,,,,,,,judge,112,56,silent,new,null,746.2802833,None,746.2802833,None,4,2.928602099,746.2802833,None,2.928602099,749.2352746,None,749.7505681,None,749.7505681,None,f,1.7303118,749.7505681,None,1.7303118,,,Nov18Silent3,88,2022_Nov_18_1527,ProdSingRedoBetween,2021.2.3,59.94553348
,,,,56,0,56,0,,,,,,,,,,,,,,,,,,,,,,757.6582791,None,,,,,,,,,,,,,,,,,music,12,57,silent,old,yellow,752.0099492,None,752.0099492,None,3,2.3110507,752.0099492,None,2.3110507,754.3382509,None,754.8389319,None,754.8389319,None,f,2.7939499,754.8389319,None,2.7939499,,,Nov18Silent3,88,2022_Nov_18_1527,ProdSingRedoBetween,2021.2.3,59.94553348
,,,,57,0,57,0,,,,,,,,,,,,,,,,,,,,,,761.2953325,None,,,,,,,,,,,,,,,,,household,74,58,silent,old,red,758.168296,None,758.168296,None,4,2.408511301,758.168296,None,2.408511301,760.5958801,None,761.0951335,None,761.0951335,None,f,0.1697346,761.0951335,None,0.1697346,,,Nov18Silent3,88,2022_Nov_18_1527,ProdSingRedoBetween,2021.2.3,59.94553348
,,,,58,0,58,0,,,,,,,,,,,,,,,,,,,,,,766.9842781,None,,,,,,,,,,,,,,,,,colonel,154,59,silent,new,null,761.8042112,None,761.8042112,None,1,1.90052,761.8042112,None,1.90052,763.7356774,None,764.248468,None,764.248468,None,n,2.712407701,764.248468,None,2.712407701,,,Nov18Silent3,88,2022_Nov_18_1527,ProdSingRedoBetween,2021.2.3,59.94553348
,,,,59,0,59,0,,,,,,,,,,,,,,,,,,,,,,770.6557828,None,,,,,,,,,,,,,,,,,passage,124,60,silent,new,null,767.4927886,None,767.4927886,None,3,1.9081477,767.4927886,None,1.9081477,769.4220352,None,769.9373803,None,769.9373803,None,f,0.695369,769.9373803,None,0.695369,,,Nov18Silent3,88,2022_Nov_18_1527,ProdSingRedoBetween,2021.2.3,59.94553348
,,,,60,0,60,0,,,,,,,,,,,,,,,,,,,,,,780.9982226,None,,,,,,,,,,,,,,,,,engineer,52,61,silent,old,blue,771.1560212,None,771.1560212,None,4,5.572772,771.1560212,None,5.572772,776.7458651,None,777.2650124,None,777.2650124,None,r,3.7038019,777.2650124,None,3.7038019,,,Nov18Silent3,88,2022_Nov_18_1527,ProdSingRedoBetween,2021.2.3,59.94553348
,,,,61,0,61,0,,,,,,,,,,,,,,,,,,,,,,784.2028635,None,,,,,,,,,,,,,,,,,minor,1,62,silent,old,yellow,781.5050488,None,781.5050488,None,6,1.8319806,781.5050488,None,1.8319806,783.373998,None,783.8845056,None,783.8845056,None,r,0.3004524,783.8845056,None,0.3004524,,,Nov18Silent3,88,2022_Nov_18_1527,ProdSingRedoBetween,2021.2.3,59.94553348
,,,,62,0,62,0,,,,,,,,,,,,,,,,,,,,,,788.2387719,None,,,,,,,,,,,,,,,,,discovery,43,63,silent,old,blue,784.705034,None,784.705034,None,3,2.6957765,784.705034,None,2.6957765,787.423686,None,787.9400754,None,787.9400754,None,f,0.276640601,787.9400754,None,0.276640601,,,Nov18Silent3,88,2022_Nov_18_1527,ProdSingRedoBetween,2021.2.3,59.94553348
,,,,63,0,63,0,,,,,,,,,,,,,,,,,,,,,,791.1250195,None,,,,,,,,,,,,,,,,,mayor,68,64,silent,old,red,788.7467232,None,788.7467232,None,6,1.5500058,788.7467232,None,1.5500058,790.3252185,None,790.8280363,None,790.8280363,None,r,0.2767746,790.8280363,None,0.2767746,,,Nov18Silent3,88,2022_Nov_18_1527,ProdSingRedoBetween,2021.2.3,59.94553348
,,,,64,0,64,0,,,,,,,,,,,,,,,,,,,,,,796.647117,None,,,,,,,,,,,,,,,,,course,111,65,silent,new,null,791.6343936,None,791.6343936,None,6,2.974403299,791.6343936,None,2.974403299,794.6315716,None,795.1485609,None,795.1485609,None,r,1.468234,795.1485609,None,1.468234,,,Nov18Silent3,88,2022_Nov_18_1527,ProdSingRedoBetween,2021.2.3,59.94553348
,,,,65,0,65,0,,,,,,,,,,,,,,,,,,,,,,799.7166243,None,,,,,,,,,,,,,,,,,solution,51,66,silent,old,blue,797.1569352,None,797.1569352,None,4,1.779745799,797.1569352,None,1.779745799,798.9724104,None,799.4833264,None,799.4833264,None,f,0.205409,799.4833264,None,0.205409,,,Nov18Silent3,88,2022_Nov_18_1527,ProdSingRedoBetween,2021.2.3,59.94553348
,,,,66,0,66,0,,,,,,,,,,,,,,,,,,,,,,803.8913987,None,,,,,,,,,,,,,,,,,cover,114,67,silent,new,null,800.220479,None,800.220479,None,4,2.99653,800.220479,None,2.99653,803.2480705,None,803.7549408,None,803.7549408,None,f,0.117957599,803.7549408,None,0.117957599,,,Nov18Silent3,88,2022_Nov_18_1527,ProdSingRedoBetween,2021.2.3,59.94553348
,,,,67,0,67,0,,,,,,,,,,,,,,,,,,,,,,806.8907292,None,,,,,,,,,,,,,,,,,measure,63,68,silent,old,red,804.4099709,None,804.4099709,None,6,1.7908182,804.4099709,None,1.7908182,806.225374,None,806.7438423,None,806.7438423,None,r,0.128901199,806.7438423,None,0.128901199,,,Nov18Silent3,88,2022_Nov_18_1527,ProdSingRedoBetween,2021.2.3,59.94553348
,,,,68,0,68,0,,,,,,,,,,,,,,,,,,,,,,811.5119847,None,,,,,,,,,,,,,,,,,resistance,134,69,silent,new,null,807.3987959,None,807.3987959,None,3,2.0339162,807.3987959,None,2.0339162,809.4609374,None,809.9606323,None,809.9606323,None,n,1.528185399,809.9606323,None,1.528185399,,,Nov18Silent3,88,2022_Nov_18_1527,ProdSingRedoBetween,2021.2.3,59.94553348
,,,,69,0,69,0,,,,,,,,,,,,,,,,,,,,,,815.6686705,None,,,,,,,,,,,,,,,,,volume,179,70,silent,new,null,812.0188013,None,812.0188013,None,2,2.7099747,812.0188013,None,2.7099747,814.7483409,None,815.2492112,None,815.2492112,None,n,0.3917145,815.2492112,None,0.3917145,,,Nov18Silent3,88,2022_Nov_18_1527,ProdSingRedoBetween,2021.2.3,59.94553348
,,,,70,0,70,0,,,,,,,,,,,,,,,,,,,,,,819.2383579,None,,,,,,,,,,,,,,,,,heavy,19,71,silent,old,yellow,816.1888217,None,816.1888217,None,4,2.1561652,816.1888217,None,2.1561652,818.3793208,None,818.8893475,None,818.8893475,None,f,0.3195171,818.8893475,None,0.3195171,,,Nov18Silent3,88,2022_Nov_18_1527,ProdSingRedoBetween,2021.2.3,59.94553348
,,,,71,0,71,0,,,,,,,,,,,,,,,,,,,,,,822.1059503,None,,,,,,,,,,,,,,,,,commercial,66,72,silent,old,red,819.7600952,None,819.7600952,None,4,1.712729299,819.7600952,None,1.712729299,821.4895492,None,821.9890035,None,821.9890035,None,f,0.0996681,821.9890035,None,0.0996681,,,Nov18Silent3,88,2022_Nov_18_1527,ProdSingRedoBetween,2021.2.3,59.94553348
,,,,72,0,72,0,,,,,,,,,,,,,,,,,,,,,,825.5259738,None,,,,,,,,,,,,,,,,,individual,62,73,silent,old,red,822.6064152,None,822.6064152,None,6,2.1542036,822.6064152,None,2.1542036,824.7953433,None,825.309103,None,825.309103,None,r,0.187566199,825.309103,None,0.187566199,,,Nov18Silent3,88,2022_Nov_18_1527,ProdSingRedoBetween,2021.2.3,59.94553348
,,,,73,0,73,0,,,,,,,,,,,,,,,,,,,,,,828.1467484,None,,,,,,,,,,,,,,,,,marriage,71,74,silent,old,red,826.0328511,None,826.0328511,None,6,1.239903499,826.0328511,None,1.239903499,827.2953392,None,827.7949281,None,827.7949281,None,r,0.325853,827.7949281,None,0.325853,,,Nov18Silent3,88,2022_Nov_18_1527,ProdSingRedoBetween,2021.2.3,59.94553348
,,,,74,0,74,0,,,,,,,,,,,,,,,,,,,,,,832.7998845,None,,,,,,,,,,,,,,,,,foundation,118,75,silent,new,null,828.6504145,None,828.6504145,None,1,3.2464061,828.6504145,None,3.2464061,831.9160684,None,832.4199241,None,832.4199241,None,n,0.348965799,832.4199241,None,0.348965799,,,Nov18Silent3,88,2022_Nov_18_1527,ProdSingRedoBetween,2021.2.3,59.94553348
,,,,75,0,75,0,,,,,,,,,,,,,,,,,,,,,,836.9040156,None,,,,,,,,,,,,,,,,,character,25,76,silent,old,yellow,833.3003209,None,833.3003209,None,3,2.7804188,833.3003209,None,2.7804188,836.103001,None,836.607174,None,836.607174,None,f,0.265614499,836.607174,None,0.265614499,,,Nov18Silent3,88,2022_Nov_18_1527,ProdSingRedoBetween,2021.2.3,59.94553348
,,,,76,0,76,0,,,,,,,,,,,,,,,,,,,,,,840.0404608,None,,,,,,,,,,,,,,,,,distance,34,77,silent,old,blue,837.4115034,None,837.4115034,None,6,1.7252254,837.4115034,None,1.7252254,839.1575742,None,839.6669642,None,839.6669642,None,r,0.3498085,839.6669642,None,0.3498085,,,Nov18Silent3,88,2022_Nov_18_1527,ProdSingRedoBetween,2021.2.3,59.94553348
,,,,77,0,77,0,,,,,,,,,,,,,,,,,,,,,,843.244856,None,,,,,,,,,,,,,,,,,period,157,78,silent,new,null,840.5523543,None,840.5523543,None,4,1.9763026,840.5523543,None,1.9763026,842.560635,None,843.0622153,None,843.0622153,None,f,0.154589499,843.0622153,None,0.154589499,,,Nov18Silent3,88,2022_Nov_18_1527,ProdSingRedoBetween,2021.2.3,59.94553348
,,,,78,0,78,0,,,,,,,,,,,,,,,,,,,,,,851.4684575,None,,,,,,,,,,,,,,,,,appearance,35,79,silent,old,blue,843.7549428,None,843.7549428,None,5,5.829857,843.7549428,None,5.829857,849.6001525,None,850.1005735,None,850.1005735,None,r,1.3481529,850.1005735,None,1.3481529,,,Nov18Silent3,88,2022_Nov_18_1527,ProdSingRedoBetween,2021.2.3,59.94553348
,,,,79,0,79,0,,,,,,,,,,,,,,,,,,,,,,855.6393949,None,,,,,,,,,,,,,,,,,clean,175,80,silent,new,null,851.9724361,None,851.9724361,None,5,1.6202465,851.9724361,None,1.6202465,853.6213507,None,854.1264646,None,854.1264646,None,r,1.4902322,854.1264646,None,1.4902322,,,Nov18Silent3,88,2022_Nov_18_1527,ProdSingRedoBetween,2021.2.3,59.94553348
,,,,80,0,80,0,,,,,,,,,,,,,,,,,,,,,,859.6767055,None,,,,,,,,,,,,,,,,,bright,159,81,silent,new,null,856.1508559,None,856.1508559,None,3,2.4577693,856.1508559,None,2.4577693,858.626985,None,859.1301852,None,859.1301852,None,f,0.518436899,859.1301852,None,0.518436899,,,Nov18Silent3,88,2022_Nov_18_1527,ProdSingRedoBetween,2021.2.3,59.94553348
,,,,81,0,81,0,,,,,,,,,,,,,,,,,,,,,,863.8141819,None,,,,,,,,,,,,,,,,,tough,73,82,silent,old,red,860.1834851,None,860.1834851,None,5,1.9131207,860.1834851,None,1.9131207,862.1128987,None,862.6128183,None,862.6128183,None,r,1.1718582,862.6128183,None,1.1718582,,,Nov18Silent3,88,2022_Nov_18_1527,ProdSingRedoBetween,2021.2.3,59.94553348
,,,,82,0,82,0,,,,,,,,,,,,,,,,,,,,,,869.2196237,None,,,,,,,,,,,,,,,,,discussion,133,83,silent,new,null,864.314759,None,864.314759,None,3,3.3018685,864.314759,None,3.3018685,867.6388435,None,868.1540826,None,868.1540826,None,f,1.0385332,868.1540826,None,1.0385332,,,Nov18Silent3,88,2022_Nov_18_1527,ProdSingRedoBetween,2021.2.3,59.94553348
,,,,83,0,83,0,,,,,,,,,,,,,,,,,,,,,,873.126478,None,,,,,,,,,,,,,,,,,short,108,84,silent,new,null,869.7280155,None,869.7280155,None,1,1.832658799,869.7280155,None,1.832658799,871.5967651,None,872.1058682,None,872.1058682,None,n,0.990868799,872.1058682,None,0.990868799,,,Nov18Silent3,88,2022_Nov_18_1527,ProdSingRedoBetween,2021.2.3,59.94553348
,,,,84,0,84,0,,,,,,,,,,,,,,,,,,,,,,878.6957138,None,,,,,,,,,,,,,,,,,trail,83,85,silent,old,red,873.6434075,None,873.6434075,None,5,2.1092484,873.6434075,None,2.1092484,875.7761254,None,876.2769492,None,876.2769492,None,r,2.3957038,876.2769492,None,2.3957038,,,Nov18Silent3,88,2022_Nov_18_1527,ProdSingRedoBetween,2021.2.3,59.94553348
,,,,85,0,85,0,,,,,,,,,,,,,,,,,,,,,,881.6651853,None,,,,,,,,,,,,,,,,,cousin,53,86,silent,old,blue,879.2128325,None,879.2128325,None,6,1.4678002,879.2128325,None,1.4678002,880.701173,None,881.2194702,None,881.2194702,None,r,0.4211657,881.2194702,None,0.4211657,,,Nov18Silent3,88,2022_Nov_18_1527,ProdSingRedoBetween,2021.2.3,59.94553348
,,,,86,0,86,0,,,,,,,,,,,,,,,,,,,,,,885.5525111,None,,,,,,,,,,,,,,,,,sight,3,87,silent,old,yellow,882.1658621,None,882.1658621,None,1,1.8028016,882.1658621,None,1.8028016,883.9892508,None,884.5020764,None,884.5020764,None,n,1.0266223,884.5020764,None,1.0266223,,,Nov18Silent3,88,2022_Nov_18_1527,ProdSingRedoBetween,2021.2.3,59.94553348
,,,,87,0,87,0,,,,,,,,,,,,,,,,,,,,,,889.95694,None,,,,,,,,,,,,,,,,,range,40,88,silent,old,blue,886.0614684,None,886.0614684,None,2,2.275081401,886.0614684,None,2.275081401,888.3552375,None,888.8598968,None,888.8598968,None,f,1.0769193,888.8598968,None,1.0769193,,,Nov18Silent3,88,2022_Nov_18_1527,ProdSingRedoBetween,2021.2.3,59.94553348
,,,,88,0,88,0,,,,,,,,,,,,,,,,,,,,,,895.3454215,None,,,,,,,,,,,,,,,,,election,23,89,silent,old,yellow,890.4706523,None,890.4706523,None,4,4.0739321,890.4706523,None,4.0739321,894.5612639,None,895.0646975,None,895.0646975,None,f,0.255920401,895.0646975,None,0.255920401,,,Nov18Silent3,88,2022_Nov_18_1527,ProdSingRedoBetween,2021.2.3,59.94553348
,,,,89,0,89,0,,,,,,,,,,,,,,,,,,,,,,899.4263797,None,,,,,,,,,,,,,,,,,service,7,90,silent,old,yellow,895.8609048,None,895.8609048,None,4,2.5716167,895.8609048,None,2.5716167,898.4502346,None,898.9659437,None,898.9659437,None,f,0.434655701,898.9659437,None,0.434655701,,,Nov18Silent3,88,2022_Nov_18_1527,ProdSingRedoBetween,2021.2.3,59.94553348
,,,,90,0,90,0,,,,,,,,,,,,,,,,,,,,,,902.9865271,None,,,,,,,,,,,,,,,,,trial,160,91,silent,new,null,899.9464975,None,899.9464975,None,5,1.958069799,899.9464975,None,1.958069799,901.9369893,None,902.4399286,None,902.4399286,None,f,0.520787599,902.4399286,None,0.520787599,,,Nov18Silent3,88,2022_Nov_18_1527,ProdSingRedoBetween,2021.2.3,59.94553348
,,,,91,0,91,0,,,,,,,,,,,,,,,,,,,,,,906.4733604,None,,,,,,,,,,,,,,,,,shear,170,92,silent,new,null,903.4878135,None,903.4878135,None,1,1.5768137,903.4878135,None,1.5768137,905.09192,None,905.6110735,None,905.6110735,None,n,0.8455391,905.6110735,None,0.8455391,,,Nov18Silent3,88,2022_Nov_18_1527,ProdSingRedoBetween,2021.2.3,59.94553348
,,,,92,0,92,0,,,,,,,,,,,,,,,,,,,,,,909.0089341,None,,,,,,,,,,,,,,,,,tennis,72,93,silent,old,red,906.9816303,None,906.9816303,None,6,1.106939999,906.9816303,None,1.106939999,908.1103088,None,908.6253743,None,908.6253743,None,r,0.367158299,908.6253743,None,0.367158299,,,Nov18Silent3,88,2022_Nov_18_1527,ProdSingRedoBetween,2021.2.3,59.94553348
,,,,93,0,93,0,,,,,,,,,,,,,,,,,,,,,,919.9368237,None,,,,,,,,,,,,,,,,,union,32,94,silent,old,blue,909.5097429,None,909.5097429,None,1,1.8908309,909.5097429,None,1.8908309,911.4281951,None,911.9289389,None,911.9289389,None,n,7.991555099,911.9289389,None,7.991555099,,,Nov18Silent3,88,2022_Nov_18_1527,ProdSingRedoBetween,2021.2.3,59.94553348
,,,,94,0,94,0,,,,,,,,,,,,,,,,,,,,,,924.3092844,None,,,,,,,,,,,,,,,,,bucket,82,95,silent,old,red,920.443633,None,920.443633,None,1,2.948934,920.443633,None,2.948934,923.4245371,None,923.9239243,None,923.9239243,None,n,0.3565458,923.9239243,None,0.3565458,,,Nov18Silent3,88,2022_Nov_18_1527,ProdSingRedoBetween,2021.2.3,59.94553348
,,,,95,0,95,0,,,,,,,,,,,,,,,,,,,,,,928.6955852,None,,,,,,,,,,,,,,,,,member,48,96,silent,old,blue,924.8084374,None,924.8084374,None,2,1.9121378,924.8084374,None,1.9121378,926.7433978,None,927.2481801,None,927.2481801,None,f,1.4164676,927.2481801,None,1.4164676,,,Nov18Silent3,88,2022_Nov_18_1527,ProdSingRedoBetween,2021.2.3,59.94553348
,,,,96,0,96,0,,,,,,,,,,,,,,,,,,,,,,933.5671321,None,,,,,,,,,,,,,,,,,safety,107,97,silent,new,null,929.2042035,None,929.2042035,None,4,3.4284024,929.2042035,None,3.4284024,932.6508837,None,933.1603481,None,933.1603481,None,r,0.384213,933.1603481,None,0.384213,,,Nov18Silent3,88,2022_Nov_18_1527,ProdSingRedoBetween,2021.2.3,59.94553348
,,,,97,0,97,0,,,,,,,,,,,,,,,,,,,,,,936.6702206,None,,,,,,,,,,,,,,,,,oxygen,101,98,silent,new,null,934.0709414,None,934.0709414,None,1,1.633554,934.0709414,None,1.633554,935.7367738,None,936.2480044,None,936.2480044,None,n,0.4005824,936.2480044,None,0.4005824,,,Nov18Silent3,88,2022_Nov_18_1527,ProdSingRedoBetween,2021.2.3,59.94553348
,,,,98,0,98,0,,,,,,,,,,,,,,,,,,,,,,939.7064784,None,,,,,,,,,,,,,,,,,match,24,99,silent,old,yellow,937.1737122,None,937.1737122,None,5,1.7068446,937.1737122,None,1.7068446,938.9056453,None,939.4065753,None,939.4065753,None,r,0.273934999,939.4065753,None,0.273934999,,,Nov18Silent3,88,2022_Nov_18_1527,ProdSingRedoBetween,2021.2.3,59.94553348
,,,,99,0,99,0,,,,,,,,,,,,,,,,,,,,,,942.4258591,None,,,,,,,,,,,,,,,,,profession,168,100,silent,new,null,940.2156997,None,940.2156997,None,6,1.4407573,940.2156997,None,1.4407573,941.6791806,None,942.1923132,None,942.1923132,None,r,0.2081237,942.1923132,None,0.2081237,,,Nov18Silent3,88,2022_Nov_18_1527,ProdSingRedoBetween,2021.2.3,59.94553348
,,,,100,0,100,0,,,,,,,,,,,,,,,,,,,,,,945.7125069,None,,,,,,,,,,,,,,,,,number,106,101,silent,new,null,942.9264274,None,942.9264274,None,1,1.4902608,942.9264274,None,1.4902608,944.4512029,None,944.9617869,None,944.9617869,None,n,0.7269005,944.9617869,None,0.7269005,,,Nov18Silent3,88,2022_Nov_18_1527,ProdSingRedoBetween,2021.2.3,59.94553348
,,,,101,0,101,0,,,,,,,,,,,,,,,,,,,,,,951.9354325,None,,,,,,,,,,,,,,,,,edition,55,102,silent,old,blue,946.2200987,None,946.2200987,None,1,4.4363352,946.2200987,None,4.4363352,950.6888051,None,951.2012988,None,951.2012988,None,n,0.719231999,951.2012988,None,0.719231999,,,Nov18Silent3,88,2022_Nov_18_1527,ProdSingRedoBetween,2021.2.3,59.94553348
,,,,102,0,102,0,,,,,,,,,,,,,,,,,,,,,,959.5430151,None,,,,,,,,,,,,,,,,,error,162,103,silent,new,null,952.4470769,None,952.4470769,None,1,5.6414513,952.4470769,None,5.6414513,958.109139,None,958.6087602,None,958.6087602,None,n,0.9117668,958.6087602,None,0.9117668,,,Nov18Silent3,88,2022_Nov_18_1527,ProdSingRedoBetween,2021.2.3,59.94553348
,,,,103,0,103,0,,,,,,,,,,,,,,,,,,,,,,964.8148306,None,,,,,,,,,,,,,,,,,stranger,5,104,silent,old,yellow,960.0568065,None,960.0568065,None,4,3.4156906,960.0568065,None,3.4156906,963.4995916,None,964.0142095,None,964.0142095,None,f,0.7783434,964.0142095,None,0.7783434,,,Nov18Silent3,88,2022_Nov_18_1527,ProdSingRedoBetween,2021.2.3,59.94553348
,,,,104,0,104,0,,,,,,,,,,,,,,,,,,,,,,968.8689378,None,,,,,,,,,,,,,,,,,weight,110,105,silent,new,null,965.3160672,None,965.3160672,None,4,2.420484301,965.3160672,None,2.420484301,967.7696425,None,968.2902598,None,968.2902598,None,f,0.5502362,968.2902598,None,0.5502362,,,Nov18Silent3,88,2022_Nov_18_1527,ProdSingRedoBetween,2021.2.3,59.94553348
,,,,105,0,105,0,,,,,,,,,,,,,,,,,,,,,,973.8739702,None,,,,,,,,,,,,,,,,,recall,178,106,silent,new,null,969.3738513,None,969.3738513,None,5,1.9866075,969.3738513,None,1.9866075,971.3902961,None,971.9087913,None,971.9087913,None,r,1.9396938,971.9087913,None,1.9396938,,,Nov18Silent3,88,2022_Nov_18_1527,ProdSingRedoBetween,2021.2.3,59.94553348
,,,,106,0,106,0,,,,,,,,,,,,,,,,,,,,,,977.7778641,None,,,,,,,,,,,,,,,,,crime,38,107,silent,old,blue,974.3860482,None,974.3860482,None,5,1.9664371,974.3860482,None,1.9664371,976.3763547,None,976.8800653,None,976.8800653,None,f,0.872424199,976.8800653,None,0.872424199,,,Nov18Silent3,88,2022_Nov_18_1527,ProdSingRedoBetween,2021.2.3,59.94553348
,,,,107,0,107,0,,,,,,,,,,,,,,,,,,,,,,985.4188348,None,,,,,,,,,,,,,,,,,straight,59,108,silent,old,yellow,978.282686,None,978.282686,None,5,1.8857144,978.282686,None,1.8857144,980.1970466,None,980.6984453,None,980.6984453,None,f,4.7021148,980.6984453,None,4.7021148,,,Nov18Silent3,88,2022_Nov_18_1527,ProdSingRedoBetween,2021.2.3,59.94553348
,,,,108,0,108,0,,,,,,,,,,,,,,,,,,,,,,991.7084825,None,,,,,,,,,,,,,,,,,command,87,109,silent,old,red,985.9258408,None,985.9258408,None,4,4.0108258,985.9258408,None,4.0108258,989.9643356,None,990.4739809,None,990.4739809,None,f,1.206437,990.4739809,None,1.206437,,,Nov18Silent3,88,2022_Nov_18_1527,ProdSingRedoBetween,2021.2.3,59.94553348
,,,,109,0,109,0,,,,,,,,,,,,,,,,,,,,,,994.5278346,None,,,,,,,,,,,,,,,,,court,127,110,silent,new,null,992.2167796,None,992.2167796,None,6,1.5116992,992.2167796,None,1.5116992,993.7459045,None,994.2610846,None,994.2610846,None,r,0.2353919,994.2610846,None,0.2353919,,,Nov18Silent3,88,2022_Nov_18_1527,ProdSingRedoBetween,2021.2.3,59.94553348
,,,,110,0,110,0,,,,,,,,,,,,,,,,,,,,,,998.2982765,None,,,,,,,,,,,,,,,,,gesture,28,111,silent,old,yellow,995.0302049,None,995.0302049,None,1,1.8262516,995.0302049,None,1.8262516,996.8826458,None,997.3982883,None,997.3982883,None,n,0.874293201,997.3982883,None,0.874293201,,,Nov18Silent3,88,2022_Nov_18_1527,ProdSingRedoBetween,2021.2.3,59.94553348
,,,,111,0,111,0,,,,,,,,,,,,,,,,,,,,,,1004.404315,None,,,,,,,,,,,,,,,,,build,102,112,silent,new,null,998.7989117,None,998.7989117,None,2,3.849725,998.7989117,None,3.849725,1002.66929,None,1003.169954,None,1003.169954,None,f,1.2064644,1003.169954,None,1.2064644,,,Nov18Silent3,88,2022_Nov_18_1527,ProdSingRedoBetween,2021.2.3,59.94553348
,,,,112,0,112,0,,,,,,,,,,,,,,,,,,,,,,1007.52619,None,,,,,,,,,,,,,,,,,speech,9,113,silent,old,yellow,1004.916925,None,1004.916925,None,5,1.6596812,1004.916925,None,1.6596812,1006.610057,None,1007.131918,None,1007.131918,None,r,0.3646095,1007.131918,None,0.3646095,,,Nov18Silent3,88,2022_Nov_18_1527,ProdSingRedoBetween,2021.2.3,59.94553348
,,,,113,0,113,0,,,,,,,,,,,,,,,,,,,,,,1010.193482,None,,,,,,,,,,,,,,,,,bureau,89,114,silent,old,red,1008.051338,None,1008.051338,None,6,1.3492403,1008.051338,None,1.3492403,1009.425928,None,1009.930161,None,1009.930161,None,r,0.2382831,1009.930161,None,0.2382831,,,Nov18Silent3,88,2022_Nov_18_1527,ProdSingRedoBetween,2021.2.3,59.94553348
,,,,114,0,114,0,,,,,,,,,,,,,,,,,,,,,,1013.263178,None,,,,,,,,,,,,,,,,,debate,98,115,silent,new,null,1010.696811,None,1010.696811,None,5,1.767638501,1010.696811,None,1.767638501,1012.496502,None,1012.998272,None,1012.998272,None,r,0.234137201,1012.998272,None,0.234137201,,,Nov18Silent3,88,2022_Nov_18_1527,ProdSingRedoBetween,2021.2.3,59.94553348
,,,,115,0,115,0,,,,,,,,,,,,,,,,,,,,,,1017.000229,None,,,,,,,,,,,,,,,,,title,27,116,silent,old,yellow,1013.764634,None,1013.764634,None,4,1.9238139,1013.764634,None,1.9238139,1015.721263,None,1016.23363,None,1016.23363,None,f,0.7427233,1016.23363,None,0.7427233,,,Nov18Silent3,88,2022_Nov_18_1527,ProdSingRedoBetween,2021.2.3,59.94553348
,,,,116,0,116,0,,,,,,,,,,,,,,,,,,,,,,1023.692818,None,,,,,,,,,,,,,,,,,literature,13,117,silent,old,yellow,1017.509757,None,1017.509757,None,5,4.3307594,1017.509757,None,4.3307594,1021.875902,None,1022.389092,None,1022.389092,None,r,1.2833916,1022.389092,None,1.2833916,,,Nov18Silent3,88,2022_Nov_18_1527,ProdSingRedoBetween,2021.2.3,59.94553348
,,,,117,0,117,0,,,,,,,,,,,,,,,,,,,,,,1027.532562,None,,,,,,,,,,,,,,,,,hunger,119,118,silent,new,null,1024.211646,None,1024.211646,None,4,1.916723001,1024.211646,None,1.916723001,1026.160814,None,1026.679562,None,1026.679562,None,f,0.8327962,1026.679562,None,0.8327962,,,Nov18Silent3,88,2022_Nov_18_1527,ProdSingRedoBetween,2021.2.3,59.94553348
,,,,118,0,118,0,,,,,,,,,,,,,,,,,,,,,,1032.165423,None,,,,,,,,,,,,,,,,,route,122,119,silent,new,null,1028.044862,None,1028.044862,None,1,2.635485999,1028.044862,None,2.635485999,1030.698239,None,1031.199891,None,1031.199891,None,n,0.9366194,1031.199891,None,0.9366194,,,Nov18Silent3,88,2022_Nov_18_1527,ProdSingRedoBetween,2021.2.3,59.94553348
,,,,119,0,119,0,,,,,,,,,,,,,,,,,,,,,,1036.552808,None,,,,,,,,,,,,,,,,,trend,173,120,silent,new,null,1032.66631,None,1032.66631,None,1,2.5740998,1032.66631,None,2.5740998,1035.268652,None,1035.769185,None,1035.769185,None,n,0.7672383,1035.769185,None,0.7672383,,,Nov18Silent3,88,2022_Nov_18_1527,ProdSingRedoBetween,2021.2.3,59.94553348
,,,,120,0,120,0,,,,,,,,,,,,,,,,,,,,,,1039.58922,None,,,,,,,,,,,,,,,,,color,0,121,silent,old,yellow,1037.054339,None,1037.054339,None,6,1.6660687,1037.054339,None,1.6660687,1038.742105,None,1039.255943,None,1039.255943,None,r,0.3044502,1039.255943,None,0.3044502,,,Nov18Silent3,88,2022_Nov_18_1527,ProdSingRedoBetween,2021.2.3,59.94553348
,,,,121,0,121,0,,,,,,,,,,,,,,,,,,,,,,1045.695604,None,,,,,,,,,,,,,,,,,relation,138,122,silent,new,null,1040.097584,None,1040.097584,None,4,3.998746701,1040.097584,None,3.998746701,1044.127935,None,1044.630168,None,1044.630168,None,f,1.0501901,1044.630168,None,1.0501901,,,Nov18Silent3,88,2022_Nov_18_1527,ProdSingRedoBetween,2021.2.3,59.94553348
,,,,122,0,122,0,,,,,,,,,,,,,,,,,,,,,,1048.715299,None,,,,,,,,,,,,,,,,,testimony,50,123,silent,old,blue,1046.204299,None,1046.204299,None,1,1.748101001,1046.204299,None,1.748101001,1047.982331,None,1048.484382,None,1048.484382,None,n,0.203938999,1048.484382,None,0.203938999,,,Nov18Silent3,88,2022_Nov_18_1527,ProdSingRedoBetween,2021.2.3,59.94553348
,,,,123,0,123,0,,,,,,,,,,,,,,,,,,,,,,1052.034943,None,,,,,,,,,,,,,,,,,ground,100,124,silent,new,null,1049.233661,None,1049.233661,None,1,1.774565,1049.233661,None,1.774565,1051.035898,None,1051.551511,None,1051.551511,None,n,0.4648147,1051.551511,None,0.4648147,,,Nov18Silent3,88,2022_Nov_18_1527,ProdSingRedoBetween,2021.2.3,59.94553348
,,,,124,0,124,0,,,,,,,,,,,,,,,,,,,,,,1056.307937,None,,,,,,,,,,,,,,,,,carry,78,125,silent,old,red,1052.557377,None,1052.557377,None,3,2.5470939,1052.557377,None,2.5470939,1055.127297,None,1055.646187,None,1055.646187,None,f,0.6421665,1055.646187,None,0.6421665,,,Nov18Silent3,88,2022_Nov_18_1527,ProdSingRedoBetween,2021.2.3,59.94553348
,,,,125,0,125,0,,,,,,,,,,,,,,,,,,,,,,1059.475652,None,,,,,,,,,,,,,,,,,community,33,126,silent,old,blue,1056.823867,None,1056.823867,None,3,1.8085384,1056.823867,None,1.8085384,1058.663943,None,1059.177481,None,1059.177481,None,f,0.2788744,1059.177481,None,0.2788744,,,Nov18Silent3,88,2022_Nov_18_1527,ProdSingRedoBetween,2021.2.3,59.94553348
,,,,126,0,126,0,,,,,,,,,,,,,,,,,,,,,,1063.646816,None,,,,,,,,,,,,,,,,,population,165,127,silent,new,null,1059.985269,None,1059.985269,None,3,2.807111001,1059.985269,None,2.807111001,1062.819018,None,1063.329908,None,1063.329908,None,f,0.2945397,1063.329908,None,0.2945397,,,Nov18Silent3,88,2022_Nov_18_1527,ProdSingRedoBetween,2021.2.3,59.94553348
,,,,127,0,127,0,,,,,,,,,,,,,,,,,,,,,,1071.537992,None,,,,,,,,,,,,,,,,,concern,139,128,silent,new,null,1064.153087,None,1064.153087,None,3,6.487136099,1064.153087,None,6.487136099,1070.672153,None,1071.187577,None,1071.187577,None,f,0.3249053,1071.187577,None,0.3249053,,,Nov18Silent3,88,2022_Nov_18_1527,ProdSingRedoBetween,2021.2.3,59.94553348
,,,,128,0,128,0,,,,,,,,,,,,,,,,,,,,,,1075.925703,None,,,,,,,,,,,,,,,,,frank,120,129,silent,new,null,1072.050005,None,1072.050005,None,3,2.7184105,1072.050005,None,2.7184105,1074.795488,None,1075.308332,None,1075.308332,None,f,0.5880243,1075.308332,None,0.5880243,,,Nov18Silent3,88,2022_Nov_18_1527,ProdSingRedoBetween,2021.2.3,59.94553348
,,,,129,0,129,0,,,,,,,,,,,,,,,,,,,,,,1082.949311,None,,,,,,,,,,,,,,,,,impact,14,130,silent,old,yellow,1076.430487,None,1076.430487,None,3,4.705791101,1076.430487,None,4.705791101,1081.16523,None,1081.665162,None,1081.665162,None,f,1.255232899,1081.665162,None,1.255232899,,,Nov18Silent3,88,2022_Nov_18_1527,ProdSingRedoBetween,2021.2.3,59.94553348
,,,,130,0,130,0,,,,,,,,,,,,,,,,,,,,,,1090.089668,None,,,,,,,,,,,,,,,,,second,67,131,silent,old,red,1083.457544,None,1083.457544,None,1,5.2387662,1083.457544,None,5.2387662,1088.722063,None,1089.222429,None,1089.222429,None,n,0.8498282,1089.222429,None,0.8498282,,,Nov18Silent3,88,2022_Nov_18_1527,ProdSingRedoBetween,2021.2.3,59.94553348
,,,,131,0,131,0,,,,,,,,,,,,,,,,,,,,,,1094.560868,None,,,,,,,,,,,,,,,,,dream,126,132,silent,new,null,1090.590471,None,1090.590471,None,4,2.4818229,1090.590471,None,2.4818229,1093.092683,None,1093.598217,None,1093.598217,None,r,0.9381453,1093.598217,None,0.9381453,,,Nov18Silent3,88,2022_Nov_18_1527,ProdSingRedoBetween,2021.2.3,59.94553348
,,,,132,0,132,0,,,,,,,,,,,,,,,,,,,,,,1098.197753,None,,,,,,,,,,,,,,,,,permit,4,133,silent,old,yellow,1095.064627,None,1095.064627,None,5,2.255589,1095.064627,None,2.255589,1097.348127,None,1097.85208,None,1097.85208,None,r,0.324223,1097.85208,None,0.324223,,,Nov18Silent3,88,2022_Nov_18_1527,ProdSingRedoBetween,2021.2.3,59.94553348
,,,,133,0,133,0,,,,,,,,,,,,,,,,,,,,,,1101.451045,None,,,,,,,,,,,,,,,,,narrow,21,134,silent,old,yellow,1098.706156,None,1098.706156,None,5,1.862013901,1098.706156,None,1.862013901,1100.592854,None,1101.100727,None,1101.100727,None,r,0.3315289,1101.100727,None,0.3315289,,,Nov18Silent3,88,2022_Nov_18_1527,ProdSingRedoBetween,2021.2.3,59.94553348
,,,,134,0,134,0,,,,,,,,,,,,,,,,,,,,,,1104.453936,None,,,,,,,,,,,,,,,,,brilliant,30,135,silent,old,blue,1101.961981,None,1101.961981,None,1,1.654255,1101.961981,None,1.654255,1103.637599,None,1104.13913,None,1104.13913,None,n,0.2931688,1104.13913,None,0.2931688,,,Nov18Silent3,88,2022_Nov_18_1527,ProdSingRedoBetween,2021.2.3,59.94553348
,,,,135,0,135,0,,,,,,,,,,,,,,,,,,,,,,1109.225579,None,,,,,,,,,,,,,,,,,region,176,136,silent,new,null,1104.960581,None,1104.960581,None,1,3.3999957,1104.960581,None,3.3999957,1108.396371,None,1108.908656,None,1108.908656,None,n,0.2995626,1108.908656,None,0.2995626,,,Nov18Silent3,88,2022_Nov_18_1527,ProdSingRedoBetween,2021.2.3,59.94553348
,,,,136,0,136,0,,,,,,,,,,,,,,,,,,,,,,1112.478789,None,,,,,,,,,,,,,,,,,write,46,137,silent,old,blue,1109.734809,None,1109.734809,None,4,1.4814401,1109.734809,None,1.4814401,1111.24607,None,1111.761518,None,1111.761518,None,f,0.694778,1111.761518,None,0.694778,,,Nov18Silent3,88,2022_Nov_18_1527,ProdSingRedoBetween,2021.2.3,59.94553348
,,,,137,0,137,0,,,,,,,,,,,,,,,,,,,,,,1120.586846,None,,,,,,,,,,,,,,,,,danger,129,138,silent,new,null,1112.980315,None,1112.980315,None,1,6.5479372,1112.980315,None,6.5479372,1119.554288,None,1120.074268,None,1120.074268,None,n,0.485986699,1120.074268,None,0.485986699,,,Nov18Silent3,88,2022_Nov_18_1527,ProdSingRedoBetween,2021.2.3,59.94553348
,,,,138,0,138,0,,,,,,,,,,,,,,,,,,,,,,1123.923601,None,,,,,,,,,,,,,,,,,guard,91,139,silent,new,null,1121.089423,None,1121.089423,None,5,1.6950751,1121.089423,None,1.6950751,1122.814362,None,1123.323075,None,1123.323075,None,f,0.5812387,1123.323075,None,0.5812387,,,Nov18Silent3,88,2022_Nov_18_1527,ProdSingRedoBetween,2021.2.3,59.94553348
,,,,139,0,139,0,,,,,,,,,,,,,,,,,,,,,,1126.893158,None,,,,,,,,,,,,,,,,,couch,141,140,silent,new,null,1124.425154,None,1124.425154,None,5,1.5909962,1124.425154,None,1.5909962,1126.043331,None,1126.55175,None,1126.55175,None,f,0.320455899,1126.55175,None,0.320455899,,,Nov18Silent3,88,2022_Nov_18_1527,ProdSingRedoBetween,2021.2.3,59.94553348
,,,,140,0,140,0,,,,,,,,,,,,,,,,,,,,,,1130.129695,None,,,,,,,,,,,,,,,,,block,20,141,silent,old,yellow,1127.402868,None,1127.402868,None,5,1.4533518,1127.402868,None,1.4533518,1128.879857,None,1129.381428,None,1129.381428,None,f,0.7308305,1129.381428,None,0.7308305,,,Nov18Silent3,88,2022_Nov_18_1527,ProdSingRedoBetween,2021.2.3,59.94553348
,,,,141,0,141,0,,,,,,,,,,,,,,,,,,,,,,1135.752085,None,,,,,,,,,,,,,,,,,piece,171,142,silent,new,null,1130.630141,None,1130.630141,None,5,4.1940564,1130.630141,None,4.1940564,1134.852718,None,1135.370019,None,1135.370019,None,f,0.3501487,1135.370019,None,0.3501487,,,Nov18Silent3,88,2022_Nov_18_1527,ProdSingRedoBetween,2021.2.3,59.94553348
,,,,142,0,142,0,,,,,,,,,,,,,,,,,,,,,,1144.093536,None,,,,,,,,,,,,,,,,,chief,130,143,silent,new,null,1136.262032,None,1136.262032,None,2,2.4982051,1136.262032,None,2.4982051,1138.789306,None,1139.298311,None,1139.298311,None,f,4.7658725,1139.298311,None,4.7658725,,,Nov18Silent3,88,2022_Nov_18_1527,ProdSingRedoBetween,2021.2.3,59.94553348
,,,,143,0,143,0,,,,,,,,,,,,,,,,,,,,,,1150.199806,None,,,,,,,,,,,,,,,,,finish,39,144,silent,old,blue,1144.602009,None,1144.602009,None,2,4.1901773,1144.602009,None,4.1901773,1148.816852,None,1149.332333,None,1149.332333,None,f,0.851846999,1149.332333,None,0.851846999,,,Nov18Silent3,88,2022_Nov_18_1527,ProdSingRedoBetween,2021.2.3,59.94553348
,,,,144,0,144,0,,,,,,,,,,,,,,,,,,,,,,1157.693483,None,,,,,,,,,,,,,,,,,trash,151,145,silent,new,null,1150.711645,None,1150.711645,None,5,5.3606072,1150.711645,None,5.3606072,1156.091709,None,1156.606924,None,1156.606924,None,f,1.0652684,1156.606924,None,1.0652684,,,Nov18Silent3,88,2022_Nov_18_1527,ProdSingRedoBetween,2021.2.3,59.94553348
,,,,145,0,145,0,,,,,,,,,,,,,,,,,,,,,,1160.743416,None,,,,,,,,,,,,,,,,,husband,115,146,silent,new,null,1158.210948,None,1158.210948,None,1,1.66123,1158.210948,None,1.66123,1159.896986,None,1160.410945,None,1160.410945,None,n,0.3011676,1160.410945,None,0.3011676,,,Nov18Silent3,88,2022_Nov_18_1527,ProdSingRedoBetween,2021.2.3,59.94553348
,,,,146,0,146,0,,,,,,,,,,,,,,,,,,,,,,1164.780976,None,,,,,,,,,,,,,,,,,instrument,37,147,silent,old,blue,1161.246888,None,1161.246888,None,4,2.6812014,1161.246888,None,2.6812014,1163.948138,None,1164.447504,None,1164.447504,None,f,0.304671801,1164.447504,None,0.304671801,,,Nov18Silent3,88,2022_Nov_18_1527,ProdSingRedoBetween,2021.2.3,59.94553348
,,,,147,0,147,0,,,,,,,,,,,,,,,,,,,,,,1168.570037,None,,,,,,,,,,,,,,,,,republic,172,148,silent,new,null,1165.300798,None,1165.300798,None,1,2.443460699,1165.300798,None,2.443460699,1167.776743,None,1168.287912,None,1168.287912,None,n,0.2642692,1168.287912,None,0.2642692,,,Nov18Silent3,88,2022_Nov_18_1527,ProdSingRedoBetween,2021.2.3,59.94553348
,,,,148,0,148,0,,,,,,,,,,,,,,,,,,,,,,1173.139326,None,,,,,,,,,,,,,,,,,count,45,149,silent,old,blue,1169.088528,None,1169.088528,None,2,2.663615299,1169.088528,None,2.663615299,1171.77201,None,1172.271982,None,1172.271982,None,f,0.8481702,1172.271982,None,0.8481702,,,Nov18Silent3,88,2022_Nov_18_1527,ProdSingRedoBetween,2021.2.3,59.94553348
,,,,149,0,149,0,,,,,,,,,,,,,,,,,,,,,,1176.2296,None,,,,,,,,,,,,,,,,,right,31,150,silent,old,blue,1173.645615,None,1173.645615,None,1,1.802502,1173.645615,None,1.802502,1175.475231,None,1175.975644,None,1175.975644,None,n,0.2244374,1175.975644,None,0.2244374,,,Nov18Silent3,88,2022_Nov_18_1527,ProdSingRedoBetween,2021.2.3,59.94553348
,,,,150,0,150,0,,,,,,,,,,,,,,,,,,,,,,1180.865008,None,,,,,,,,,,,,,,,,,native,113,151,silent,new,null,1176.753169,None,1176.753169,None,1,2.8631902,1176.753169,None,2.8631902,1179.656878,None,1180.170624,None,1180.170624,None,n,0.669615,1180.170624,None,0.669615,,,Nov18Silent3,88,2022_Nov_18_1527,ProdSingRedoBetween,2021.2.3,59.94553348
,,,,151,0,151,0,,,,,,,,,,,,,,,,,,,,,,1183.649876,None,,,,,,,,,,,,,,,,,escape,142,152,silent,new,null,1181.374988,None,1181.374988,None,1,1.3931468,1181.374988,None,1.3931468,1182.799952,None,1183.299543,None,1183.299543,None,n,0.324601,1183.299543,None,0.324601,,,Nov18Silent3,88,2022_Nov_18_1527,ProdSingRedoBetween,2021.2.3,59.94553348
,,,,152,0,152,0,,,,,,,,,,,,,,,,,,,,,,1189.188641,None,,,,,,,,,,,,,,,,,voice,163,153,silent,new,null,1184.152828,None,1184.152828,None,4,3.615630399,1184.152828,None,3.615630399,1187.796125,None,1188.307814,None,1188.307814,None,f,0.8602485,1188.307814,None,0.8602485,,,Nov18Silent3,88,2022_Nov_18_1527,ProdSingRedoBetween,2021.2.3,59.94553348
,,,,153,0,153,0,,,,,,,,,,,,,,,,,,,,,,1194.009897,None,,,,,,,,,,,,,,,,,pattern,58,154,silent,old,blue,1189.693617,None,1189.693617,None,4,3.482562,1189.693617,None,3.482562,1193.196453,None,1193.709935,None,1193.709935,None,f,0.274237201,1193.709935,None,0.274237201,,,Nov18Silent3,88,2022_Nov_18_1527,ProdSingRedoBetween,2021.2.3,59.94553348
,,,,154,0,154,0,,,,,,,,,,,,,,,,,,,,,,1199.682385,None,,,,,,,,,,,,,,,,,scene,64,155,silent,old,red,1194.517891,None,1194.517891,None,5,4.146248001,1194.517891,None,4.146248001,1198.68468,None,1199.198691,None,1199.198691,None,r,0.4574647,1199.198691,None,0.4574647,,,Nov18Silent3,88,2022_Nov_18_1527,ProdSingRedoBetween,2021.2.3,59.94553348
,,,,155,0,155,0,,,,,,,,,,,,,,,,,,,,,,1204.105282,None,,,,,,,,,,,,,,,,,nation,164,156,silent,new,null,1200.198791,None,1200.198791,None,3,2.705280201,1200.198791,None,2.705280201,1202.918788,None,1203.422441,None,1203.422441,None,f,0.657685501,1203.422441,None,0.657685501,,,Nov18Silent3,88,2022_Nov_18_1527,ProdSingRedoBetween,2021.2.3,59.94553348
,,,,156,0,156,0,,,,,,,,,,,,,,,,,,,,,,1207.49025,None,,,,,,,,,,,,,,,,,revolution,75,157,silent,old,red,1204.629137,None,1204.629137,None,3,1.9869469,1204.629137,None,1.9869469,1206.640654,None,1207.145561,None,1207.145561,None,f,0.3184643,1207.145561,None,0.3184643,,,Nov18Silent3,88,2022_Nov_18_1527,ProdSingRedoBetween,2021.2.3,59.94553348
,,,,157,0,157,0,,,,,,,,,,,,,,,,,,,,,,1214.030072,None,,,,,,,,,,,,,,,,,empty,65,158,silent,old,red,1207.993777,None,1207.993777,None,4,5.1663069,1207.993777,None,5.1663069,1213.180442,None,1213.679861,None,1213.679861,None,f,0.3202307,1213.679861,None,0.3202307,,,Nov18Silent3,88,2022_Nov_18_1527,ProdSingRedoBetween,2021.2.3,59.94553348
,,,,158,0,158,0,,,,,,,,,,,,,,,,,,,,,,1217.516647,None,,,,,,,,,,,,,,,,,signal,145,159,silent,new,null,1214.532475,None,1214.532475,None,1,1.4196223,1214.532475,None,1.4196223,1215.983149,None,1216.485326,None,1216.485326,None,n,1.0028324,1216.485326,None,1.0028324,,,Nov18Silent3,88,2022_Nov_18_1527,ProdSingRedoBetween,2021.2.3,59.94553348
,,,,159,0,159,0,,,,,,,,,,,,,,,,,,,,,,1220.594081,None,,,,,,,,,,,,,,,,,rural,15,160,silent,old,yellow,1218.019175,None,1218.019175,None,1,1.5167878,1218.019175,None,1.5167878,1219.552282,None,1220.05536,None,1220.05536,None,n,0.5126103,1220.05536,None,0.5126103,,,Nov18Silent3,88,2022_Nov_18_1527,ProdSingRedoBetween,2021.2.3,59.94553348
,,,,160,0,160,0,,,,,,,,,,,,,,,,,,,,,,1223.873272,None,,,,,,,,,,,,,,,,,center,93,161,silent,new,null,1221.106088,None,1221.106088,None,1,1.6059027,1221.106088,None,1.6059027,1222.738774,None,1223.241955,None,1223.241955,None,n,0.6140435,1223.241955,None,0.6140435,,,Nov18Silent3,88,2022_Nov_18_1527,ProdSingRedoBetween,2021.2.3,59.94553348
,,,,161,0,161,0,,,,,,,,,,,,,,,,,,,,,,1226.992996,None,,,,,,,,,,,,,,,,,career,143,162,silent,new,null,1224.379709,None,1224.379709,None,1,1.612299399,1224.379709,None,1.612299399,1226.00927,None,1226.511174,None,1226.511174,None,n,0.4648158,1226.511174,None,0.4648158,,,Nov18Silent3,88,2022_Nov_18_1527,ProdSingRedoBetween,2021.2.3,59.94553348
,,,,162,0,162,0,,,,,,,,,,,,,,,,,,,,,,1230.217566,None,,,,,,,,,,,,,,,,,universal,44,163,silent,old,blue,1227.504729,None,1227.504729,None,6,1.4392615,1227.504729,None,1.4392615,1228.964033,None,1229.478924,None,1229.478924,None,r,0.7054349,1229.478924,None,0.7054349,,,Nov18Silent3,88,2022_Nov_18_1527,ProdSingRedoBetween,2021.2.3,59.94553348
,,,,163,0,163,0,,,,,,,,,,,,,,,,,,,,,,1233.984972,None,,,,,,,,,,,,,,,,,sound,156,164,silent,new,null,1230.735799,None,1230.735799,None,3,2.248252301,1230.735799,None,2.248252301,1232.999247,None,1233.50328,None,1233.50328,None,f,0.457045,1233.50328,None,0.457045,,,Nov18Silent3,88,2022_Nov_18_1527,ProdSingRedoBetween,2021.2.3,59.94553348
,,,,164,0,164,0,,,,,,,,,,,,,,,,,,,,,,1237.119703,None,,,,,,,,,,,,,,,,,device,132,165,silent,new,null,1234.514965,None,1234.514965,None,1,1.9812189,1234.514965,None,1.9812189,1236.518997,None,1237.021474,None,1237.021474,None,n,0.0744324,1237.021474,None,0.0744324,,,Nov18Silent3,88,2022_Nov_18_1527,ProdSingRedoBetween,2021.2.3,59.94553348
,,,,165,0,165,0,,,,,,,,,,,,,,,,,,,,,,1241.006993,None,,,,,,,,,,,,,,,,,substance,80,166,silent,old,red,1237.623607,None,1237.623607,None,3,2.1444213,1237.623607,None,2.1444213,1239.793526,None,1240.310782,None,1240.310782,None,f,0.6652232,1240.310782,None,0.6652232,,,Nov18Silent3,88,2022_Nov_18_1527,ProdSingRedoBetween,2021.2.3,59.94553348
,,,,166,0,166,0,,,,,,,,,,,,,,,,,,,,,,1246.696002,None,,,,,,,,,,,,,,,,,government,85,167,silent,old,red,1241.508988,None,1241.508988,None,2,3.851174399,1241.508988,None,3.851174399,1245.377904,None,1245.879679,None,1245.879679,None,f,0.8003262,1245.879679,None,0.8003262,,,Nov18Silent3,88,2022_Nov_18_1527,ProdSingRedoBetween,2021.2.3,59.94553348
,,,,167,0,167,0,,,,,,,,,,,,,,,,,,,,,,1252.735289,None,,,,,,,,,,,,,,,,,pancakes,117,168,silent,new,null,1247.205356,None,1247.205356,None,1,1.4426727,1247.205356,None,1.4426727,1248.669473,None,1249.185619,None,1249.185619,None,n,3.5184958,1249.185619,None,3.5184958,,,Nov18Silent3,88,2022_Nov_18_1527,ProdSingRedoBetween,2021.2.3,59.94553348
,,,,168,0,168,0,,,,,,,,,,,,,,,,,,,,,,1256.589278,None,,,,,,,,,,,,,,,,,entrance,8,169,silent,old,yellow,1253.24538,None,1253.24538,None,2,1.9704855,1253.24538,None,1.9704855,1255.237844,None,1255.740983,None,1255.740983,None,f,0.8191011,1255.740983,None,0.8191011,,,Nov18Silent3,88,2022_Nov_18_1527,ProdSingRedoBetween,2021.2.3,59.94553348
,,,,169,0,169,0,,,,,,,,,,,,,,,,,,,,,,1262.878787,None,,,,,,,,,,,,,,,,,author,92,170,silent,new,null,1257.096073,None,1257.096073,None,1,4.0799546,1257.096073,None,4.0799546,1261.198468,None,1261.71381,None,1261.71381,None,n,1.1341314,1261.71381,None,1.1341314,,,Nov18Silent3,88,2022_Nov_18_1527,ProdSingRedoBetween,2021.2.3,59.94553348
,,,,170,0,170,0,,,,,,,,,,,,,,,,,,,,,,1267.032927,None,,,,,,,,,,,,,,,,,disease,96,171,silent,new,null,1263.387053,None,1263.387053,None,1,1.7008457,1263.387053,None,1.7008457,1265.114982,None,1265.618398,None,1265.618398,None,n,1.3896009,1265.618398,None,1.3896009,,,Nov18Silent3,88,2022_Nov_18_1527,ProdSingRedoBetween,2021.2.3,59.94553348
,,,,171,0,171,0,,,,,,,,,,,,,,,,,,,,,,1271.637531,None,,,,,,,,,,,,,,,,,committee,177,172,silent,new,null,1267.550155,None,1267.550155,None,1,2.713799,1267.550155,None,2.713799,1270.287159,None,1270.786838,None,1270.786838,None,n,0.8291449,1270.786838,None,0.8291449,,,Nov18Silent3,88,2022_Nov_18_1527,ProdSingRedoBetween,2021.2.3,59.94553348
,,,,172,0,172,0,,,,,,,,,,,,,,,,,,,,,,1274.973895,None,,,,,,,,,,,,,,,,,turkey,125,173,silent,new,null,1272.150351,None,1272.150351,None,1,1.3615718,1272.150351,None,1.3615718,1273.540338,None,1274.043545,None,1274.043545,None,n,0.9004434,1274.043545,None,0.9004434,,,Nov18Silent3,88,2022_Nov_18_1527,ProdSingRedoBetween,2021.2.3,59.94553348
,,,,173,0,173,0,,,,,,,,,,,,,,,,,,,,,,1278.043912,None,,,,,,,,,,,,,,,,,interior,2,174,silent,old,yellow,1275.482313,None,1275.482313,None,3,1.6456189,1275.482313,None,1.6456189,1277.144711,None,1277.643589,None,1277.643589,None,f,0.3723722,1277.643589,None,0.3723722,,,Nov18Silent3,88,2022_Nov_18_1527,ProdSingRedoBetween,2021.2.3,59.94553348
,,,,174,0,174,0,,,,,,,,,,,,,,,,,,,,,,1281.347032,None,,,,,,,,,,,,,,,,,still,166,175,silent,new,null,1278.552455,None,1278.552455,None,1,1.7195588,1278.552455,None,1.7195588,1280.301264,None,1280.813385,None,1280.813385,None,n,0.5064733,1280.813385,None,0.5064733,,,Nov18Silent3,88,2022_Nov_18_1527,ProdSingRedoBetween,2021.2.3,59.94553348
,,,,175,0,175,0,,,,,,,,,,,,,,,,,,,,,,1285.618137,None,,,,,,,,,,,,,,,,,dance,149,176,silent,new,null,1281.85491,None,1281.85491,None,1,2.544989699,1281.85491,None,2.544989699,1284.417894,None,1284.917529,None,1284.917529,None,n,0.6743172,1284.917529,None,0.6743172,,,Nov18Silent3,88,2022_Nov_18_1527,ProdSingRedoBetween,2021.2.3,59.94553348
,,,,176,0,176,0,,,,,,,,,,,,,,,,,,,,,,1290.606699,None,,,,,,,,,,,,,,,,,appeal,135,177,silent,new,null,1286.120718,None,1286.120718,None,1,3.7912045,1286.120718,None,3.7912045,1289.941786,None,1290.456429,None,1290.456429,None,n,0.1274979,1290.456429,None,0.1274979,,,Nov18Silent3,88,2022_Nov_18_1527,ProdSingRedoBetween,2021.2.3,59.94553348
,,,,177,0,177,0,,,,,,,,,,,,,,,,,,,,,,1298.530996,None,,,,,,,,,,,,,,,,,watch,123,178,silent,new,null,1291.109786,None,1291.109786,None,2,5.826114699,1291.109786,None,5.826114699,1296.963834,None,1297.469925,None,1297.469925,None,n,1.033968001,1297.469925,None,1.033968001,,,Nov18Silent3,88,2022_Nov_18_1527,ProdSingRedoBetween,2021.2.3,59.94553348
,,,,178,0,178,0,,,,,,,,,,,,,,,,,,,,,,1301.767421,None,,,,,,,,,,,,,,,,,skill,57,179,silent,old,blue,1299.034868,None,1299.034868,None,5,1.4131385,1299.034868,None,1.4131385,1300.467125,None,1300.967449,None,1300.967449,None,f,0.784473601,1300.967449,None,0.784473601,,,Nov18Silent3,88,2022_Nov_18_1527,ProdSingRedoBetween,2021.2.3,59.94553348
,,,,179,0,179,0,,,,,,,,,,,,,,,,,,,,,,1305.308144,None,,,,,,,,,,,,,,,,,drama,103,180,silent,new,null,1302.267973,None,1302.267973,None,4,2.219975,1302.267973,None,2.219975,1304.503669,None,1305.010409,None,1305.010409,None,f,0.277750201,1305.010409,None,0.277750201,,,Nov18Silent3,88,2022_Nov_18_1527,ProdSingRedoBetween,2021.2.3,59.94553348
,,,,,,,,,,,,,,,,,,,,,,,,,,,,,,,,,,,,,,,,,,,,,,,,,,,,,,,,,,,,,,,,,,,,,,,,,1305.822279,None,,,,,,
