StudyLoop.thisRepN,StudyLoop.thisTrialN,StudyLoop.thisN,StudyLoop.thisIndex,TestLoop.thisRepN,TestLoop.thisTrialN,TestLoop.thisN,TestLoop.thisIndex,textCondition.started,textCondition.stopped,keyCondition.keys,keyCondition.rt,keyCondition.started,keyCondition.stopped,Condition,textWelcome.started,textWelcome.stopped,keyWelcome.keys,keyWelcome.rt,keyWelcome.started,keyWelcome.stopped,textAloud.started,textAloud.stopped,textSilent.started,textSilent.stopped,textSing.started,textSing.stopped,conditional_text.started,conditional_text.stopped,textBlank500.started,textBlank500.stopped,study_word,study_num,study_order,study_type,word_color,textStudy.started,textStudy.stopped,keyStudy.keys,keyStudy.started,keyStudy.stopped,textTestInstructions.started,textTestInstructions.stopped,key_resp_3.keys,key_resp_3.rt,key_resp_3.started,key_resp_3.stopped,test_word,test_num,test_order,test_condition,old_new_test,test_word_original_color,textConf.started,textConf.stopped,textConfScale.started,textConfScale.stopped,keyConf.keys,keyConf.rt,keyConf.started,keyConf.stopped,confidence response time,textTestBlank.started,textTestBlank.stopped,textRKN.started,textRKN.stopped,textRKNScale.started,textRKNScale.stopped,keyRKN.keys,keyRKN.rt,keyRKN.started,keyRKN.stopped,rkn response time,textEnd.started,textEnd.stopped,participant,session,date,expName,psychopyVersion,frameRate
,,,,,,,,54.3967199,None,b,89.6926821,54.3967199,None,,,,,,,,,,,,,,,,,,,,,,,,,,,,,,,,,,,,,,,,,,,,,,,,,,,,,,,,,,,,,,Nov18Aloud3,89,2022_Nov_18_1551,ProdSingRedoBetween,2021.2.3,59.91102001
,,,,,,,,,,,,,,AloudTest,144.1343788,None,space,11.4191242,144.1343788,None,,,,,,,,,,,,,,,,,,,,,,,,,,,,,,,,,,,,,,,,,,,,,,,,,,,,,,,Nov18Aloud3,89,2022_Nov_18_1551,ProdSingRedoBetween,2021.2.3,59.91102001
0,0,0,0,,,,,,,,,,,,,,,,,,144.1343788,None,144.1343788,None,144.1343788,None,144.1343788,None,158.0944995,None,sweet,26,1,aloud,yellow,156.0801581,None,None,156.0801581,None,,,,,,,,,,,,,,,,,,,,,,,,,,,,,,,,,,,Nov18Aloud3,89,2022_Nov_18_1551,ProdSingRedoBetween,2021.2.3,59.91102001
1,0,1,0,,,,,,,,,,,,,,,,,,,,,,,,,,160.613671,None,crime,79,2,aloud,red,158.6019863,None,None,158.6019863,None,,,,,,,,,,,,,,,,,,,,,,,,,,,,,,,,,,,Nov18Aloud3,89,2022_Nov_18_1551,ProdSingRedoBetween,2021.2.3,59.91102001
2,0,2,0,,,,,,,,,,,,,,,,,,,,,,,,,,163.1326707,None,department,17,3,aloud,yellow,161.118211,None,None,161.118211,None,,,,,,,,,,,,,,,,,,,,,,,,,,,,,,,,,,,Nov18Aloud3,89,2022_Nov_18_1551,ProdSingRedoBetween,2021.2.3,59.91102001
3,0,3,0,,,,,,,,,,,,,,,,,,,,,,,,,,165.6355216,None,sunset,85,4,aloud,red,163.6335892,None,None,163.6335892,None,,,,,,,,,,,,,,,,,,,,,,,,,,,,,,,,,,,Nov18Aloud3,89,2022_Nov_18_1551,ProdSingRedoBetween,2021.2.3,59.91102001
4,0,4,0,,,,,,,,,,,,,,,,,,,,,,,,,,168.1545667,None,curve,43,5,aloud,blue,166.1403773,None,None,166.1403773,None,,,,,,,,,,,,,,,,,,,,,,,,,,,,,,,,,,,Nov18Aloud3,89,2022_Nov_18_1551,ProdSingRedoBetween,2021.2.3,59.91102001
5,0,5,0,,,,,,,,,,,,,,,,,,,,,,,,,,170.6737046,None,swift,31,6,aloud,blue,168.6600208,None,None,168.6600208,None,,,,,,,,,,,,,,,,,,,,,,,,,,,,,,,,,,,Nov18Aloud3,89,2022_Nov_18_1551,ProdSingRedoBetween,2021.2.3,59.91102001
6,0,6,0,,,,,,,,,,,,,,,,,,,,,,,,,,173.1761728,None,colonel,16,7,aloud,yellow,171.1742179,None,None,171.1742179,None,,,,,,,,,,,,,,,,,,,,,,,,,,,,,,,,,,,Nov18Aloud3,89,2022_Nov_18_1551,ProdSingRedoBetween,2021.2.3,59.91102001
7,0,7,0,,,,,,,,,,,,,,,,,,,,,,,,,,175.67873,None,number,18,8,aloud,yellow,173.6767633,None,None,173.6767633,None,,,,,,,,,,,,,,,,,,,,,,,,,,,,,,,,,,,Nov18Aloud3,89,2022_Nov_18_1551,ProdSingRedoBetween,2021.2.3,59.91102001
8,0,8,0,,,,,,,,,,,,,,,,,,,,,,,,,,178.1813594,None,empty,4,9,aloud,yellow,176.1811805,None,None,176.1811805,None,,,,,,,,,,,,,,,,,,,,,,,,,,,,,,,,,,,Nov18Aloud3,89,2022_Nov_18_1551,ProdSingRedoBetween,2021.2.3,59.91102001
9,0,9,0,,,,,,,,,,,,,,,,,,,,,,,,,,180.6836642,None,universal,44,10,aloud,blue,178.6814094,None,None,178.6814094,None,,,,,,,,,,,,,,,,,,,,,,,,,,,,,,,,,,,Nov18Aloud3,89,2022_Nov_18_1551,ProdSingRedoBetween,2021.2.3,59.91102001
10,0,10,0,,,,,,,,,,,,,,,,,,,,,,,,,,183.1861767,None,collection,56,11,aloud,blue,181.1841864,None,None,181.1841864,None,,,,,,,,,,,,,,,,,,,,,,,,,,,,,,,,,,,Nov18Aloud3,89,2022_Nov_18_1551,ProdSingRedoBetween,2021.2.3,59.91102001
11,0,11,0,,,,,,,,,,,,,,,,,,,,,,,,,,185.6887599,None,hunger,62,12,aloud,red,183.6875728,None,None,183.6875728,None,,,,,,,,,,,,,,,,,,,,,,,,,,,,,,,,,,,Nov18Aloud3,89,2022_Nov_18_1551,ProdSingRedoBetween,2021.2.3,59.91102001
12,0,12,0,,,,,,,,,,,,,,,,,,,,,,,,,,188.2078008,None,fellow,42,13,aloud,blue,186.1952847,None,None,186.1952847,None,,,,,,,,,,,,,,,,,,,,,,,,,,,,,,,,,,,Nov18Aloud3,89,2022_Nov_18_1551,ProdSingRedoBetween,2021.2.3,59.91102001
13,0,13,0,,,,,,,,,,,,,,,,,,,,,,,,,,190.7270951,None,enemy,24,14,aloud,yellow,188.7151546,None,None,188.7151546,None,,,,,,,,,,,,,,,,,,,,,,,,,,,,,,,,,,,Nov18Aloud3,89,2022_Nov_18_1551,ProdSingRedoBetween,2021.2.3,59.91102001
14,0,14,0,,,,,,,,,,,,,,,,,,,,,,,,,,193.2294892,None,agreement,84,15,aloud,red,191.2282489,None,None,191.2282489,None,,,,,,,,,,,,,,,,,,,,,,,,,,,,,,,,,,,Nov18Aloud3,89,2022_Nov_18_1551,ProdSingRedoBetween,2021.2.3,59.91102001
15,0,15,0,,,,,,,,,,,,,,,,,,,,,,,,,,195.7319124,None,incident,51,16,aloud,blue,193.7320682,None,None,193.7320682,None,,,,,,,,,,,,,,,,,,,,,,,,,,,,,,,,,,,Nov18Aloud3,89,2022_Nov_18_1551,ProdSingRedoBetween,2021.2.3,59.91102001
16,0,16,0,,,,,,,,,,,,,,,,,,,,,,,,,,198.2513697,None,travel,66,17,aloud,red,196.2386069,None,None,196.2386069,None,,,,,,,,,,,,,,,,,,,,,,,,,,,,,,,,,,,Nov18Aloud3,89,2022_Nov_18_1551,ProdSingRedoBetween,2021.2.3,59.91102001
17,0,17,0,,,,,,,,,,,,,,,,,,,,,,,,,,200.7537707,None,budget,75,18,aloud,red,198.7516866,None,None,198.7516866,None,,,,,,,,,,,,,,,,,,,,,,,,,,,,,,,,,,,Nov18Aloud3,89,2022_Nov_18_1551,ProdSingRedoBetween,2021.2.3,59.91102001
18,0,18,0,,,,,,,,,,,,,,,,,,,,,,,,,,203.2562893,None,junior,9,19,aloud,yellow,201.2562291,None,None,201.2562291,None,,,,,,,,,,,,,,,,,,,,,,,,,,,,,,,,,,,Nov18Aloud3,89,2022_Nov_18_1551,ProdSingRedoBetween,2021.2.3,59.91102001
19,0,19,0,,,,,,,,,,,,,,,,,,,,,,,,,,205.7587594,None,people,10,20,aloud,yellow,203.7585322,None,None,203.7585322,None,,,,,,,,,,,,,,,,,,,,,,,,,,,,,,,,,,,Nov18Aloud3,89,2022_Nov_18_1551,ProdSingRedoBetween,2021.2.3,59.91102001
20,0,20,0,,,,,,,,,,,,,,,,,,,,,,,,,,208.2778615,None,quick,7,21,aloud,yellow,206.2662435,None,None,206.2662435,None,,,,,,,,,,,,,,,,,,,,,,,,,,,,,,,,,,,Nov18Aloud3,89,2022_Nov_18_1551,ProdSingRedoBetween,2021.2.3,59.91102001
21,0,21,0,,,,,,,,,,,,,,,,,,,,,,,,,,210.7803823,None,rural,54,22,aloud,blue,208.7783341,None,None,208.7783341,None,,,,,,,,,,,,,,,,,,,,,,,,,,,,,,,,,,,Nov18Aloud3,89,2022_Nov_18_1551,ProdSingRedoBetween,2021.2.3,59.91102001
22,0,22,0,,,,,,,,,,,,,,,,,,,,,,,,,,213.2828896,None,measure,77,23,aloud,red,211.2807889,None,None,211.2807889,None,,,,,,,,,,,,,,,,,,,,,,,,,,,,,,,,,,,Nov18Aloud3,89,2022_Nov_18_1551,ProdSingRedoBetween,2021.2.3,59.91102001
23,0,23,0,,,,,,,,,,,,,,,,,,,,,,,,,,215.7853992,None,native,72,24,aloud,red,213.7834215,None,None,213.7834215,None,,,,,,,,,,,,,,,,,,,,,,,,,,,,,,,,,,,Nov18Aloud3,89,2022_Nov_18_1551,ProdSingRedoBetween,2021.2.3,59.91102001
24,0,24,0,,,,,,,,,,,,,,,,,,,,,,,,,,218.30464,None,religion,3,25,aloud,yellow,216.2942052,None,None,216.2942052,None,,,,,,,,,,,,,,,,,,,,,,,,,,,,,,,,,,,Nov18Aloud3,89,2022_Nov_18_1551,ProdSingRedoBetween,2021.2.3,59.91102001
25,0,25,0,,,,,,,,,,,,,,,,,,,,,,,,,,220.8237968,None,appearance,47,26,aloud,blue,218.8170439,None,None,218.8170439,None,,,,,,,,,,,,,,,,,,,,,,,,,,,,,,,,,,,Nov18Aloud3,89,2022_Nov_18_1551,ProdSingRedoBetween,2021.2.3,59.91102001
26,0,26,0,,,,,,,,,,,,,,,,,,,,,,,,,,223.343097,None,throw,1,27,aloud,yellow,221.3296307,None,None,221.3296307,None,,,,,,,,,,,,,,,,,,,,,,,,,,,,,,,,,,,Nov18Aloud3,89,2022_Nov_18_1551,ProdSingRedoBetween,2021.2.3,59.91102001
27,0,27,0,,,,,,,,,,,,,,,,,,,,,,,,,,225.8621662,None,report,23,28,aloud,yellow,223.8471359,None,None,223.8471359,None,,,,,,,,,,,,,,,,,,,,,,,,,,,,,,,,,,,Nov18Aloud3,89,2022_Nov_18_1551,ProdSingRedoBetween,2021.2.3,59.91102001
28,0,28,0,,,,,,,,,,,,,,,,,,,,,,,,,,228.3813138,None,treatment,78,29,aloud,red,226.365728,None,None,226.365728,None,,,,,,,,,,,,,,,,,,,,,,,,,,,,,,,,,,,Nov18Aloud3,89,2022_Nov_18_1551,ProdSingRedoBetween,2021.2.3,59.91102001
29,0,29,0,,,,,,,,,,,,,,,,,,,,,,,,,,230.9004374,None,volume,6,30,aloud,yellow,228.8859663,None,None,228.8859663,None,,,,,,,,,,,,,,,,,,,,,,,,,,,,,,,,,,,Nov18Aloud3,89,2022_Nov_18_1551,ProdSingRedoBetween,2021.2.3,59.91102001
30,0,30,0,,,,,,,,,,,,,,,,,,,,,,,,,,233.4029624,None,sleep,81,31,aloud,red,231.4023281,None,None,231.4023281,None,,,,,,,,,,,,,,,,,,,,,,,,,,,,,,,,,,,Nov18Aloud3,89,2022_Nov_18_1551,ProdSingRedoBetween,2021.2.3,59.91102001
31,0,31,0,,,,,,,,,,,,,,,,,,,,,,,,,,235.9221265,None,notice,46,32,aloud,blue,233.9097532,None,None,233.9097532,None,,,,,,,,,,,,,,,,,,,,,,,,,,,,,,,,,,,Nov18Aloud3,89,2022_Nov_18_1551,ProdSingRedoBetween,2021.2.3,59.91102001
32,0,32,0,,,,,,,,,,,,,,,,,,,,,,,,,,238.4409696,None,agency,37,33,aloud,blue,236.4266427,None,None,236.4266427,None,,,,,,,,,,,,,,,,,,,,,,,,,,,,,,,,,,,Nov18Aloud3,89,2022_Nov_18_1551,ProdSingRedoBetween,2021.2.3,59.91102001
33,0,33,0,,,,,,,,,,,,,,,,,,,,,,,,,,240.9438196,None,breath,87,34,aloud,red,238.9415286,None,None,238.9415286,None,,,,,,,,,,,,,,,,,,,,,,,,,,,,,,,,,,,Nov18Aloud3,89,2022_Nov_18_1551,ProdSingRedoBetween,2021.2.3,59.91102001
34,0,34,0,,,,,,,,,,,,,,,,,,,,,,,,,,243.4631298,None,bitter,65,35,aloud,red,241.4486141,None,None,241.4486141,None,,,,,,,,,,,,,,,,,,,,,,,,,,,,,,,,,,,Nov18Aloud3,89,2022_Nov_18_1551,ProdSingRedoBetween,2021.2.3,59.91102001
35,0,35,0,,,,,,,,,,,,,,,,,,,,,,,,,,245.9655336,None,portion,38,36,aloud,blue,243.9664979,None,None,243.9664979,None,,,,,,,,,,,,,,,,,,,,,,,,,,,,,,,,,,,Nov18Aloud3,89,2022_Nov_18_1551,ProdSingRedoBetween,2021.2.3,59.91102001
36,0,36,0,,,,,,,,,,,,,,,,,,,,,,,,,,248.4846901,None,military,14,37,aloud,yellow,246.4691472,None,None,246.4691472,None,,,,,,,,,,,,,,,,,,,,,,,,,,,,,,,,,,,Nov18Aloud3,89,2022_Nov_18_1551,ProdSingRedoBetween,2021.2.3,59.91102001
37,0,37,0,,,,,,,,,,,,,,,,,,,,,,,,,,250.9872107,None,stranger,88,38,aloud,red,248.9861045,None,None,248.9861045,None,,,,,,,,,,,,,,,,,,,,,,,,,,,,,,,,,,,Nov18Aloud3,89,2022_Nov_18_1551,ProdSingRedoBetween,2021.2.3,59.91102001
38,0,38,0,,,,,,,,,,,,,,,,,,,,,,,,,,253.4896364,None,produce,83,39,aloud,red,251.4889003,None,None,251.4889003,None,,,,,,,,,,,,,,,,,,,,,,,,,,,,,,,,,,,Nov18Aloud3,89,2022_Nov_18_1551,ProdSingRedoBetween,2021.2.3,59.91102001
39,0,39,0,,,,,,,,,,,,,,,,,,,,,,,,,,255.9921976,None,beauty,73,40,aloud,red,253.9905401,None,None,253.9905401,None,,,,,,,,,,,,,,,,,,,,,,,,,,,,,,,,,,,Nov18Aloud3,89,2022_Nov_18_1551,ProdSingRedoBetween,2021.2.3,59.91102001
40,0,40,0,,,,,,,,,,,,,,,,,,,,,,,,,,258.5115877,None,committee,74,41,aloud,red,256.4966314,None,None,256.4966314,None,,,,,,,,,,,,,,,,,,,,,,,,,,,,,,,,,,,Nov18Aloud3,89,2022_Nov_18_1551,ProdSingRedoBetween,2021.2.3,59.91102001
41,0,41,0,,,,,,,,,,,,,,,,,,,,,,,,,,261.013781,None,motion,53,42,aloud,blue,259.0120526,None,None,259.0120526,None,,,,,,,,,,,,,,,,,,,,,,,,,,,,,,,,,,,Nov18Aloud3,89,2022_Nov_18_1551,ProdSingRedoBetween,2021.2.3,59.91102001
42,0,42,0,,,,,,,,,,,,,,,,,,,,,,,,,,263.5331283,None,general,48,43,aloud,blue,261.5217598,None,None,261.5217598,None,,,,,,,,,,,,,,,,,,,,,,,,,,,,,,,,,,,Nov18Aloud3,89,2022_Nov_18_1551,ProdSingRedoBetween,2021.2.3,59.91102001
43,0,43,0,,,,,,,,,,,,,,,,,,,,,,,,,,266.0522299,None,guest,49,44,aloud,blue,264.0396705,None,None,264.0396705,None,,,,,,,,,,,,,,,,,,,,,,,,,,,,,,,,,,,Nov18Aloud3,89,2022_Nov_18_1551,ProdSingRedoBetween,2021.2.3,59.91102001
44,0,44,0,,,,,,,,,,,,,,,,,,,,,,,,,,268.5544436,None,prime,67,45,aloud,red,266.5528225,None,None,266.5528225,None,,,,,,,,,,,,,,,,,,,,,,,,,,,,,,,,,,,Nov18Aloud3,89,2022_Nov_18_1551,ProdSingRedoBetween,2021.2.3,59.91102001
45,0,45,0,,,,,,,,,,,,,,,,,,,,,,,,,,271.0572357,None,build,5,46,aloud,yellow,269.0550581,None,None,269.0550581,None,,,,,,,,,,,,,,,,,,,,,,,,,,,,,,,,,,,Nov18Aloud3,89,2022_Nov_18_1551,ProdSingRedoBetween,2021.2.3,59.91102001
46,0,46,0,,,,,,,,,,,,,,,,,,,,,,,,,,273.5763421,None,patient,22,47,aloud,yellow,271.5620739,None,None,271.5620739,None,,,,,,,,,,,,,,,,,,,,,,,,,,,,,,,,,,,Nov18Aloud3,89,2022_Nov_18_1551,ProdSingRedoBetween,2021.2.3,59.91102001
47,0,47,0,,,,,,,,,,,,,,,,,,,,,,,,,,276.0787863,None,meeting,52,48,aloud,blue,274.0776733,None,None,274.0776733,None,,,,,,,,,,,,,,,,,,,,,,,,,,,,,,,,,,,Nov18Aloud3,89,2022_Nov_18_1551,ProdSingRedoBetween,2021.2.3,59.91102001
48,0,48,0,,,,,,,,,,,,,,,,,,,,,,,,,,278.5980315,None,business,12,49,aloud,yellow,276.5867771,None,None,276.5867771,None,,,,,,,,,,,,,,,,,,,,,,,,,,,,,,,,,,,Nov18Aloud3,89,2022_Nov_18_1551,ProdSingRedoBetween,2021.2.3,59.91102001
49,0,49,0,,,,,,,,,,,,,,,,,,,,,,,,,,281.1174208,None,cousin,25,50,aloud,yellow,279.1024721,None,None,279.1024721,None,,,,,,,,,,,,,,,,,,,,,,,,,,,,,,,,,,,Nov18Aloud3,89,2022_Nov_18_1551,ProdSingRedoBetween,2021.2.3,59.91102001
50,0,50,0,,,,,,,,,,,,,,,,,,,,,,,,,,283.619699,None,error,80,51,aloud,red,281.6200662,None,None,281.6200662,None,,,,,,,,,,,,,,,,,,,,,,,,,,,,,,,,,,,Nov18Aloud3,89,2022_Nov_18_1551,ProdSingRedoBetween,2021.2.3,59.91102001
51,0,51,0,,,,,,,,,,,,,,,,,,,,,,,,,,286.1387874,None,property,76,52,aloud,red,284.1302433,None,None,284.1302433,None,,,,,,,,,,,,,,,,,,,,,,,,,,,,,,,,,,,Nov18Aloud3,89,2022_Nov_18_1551,ProdSingRedoBetween,2021.2.3,59.91102001
52,0,52,0,,,,,,,,,,,,,,,,,,,,,,,,,,288.6581578,None,private,39,53,aloud,blue,286.6440652,None,None,286.6440652,None,,,,,,,,,,,,,,,,,,,,,,,,,,,,,,,,,,,Nov18Aloud3,89,2022_Nov_18_1551,ProdSingRedoBetween,2021.2.3,59.91102001
53,0,53,0,,,,,,,,,,,,,,,,,,,,,,,,,,291.1605987,None,length,32,54,aloud,blue,289.1605412,None,None,289.1605412,None,,,,,,,,,,,,,,,,,,,,,,,,,,,,,,,,,,,Nov18Aloud3,89,2022_Nov_18_1551,ProdSingRedoBetween,2021.2.3,59.91102001
54,0,54,0,,,,,,,,,,,,,,,,,,,,,,,,,,293.6797095,None,production,2,55,aloud,yellow,291.6669752,None,None,291.6669752,None,,,,,,,,,,,,,,,,,,,,,,,,,,,,,,,,,,,Nov18Aloud3,89,2022_Nov_18_1551,ProdSingRedoBetween,2021.2.3,59.91102001
55,0,55,0,,,,,,,,,,,,,,,,,,,,,,,,,,296.1823004,None,orchestra,0,56,aloud,yellow,294.1802544,None,None,294.1802544,None,,,,,,,,,,,,,,,,,,,,,,,,,,,,,,,,,,,Nov18Aloud3,89,2022_Nov_18_1551,ProdSingRedoBetween,2021.2.3,59.91102001
56,0,56,0,,,,,,,,,,,,,,,,,,,,,,,,,,298.6845218,None,drama,15,57,aloud,yellow,296.683294,None,None,296.683294,None,,,,,,,,,,,,,,,,,,,,,,,,,,,,,,,,,,,Nov18Aloud3,89,2022_Nov_18_1551,ProdSingRedoBetween,2021.2.3,59.91102001
57,0,57,0,,,,,,,,,,,,,,,,,,,,,,,,,,301.1872088,None,country,61,58,aloud,red,299.1851971,None,None,299.1851971,None,,,,,,,,,,,,,,,,,,,,,,,,,,,,,,,,,,,Nov18Aloud3,89,2022_Nov_18_1551,ProdSingRedoBetween,2021.2.3,59.91102001
58,0,58,0,,,,,,,,,,,,,,,,,,,,,,,,,,303.6897092,None,personnel,30,59,aloud,blue,301.6877554,None,None,301.6877554,None,,,,,,,,,,,,,,,,,,,,,,,,,,,,,,,,,,,Nov18Aloud3,89,2022_Nov_18_1551,ProdSingRedoBetween,2021.2.3,59.91102001
59,0,59,0,,,,,,,,,,,,,,,,,,,,,,,,,,306.1922616,None,republic,60,60,aloud,red,304.1907339,None,None,304.1907339,None,,,,,,,,,,,,,,,,,,,,,,,,,,,,,,,,,,,Nov18Aloud3,89,2022_Nov_18_1551,ProdSingRedoBetween,2021.2.3,59.91102001
60,0,60,0,,,,,,,,,,,,,,,,,,,,,,,,,,308.6947086,None,quarter,64,61,aloud,red,306.695061,None,None,306.695061,None,,,,,,,,,,,,,,,,,,,,,,,,,,,,,,,,,,,Nov18Aloud3,89,2022_Nov_18_1551,ProdSingRedoBetween,2021.2.3,59.91102001
61,0,61,0,,,,,,,,,,,,,,,,,,,,,,,,,,311.2136101,None,reading,69,62,aloud,red,309.1985294,None,None,309.1985294,None,,,,,,,,,,,,,,,,,,,,,,,,,,,,,,,,,,,Nov18Aloud3,89,2022_Nov_18_1551,ProdSingRedoBetween,2021.2.3,59.91102001
62,0,62,0,,,,,,,,,,,,,,,,,,,,,,,,,,313.7164294,None,novel,11,63,aloud,yellow,311.7144381,None,None,311.7144381,None,,,,,,,,,,,,,,,,,,,,,,,,,,,,,,,,,,,Nov18Aloud3,89,2022_Nov_18_1551,ProdSingRedoBetween,2021.2.3,59.91102001
63,0,63,0,,,,,,,,,,,,,,,,,,,,,,,,,,316.219017,None,account,20,64,aloud,yellow,314.2173925,None,None,314.2173925,None,,,,,,,,,,,,,,,,,,,,,,,,,,,,,,,,,,,Nov18Aloud3,89,2022_Nov_18_1551,ProdSingRedoBetween,2021.2.3,59.91102001
64,0,64,0,,,,,,,,,,,,,,,,,,,,,,,,,,318.7378373,None,style,45,65,aloud,blue,316.7254828,None,None,316.7254828,None,,,,,,,,,,,,,,,,,,,,,,,,,,,,,,,,,,,Nov18Aloud3,89,2022_Nov_18_1551,ProdSingRedoBetween,2021.2.3,59.91102001
65,0,65,0,,,,,,,,,,,,,,,,,,,,,,,,,,321.2572254,None,conference,35,66,aloud,blue,319.2417254,None,None,319.2417254,None,,,,,,,,,,,,,,,,,,,,,,,,,,,,,,,,,,,Nov18Aloud3,89,2022_Nov_18_1551,ProdSingRedoBetween,2021.2.3,59.91102001
66,0,66,0,,,,,,,,,,,,,,,,,,,,,,,,,,323.7764173,None,benefit,68,67,aloud,red,321.7623169,None,None,321.7623169,None,,,,,,,,,,,,,,,,,,,,,,,,,,,,,,,,,,,Nov18Aloud3,89,2022_Nov_18_1551,ProdSingRedoBetween,2021.2.3,59.91102001
67,0,67,0,,,,,,,,,,,,,,,,,,,,,,,,,,326.2789376,None,individual,29,68,aloud,blue,324.2770014,None,None,324.2770014,None,,,,,,,,,,,,,,,,,,,,,,,,,,,,,,,,,,,Nov18Aloud3,89,2022_Nov_18_1551,ProdSingRedoBetween,2021.2.3,59.91102001
68,0,68,0,,,,,,,,,,,,,,,,,,,,,,,,,,328.7980768,None,afternoon,13,69,aloud,yellow,326.7853831,None,None,326.7853831,None,,,,,,,,,,,,,,,,,,,,,,,,,,,,,,,,,,,Nov18Aloud3,89,2022_Nov_18_1551,ProdSingRedoBetween,2021.2.3,59.91102001
69,0,69,0,,,,,,,,,,,,,,,,,,,,,,,,,,331.3005824,None,fight,50,70,aloud,blue,329.2986217,None,None,329.2986217,None,,,,,,,,,,,,,,,,,,,,,,,,,,,,,,,,,,,Nov18Aloud3,89,2022_Nov_18_1551,ProdSingRedoBetween,2021.2.3,59.91102001
70,0,70,0,,,,,,,,,,,,,,,,,,,,,,,,,,333.8197026,None,concern,33,71,aloud,blue,331.8070999,None,None,331.8070999,None,,,,,,,,,,,,,,,,,,,,,,,,,,,,,,,,,,,Nov18Aloud3,89,2022_Nov_18_1551,ProdSingRedoBetween,2021.2.3,59.91102001
71,0,71,0,,,,,,,,,,,,,,,,,,,,,,,,,,336.3219784,None,judge,34,72,aloud,blue,334.3202432,None,None,334.3202432,None,,,,,,,,,,,,,,,,,,,,,,,,,,,,,,,,,,,Nov18Aloud3,89,2022_Nov_18_1551,ProdSingRedoBetween,2021.2.3,59.91102001
72,0,72,0,,,,,,,,,,,,,,,,,,,,,,,,,,338.8247813,None,contract,86,73,aloud,red,336.8227733,None,None,336.8227733,None,,,,,,,,,,,,,,,,,,,,,,,,,,,,,,,,,,,Nov18Aloud3,89,2022_Nov_18_1551,ProdSingRedoBetween,2021.2.3,59.91102001
73,0,73,0,,,,,,,,,,,,,,,,,,,,,,,,,,341.3272336,None,graduate,55,74,aloud,blue,339.3266999,None,None,339.3266999,None,,,,,,,,,,,,,,,,,,,,,,,,,,,,,,,,,,,Nov18Aloud3,89,2022_Nov_18_1551,ProdSingRedoBetween,2021.2.3,59.91102001
74,0,74,0,,,,,,,,,,,,,,,,,,,,,,,,,,343.8464303,None,welcome,71,75,aloud,red,341.8378933,None,None,341.8378933,None,,,,,,,,,,,,,,,,,,,,,,,,,,,,,,,,,,,Nov18Aloud3,89,2022_Nov_18_1551,ProdSingRedoBetween,2021.2.3,59.91102001
75,0,75,0,,,,,,,,,,,,,,,,,,,,,,,,,,346.3489066,None,bureau,21,76,aloud,yellow,344.3469885,None,None,344.3469885,None,,,,,,,,,,,,,,,,,,,,,,,,,,,,,,,,,,,Nov18Aloud3,89,2022_Nov_18_1551,ProdSingRedoBetween,2021.2.3,59.91102001
76,0,76,0,,,,,,,,,,,,,,,,,,,,,,,,,,348.8514601,None,dispute,40,77,aloud,blue,346.8493075,None,None,346.8493075,None,,,,,,,,,,,,,,,,,,,,,,,,,,,,,,,,,,,Nov18Aloud3,89,2022_Nov_18_1551,ProdSingRedoBetween,2021.2.3,59.91102001
77,0,77,0,,,,,,,,,,,,,,,,,,,,,,,,,,351.3707559,None,murder,59,78,aloud,yellow,349.3562064,None,None,349.3562064,None,,,,,,,,,,,,,,,,,,,,,,,,,,,,,,,,,,,Nov18Aloud3,89,2022_Nov_18_1551,ProdSingRedoBetween,2021.2.3,59.91102001
78,0,78,0,,,,,,,,,,,,,,,,,,,,,,,,,,353.8729417,None,entrance,63,79,aloud,red,351.8720879,None,None,351.8720879,None,,,,,,,,,,,,,,,,,,,,,,,,,,,,,,,,,,,Nov18Aloud3,89,2022_Nov_18_1551,ProdSingRedoBetween,2021.2.3,59.91102001
79,0,79,0,,,,,,,,,,,,,,,,,,,,,,,,,,356.3755734,None,court,89,80,aloud,red,354.3737651,None,None,354.3737651,None,,,,,,,,,,,,,,,,,,,,,,,,,,,,,,,,,,,Nov18Aloud3,89,2022_Nov_18_1551,ProdSingRedoBetween,2021.2.3,59.91102001
80,0,80,0,,,,,,,,,,,,,,,,,,,,,,,,,,358.8779261,None,clear,58,81,aloud,blue,356.8760701,None,None,356.8760701,None,,,,,,,,,,,,,,,,,,,,,,,,,,,,,,,,,,,Nov18Aloud3,89,2022_Nov_18_1551,ProdSingRedoBetween,2021.2.3,59.91102001
81,0,81,0,,,,,,,,,,,,,,,,,,,,,,,,,,361.3806067,None,rapid,82,82,aloud,red,359.3787259,None,None,359.3787259,None,,,,,,,,,,,,,,,,,,,,,,,,,,,,,,,,,,,Nov18Aloud3,89,2022_Nov_18_1551,ProdSingRedoBetween,2021.2.3,59.91102001
82,0,82,0,,,,,,,,,,,,,,,,,,,,,,,,,,363.8997578,None,science,41,83,aloud,blue,361.8872541,None,None,361.8872541,None,,,,,,,,,,,,,,,,,,,,,,,,,,,,,,,,,,,Nov18Aloud3,89,2022_Nov_18_1551,ProdSingRedoBetween,2021.2.3,59.91102001
83,0,83,0,,,,,,,,,,,,,,,,,,,,,,,,,,366.4190298,None,straight,28,84,aloud,yellow,364.4079542,None,None,364.4079542,None,,,,,,,,,,,,,,,,,,,,,,,,,,,,,,,,,,,Nov18Aloud3,89,2022_Nov_18_1551,ProdSingRedoBetween,2021.2.3,59.91102001
84,0,84,0,,,,,,,,,,,,,,,,,,,,,,,,,,368.9381446,None,beginning,36,85,aloud,blue,366.9228279,None,None,366.9228279,None,,,,,,,,,,,,,,,,,,,,,,,,,,,,,,,,,,,Nov18Aloud3,89,2022_Nov_18_1551,ProdSingRedoBetween,2021.2.3,59.91102001
85,0,85,0,,,,,,,,,,,,,,,,,,,,,,,,,,371.4407559,None,match,70,86,aloud,red,369.4386336,None,None,369.4386336,None,,,,,,,,,,,,,,,,,,,,,,,,,,,,,,,,,,,Nov18Aloud3,89,2022_Nov_18_1551,ProdSingRedoBetween,2021.2.3,59.91102001
86,0,86,0,,,,,,,,,,,,,,,,,,,,,,,,,,373.9431258,None,public,57,87,aloud,blue,371.9417494,None,None,371.9417494,None,,,,,,,,,,,,,,,,,,,,,,,,,,,,,,,,,,,Nov18Aloud3,89,2022_Nov_18_1551,ProdSingRedoBetween,2021.2.3,59.91102001
87,0,87,0,,,,,,,,,,,,,,,,,,,,,,,,,,376.4455746,None,author,8,88,aloud,yellow,374.4439387,None,None,374.4439387,None,,,,,,,,,,,,,,,,,,,,,,,,,,,,,,,,,,,Nov18Aloud3,89,2022_Nov_18_1551,ProdSingRedoBetween,2021.2.3,59.91102001
88,0,88,0,,,,,,,,,,,,,,,,,,,,,,,,,,378.9648317,None,course,19,89,aloud,yellow,376.9516188,None,None,376.9516188,None,,,,,,,,,,,,,,,,,,,,,,,,,,,,,,,,,,,Nov18Aloud3,89,2022_Nov_18_1551,ProdSingRedoBetween,2021.2.3,59.91102001
89,0,89,0,,,,,,,,,,,,,,,,,,,,,,,,,,381.4672743,None,theme,27,90,aloud,yellow,379.4652494,None,None,379.4652494,None,,,,,,,,,,,,,,,,,,,,,,,,,,,,,,,,,,,Nov18Aloud3,89,2022_Nov_18_1551,ProdSingRedoBetween,2021.2.3,59.91102001
,,,,,,,,,,,,,,,,,,,,,,,,,,,,,,,,,,,,,,,,,381.967997,None,k,71.8330427,381.967997,None,,,,,,,,,,,,,,,,,,,,,,,,,,,,,Nov18Aloud3,89,2022_Nov_18_1551,ProdSingRedoBetween,2021.2.3,59.91102001
,,,,0,0,0,0,,,,,,,,,,,,,,,,,,,,,,466.0516098,None,,,,,,,,,,,,,,,,,cousin,25,1,aloud,old,yellow,454.336719,None,454.336719,None,6,7.9122217,454.336719,None,7.9122217,462.2665564,None,462.7815345,None,462.7815345,None,r,3.2433921,462.7815345,None,3.2433921,,,Nov18Aloud3,89,2022_Nov_18_1551,ProdSingRedoBetween,2021.2.3,59.91102001
,,,,1,0,1,0,,,,,,,,,,,,,,,,,,,,,,474.1764275,None,,,,,,,,,,,,,,,,,generation,96,2,aloud,new,null,466.5548634,None,466.5548634,None,2,4.046086,466.5548634,None,4.046086,470.6237661,None,471.1237946,None,471.1237946,None,r,3.029135699,471.1237946,None,3.029135699,,,Nov18Aloud3,89,2022_Nov_18_1551,ProdSingRedoBetween,2021.2.3,59.91102001
,,,,2,0,2,0,,,,,,,,,,,,,,,,,,,,,,481.0665981,None,,,,,,,,,,,,,,,,,account,20,3,aloud,old,yellow,474.685085,None,474.685085,None,6,3.187824099,474.685085,None,3.187824099,477.8967436,None,478.3970765,None,478.3970765,None,r,2.6438591,478.3970765,None,2.6438591,,,Nov18Aloud3,89,2022_Nov_18_1551,ProdSingRedoBetween,2021.2.3,59.91102001
,,,,3,0,3,0,,,,,,,,,,,,,,,,,,,,,,488.9410904,None,,,,,,,,,,,,,,,,,damage,129,4,aloud,new,null,481.5747769,None,481.5747769,None,3,5.8583344,481.5747769,None,5.8583344,487.4560875,None,487.9587959,None,487.9587959,None,f,0.9621056,487.9587959,None,0.9621056,,,Nov18Aloud3,89,2022_Nov_18_1551,ProdSingRedoBetween,2021.2.3,59.91102001
,,,,4,0,4,0,,,,,,,,,,,,,,,,,,,,,,494.6634954,None,,,,,,,,,,,,,,,,,service,144,5,aloud,new,null,489.4492223,None,489.4492223,None,6,3.375888,489.4492223,None,3.375888,492.8551499,None,493.3672223,None,493.3672223,None,r,1.2656671,493.3672223,None,1.2656671,,,Nov18Aloud3,89,2022_Nov_18_1551,ProdSingRedoBetween,2021.2.3,59.91102001
,,,,5,0,5,0,,,,,,,,,,,,,,,,,,,,,,500.6694376,None,,,,,,,,,,,,,,,,,trial,108,6,aloud,new,null,495.1781579,None,495.1781579,None,1,2.9107691,495.1781579,None,2.9107691,498.1196588,None,498.6372516,None,498.6372516,None,n,2.0036576,498.6372516,None,2.0036576,,,Nov18Aloud3,89,2022_Nov_18_1551,ProdSingRedoBetween,2021.2.3,59.91102001
,,,,6,0,6,0,,,,,,,,,,,,,,,,,,,,,,504.9067807,None,,,,,,,,,,,,,,,,,appearance,47,7,aloud,old,blue,501.1700653,None,501.1700653,None,6,2.2949149,501.1700653,None,2.2949149,503.4929624,None,504.009315,None,504.009315,None,r,0.8715514,504.009315,None,0.8715514,,,Nov18Aloud3,89,2022_Nov_18_1551,ProdSingRedoBetween,2021.2.3,59.91102001
,,,,7,0,7,0,,,,,,,,,,,,,,,,,,,,,,508.2437121,None,,,,,,,,,,,,,,,,,error,80,8,aloud,old,red,505.4137892,None,505.4137892,None,6,1.6832903,505.4137892,None,1.6832903,507.1357904,None,507.6433172,None,507.6433172,None,r,0.581603001,507.6433172,None,0.581603001,,,Nov18Aloud3,89,2022_Nov_18_1551,ProdSingRedoBetween,2021.2.3,59.91102001
,,,,8,0,8,0,,,,,,,,,,,,,,,,,,,,,,512.3478159,None,,,,,,,,,,,,,,,,,expansion,111,9,aloud,new,null,508.7477669,None,508.7477669,None,1,1.9410953,508.7477669,None,1.9410953,510.7141431,None,511.2134087,None,511.2134087,None,n,1.1074373,511.2134087,None,1.1074373,,,Nov18Aloud3,89,2022_Nov_18_1551,ProdSingRedoBetween,2021.2.3,59.91102001
,,,,9,0,9,0,,,,,,,,,,,,,,,,,,,,,,520.3725096,None,,,,,,,,,,,,,,,,,education,177,10,aloud,new,null,512.8571341,None,512.8571341,None,2,4.5436461,512.8571341,None,4.5436461,517.4214312,None,517.9367871,None,517.9367871,None,f,2.4160524,517.9367871,None,2.4160524,,,Nov18Aloud3,89,2022_Nov_18_1551,ProdSingRedoBetween,2021.2.3,59.91102001
,,,,10,0,10,0,,,,,,,,,,,,,,,,,,,,,,525.4143505,None,,,,,,,,,,,,,,,,,passage,152,11,aloud,new,null,520.8730535,None,520.8730535,None,1,2.8318022,520.8730535,None,2.8318022,523.7270438,None,524.227368,None,524.227368,None,n,1.1654396,524.227368,None,1.1654396,,,Nov18Aloud3,89,2022_Nov_18_1551,ProdSingRedoBetween,2021.2.3,59.91102001
,,,,11,0,11,0,,,,,,,,,,,,,,,,,,,,,,530.4825295,None,,,,,,,,,,,,,,,,,problem,90,12,aloud,new,null,525.9280992,None,525.9280992,None,2,2.5048952,525.9280992,None,2.5048952,528.4645379,None,528.9748925,None,528.9748925,None,f,1.4819234,528.9748925,None,1.4819234,,,Nov18Aloud3,89,2022_Nov_18_1551,ProdSingRedoBetween,2021.2.3,59.91102001
,,,,12,0,12,0,,,,,,,,,,,,,,,,,,,,,,535.2539626,None,,,,,,,,,,,,,,,,,community,150,13,aloud,new,null,530.9933361,None,530.9933361,None,3,3.2714752,530.9933361,None,3.2714752,534.2875642,None,534.7907216,None,534.7907216,None,f,0.4421323,534.7907216,None,0.4421323,,,Nov18Aloud3,89,2022_Nov_18_1551,ProdSingRedoBetween,2021.2.3,59.91102001
,,,,13,0,13,0,,,,,,,,,,,,,,,,,,,,,,539.1584342,None,,,,,,,,,,,,,,,,,surface,136,14,aloud,new,null,535.7701337,None,535.7701337,None,1,1.846943701,535.7701337,None,1.846943701,537.6492844,None,538.1569316,None,538.1569316,None,n,0.9718049,538.1569316,None,0.9718049,,,Nov18Aloud3,89,2022_Nov_18_1551,ProdSingRedoBetween,2021.2.3,59.91102001
,,,,14,0,14,0,,,,,,,,,,,,,,,,,,,,,,541.8622222,None,,,,,,,,,,,,,,,,,household,179,15,aloud,new,null,539.661102,None,539.661102,None,1,1.4197991,539.661102,None,1.4197991,541.1115799,None,541.6279657,None,541.6279657,None,n,0.2129586,541.6279657,None,0.2129586,,,Nov18Aloud3,89,2022_Nov_18_1551,ProdSingRedoBetween,2021.2.3,59.91102001
,,,,15,0,15,0,,,,,,,,,,,,,,,,,,,,,,547.5829832,None,,,,,,,,,,,,,,,,,emergency,130,16,aloud,new,null,542.3902614,None,542.3902614,None,4,3.7224795,542.3902614,None,3.7224795,546.1331855,None,546.6540963,None,546.6540963,None,f,0.898730299,546.6540963,None,0.898730299,,,Nov18Aloud3,89,2022_Nov_18_1551,ProdSingRedoBetween,2021.2.3,59.91102001
,,,,16,0,16,0,,,,,,,,,,,,,,,,,,,,,,551.2559097,None,,,,,,,,,,,,,,,,,rural,54,17,aloud,old,blue,548.0957514,None,548.0957514,None,6,1.7289889,548.0957514,None,1.7289889,549.8518328,None,550.3544325,None,550.3544325,None,r,0.8784059,550.3544325,None,0.8784059,,,Nov18Aloud3,89,2022_Nov_18_1551,ProdSingRedoBetween,2021.2.3,59.91102001
,,,,17,0,17,0,,,,,,,,,,,,,,,,,,,,,,555.7596996,None,,,,,,,,,,,,,,,,,match,70,18,aloud,old,red,551.7766311,None,551.7766311,None,1,2.4081517,551.7766311,None,2.4081517,554.2076149,None,554.7235872,None,554.7235872,None,n,1.0132602,554.7235872,None,1.0132602,,,Nov18Aloud3,89,2022_Nov_18_1551,ProdSingRedoBetween,2021.2.3,59.91102001
,,,,18,0,18,0,,,,,,,,,,,,,,,,,,,,,,559.5781922,None,,,,,,,,,,,,,,,,,sound,149,19,aloud,new,null,556.2770045,None,556.2770045,None,1,2.131731,556.2770045,None,2.131731,558.4283988,None,558.9305658,None,558.9305658,None,n,0.6221127,558.9305658,None,0.6221127,,,Nov18Aloud3,89,2022_Nov_18_1551,ProdSingRedoBetween,2021.2.3,59.91102001
,,,,19,0,19,0,,,,,,,,,,,,,,,,,,,,,,562.7980666,None,,,,,,,,,,,,,,,,,stranger,88,20,aloud,old,red,560.0800343,None,560.0800343,None,6,1.6327211,560.0800343,None,1.6327211,561.7317325,None,562.231616,None,562.231616,None,r,0.537229801,562.231616,None,0.537229801,,,Nov18Aloud3,89,2022_Nov_18_1551,ProdSingRedoBetween,2021.2.3,59.91102001
,,,,20,0,20,0,,,,,,,,,,,,,,,,,,,,,,566.155619,None,,,,,,,,,,,,,,,,,public,57,21,aloud,old,blue,563.2984775,None,563.2984775,None,6,1.7502348,563.2984775,None,1.7502348,565.0669467,None,565.5674149,None,565.5674149,None,r,0.5613959,565.5674149,None,0.5613959,,,Nov18Aloud3,89,2022_Nov_18_1551,ProdSingRedoBetween,2021.2.3,59.91102001
,,,,21,0,21,0,,,,,,,,,,,,,,,,,,,,,,569.0540837,None,,,,,,,,,,,,,,,,,bureau,21,22,aloud,old,yellow,566.6686796,None,566.6686796,None,6,1.3321186,566.6686796,None,1.3321186,568.0208944,None,568.5204403,None,568.5204403,None,r,0.5042295,568.5204403,None,0.5042295,,,Nov18Aloud3,89,2022_Nov_18_1551,ProdSingRedoBetween,2021.2.3,59.91102001
,,,,22,0,22,0,,,,,,,,,,,,,,,,,,,,,,573.9091638,None,,,,,,,,,,,,,,,,,science,41,23,aloud,old,blue,569.5634773,None,569.5634773,None,2,2.5572502,569.5634773,None,2.5572502,572.1513477,None,572.6580537,None,572.6580537,None,f,1.2307449,572.6580537,None,1.2307449,,,Nov18Aloud3,89,2022_Nov_18_1551,ProdSingRedoBetween,2021.2.3,59.91102001
,,,,23,0,23,0,,,,,,,,,,,,,,,,,,,,,,577.0621059,None,,,,,,,,,,,,,,,,,produce,83,24,aloud,old,red,574.418516,None,574.418516,None,6,1.526520399,574.418516,None,1.526520399,575.968226,None,576.4804409,None,576.4804409,None,r,0.5603522,576.4804409,None,0.5603522,,,Nov18Aloud3,89,2022_Nov_18_1551,ProdSingRedoBetween,2021.2.3,59.91102001
,,,,24,0,24,0,,,,,,,,,,,,,,,,,,,,,,580.0984569,None,,,,,,,,,,,,,,,,,rough,174,25,aloud,new,null,577.5652565,None,577.5652565,None,1,1.555461,577.5652565,None,1.555461,579.1478095,None,579.6500606,None,579.6500606,None,n,0.4306166,579.6500606,None,0.4306166,,,Nov18Aloud3,89,2022_Nov_18_1551,ProdSingRedoBetween,2021.2.3,59.91102001
,,,,25,0,25,0,,,,,,,,,,,,,,,,,,,,,,585.4066384,None,,,,,,,,,,,,,,,,,department,17,26,aloud,old,yellow,580.6099295,None,580.6099295,None,1,3.7267461,580.6099295,None,3.7267461,584.3529094,None,584.8601882,None,584.8601882,None,n,0.5165753,584.8601882,None,0.5165753,,,Nov18Aloud3,89,2022_Nov_18_1551,ProdSingRedoBetween,2021.2.3,59.91102001
,,,,26,0,26,0,,,,,,,,,,,,,,,,,,,,,,590.5755635,None,,,,,,,,,,,,,,,,,agency,37,27,aloud,old,blue,585.9290905,None,585.9290905,None,3,3.5835353,585.9290905,None,3.5835353,589.5451982,None,590.0687407,None,590.0687407,None,f,0.4919959,590.0687407,None,0.4919959,,,Nov18Aloud3,89,2022_Nov_18_1551,ProdSingRedoBetween,2021.2.3,59.91102001
,,,,27,0,27,0,,,,,,,,,,,,,,,,,,,,,,593.8959042,None,,,,,,,,,,,,,,,,,comfort,102,28,aloud,new,null,591.082937,None,591.082937,None,2,1.6778079,591.082937,None,1.6778079,592.7839127,None,593.2978329,None,593.2978329,None,f,0.567170301,593.2978329,None,0.567170301,,,Nov18Aloud3,89,2022_Nov_18_1551,ProdSingRedoBetween,2021.2.3,59.91102001
,,,,28,0,28,0,,,,,,,,,,,,,,,,,,,,,,597.0689002,None,,,,,,,,,,,,,,,,,center,99,29,aloud,new,null,594.4023394,None,594.4023394,None,1,1.7423776,594.4023394,None,1.7423776,596.1664914,None,596.681955,None,596.681955,None,n,0.3589205,596.681955,None,0.3589205,,,Nov18Aloud3,89,2022_Nov_18_1551,ProdSingRedoBetween,2021.2.3,59.91102001
,,,,29,0,29,0,,,,,,,,,,,,,,,,,,,,,,601.1029597,None,,,,,,,,,,,,,,,,,beginning,36,30,aloud,old,blue,597.5888711,None,597.5888711,None,6,2.4117673,597.5888711,None,2.4117673,600.0190239,None,600.5235247,None,600.5235247,None,r,0.5571999,600.5235247,None,0.5571999,,,Nov18Aloud3,89,2022_Nov_18_1551,ProdSingRedoBetween,2021.2.3,59.91102001
,,,,30,0,30,0,,,,,,,,,,,,,,,,,,,,,,604.7065552,None,,,,,,,,,,,,,,,,,fellow,42,31,aloud,old,blue,601.6145752,None,601.6145752,None,6,1.7861309,601.6145752,None,1.7861309,603.4247796,None,603.9426271,None,603.9426271,None,r,0.7380734,603.9426271,None,0.7380734,,,Nov18Aloud3,89,2022_Nov_18_1551,ProdSingRedoBetween,2021.2.3,59.91102001
,,,,31,0,31,0,,,,,,,,,,,,,,,,,,,,,,607.6301365,None,,,,,,,,,,,,,,,,,youth,123,32,aloud,new,null,605.2210882,None,605.2210882,None,1,1.3476118,605.2210882,None,1.3476118,606.5930266,None,607.0972213,None,607.0972213,None,n,0.5117511,607.0972213,None,0.5117511,,,Nov18Aloud3,89,2022_Nov_18_1551,ProdSingRedoBetween,2021.2.3,59.91102001
,,,,32,0,32,0,,,,,,,,,,,,,,,,,,,,,,612.9814746,None,,,,,,,,,,,,,,,,,concern,33,33,aloud,old,blue,608.1596579,None,608.1596579,None,1,3.777000399,608.1596579,None,3.777000399,611.9644213,None,612.4682797,None,612.4682797,None,n,0.4924242,612.4682797,None,0.4924242,,,Nov18Aloud3,89,2022_Nov_18_1551,ProdSingRedoBetween,2021.2.3,59.91102001
,,,,33,0,33,0,,,,,,,,,,,,,,,,,,,,,,615.7676341,None,,,,,,,,,,,,,,,,,attack,132,34,aloud,new,null,613.49049,None,613.49049,None,1,1.1901942,613.49049,None,1.1901942,614.7012025,None,615.206274,None,615.206274,None,n,0.5384653,615.206274,None,0.5384653,,,Nov18Aloud3,89,2022_Nov_18_1551,ProdSingRedoBetween,2021.2.3,59.91102001
,,,,34,0,34,0,,,,,,,,,,,,,,,,,,,,,,619.2043864,None,,,,,,,,,,,,,,,,,country,61,35,aloud,old,red,616.2850129,None,616.2850129,None,6,1.8596654,616.2850129,None,1.8596654,618.171134,None,618.6733093,None,618.6733093,None,r,0.5114599,618.6733093,None,0.5114599,,,Nov18Aloud3,89,2022_Nov_18_1551,ProdSingRedoBetween,2021.2.3,59.91102001
,,,,35,0,35,0,,,,,,,,,,,,,,,,,,,,,,621.8235953,None,,,,,,,,,,,,,,,,,clean,134,36,aloud,new,null,619.7096185,None,619.7096185,None,1,1.2829219,619.7096185,None,1.2829219,621.0253852,None,621.540497,None,621.540497,None,n,0.2681547,621.540497,None,0.2681547,,,Nov18Aloud3,89,2022_Nov_18_1551,ProdSingRedoBetween,2021.2.3,59.91102001
,,,,36,0,36,0,,,,,,,,,,,,,,,,,,,,,,624.5262695,None,,,,,,,,,,,,,,,,,leader,160,37,aloud,new,null,622.3245159,None,622.3245159,None,1,1.3881547,622.3245159,None,1.3881547,623.7431199,None,624.2427727,None,624.2427727,None,n,0.2538944,624.2427727,None,0.2538944,,,Nov18Aloud3,89,2022_Nov_18_1551,ProdSingRedoBetween,2021.2.3,59.91102001
,,,,37,0,37,0,,,,,,,,,,,,,,,,,,,,,,630.115454,None,,,,,,,,,,,,,,,,,candidate,153,38,aloud,new,null,625.0270075,None,625.0270075,None,1,3.9815437,625.0270075,None,3.9815437,629.0367209,None,629.5482026,None,629.5482026,None,n,0.540409801,629.5482026,None,0.540409801,,,Nov18Aloud3,89,2022_Nov_18_1551,ProdSingRedoBetween,2021.2.3,59.91102001
,,,,38,0,38,0,,,,,,,,,,,,,,,,,,,,,,632.9883547,None,,,,,,,,,,,,,,,,,military,14,39,aloud,old,yellow,630.6243125,None,630.6243125,None,6,1.360358301,630.6243125,None,1.360358301,632.0016701,None,632.5011489,None,632.5011489,None,r,0.459437001,632.5011489,None,0.459437001,,,Nov18Aloud3,89,2022_Nov_18_1551,ProdSingRedoBetween,2021.2.3,59.91102001
,,,,39,0,39,0,,,,,,,,,,,,,,,,,,,,,,637.1723111,None,,,,,,,,,,,,,,,,,report,23,40,aloud,old,yellow,633.5062345,None,633.5062345,None,1,2.774353,633.5062345,None,2.774353,636.3059689,None,636.8053944,None,636.8053944,None,n,0.347309,636.8053944,None,0.347309,,,Nov18Aloud3,89,2022_Nov_18_1551,ProdSingRedoBetween,2021.2.3,59.91102001
,,,,40,0,40,0,,,,,,,,,,,,,,,,,,,,,,640.1920635,None,,,,,,,,,,,,,,,,,death,131,41,aloud,new,null,637.6743498,None,637.6743498,None,1,1.6462979,637.6743498,None,1.6462979,639.3429741,None,639.8597589,None,639.8597589,None,n,0.3009931,639.8597589,None,0.3009931,,,Nov18Aloud3,89,2022_Nov_18_1551,ProdSingRedoBetween,2021.2.3,59.91102001
,,,,41,0,41,0,,,,,,,,,,,,,,,,,,,,,,645.4471263,None,,,,,,,,,,,,,,,,,danger,166,42,aloud,new,null,640.6943093,None,640.6943093,None,2,3.354313401,640.6943093,None,3.354313401,644.0797812,None,644.5797287,None,644.5797287,None,f,0.8449357,644.5797287,None,0.8449357,,,Nov18Aloud3,89,2022_Nov_18_1551,ProdSingRedoBetween,2021.2.3,59.91102001
,,,,42,0,42,0,,,,,,,,,,,,,,,,,,,,,,648.5502532,None,,,,,,,,,,,,,,,,,material,148,43,aloud,new,null,645.9538434,None,645.9538434,None,1,1.6628325,645.9538434,None,1.6628325,647.6325334,None,648.135928,None,648.135928,None,n,0.3846674,648.135928,None,0.3846674,,,Nov18Aloud3,89,2022_Nov_18_1551,ProdSingRedoBetween,2021.2.3,59.91102001
,,,,43,0,43,0,,,,,,,,,,,,,,,,,,,,,,652.8377154,None,,,,,,,,,,,,,,,,,opening,95,44,aloud,new,null,649.0606955,None,649.0606955,None,2,2.4359155,649.0606955,None,2.4359155,651.522965,None,652.036903,None,652.036903,None,f,0.771639599,652.036903,None,0.771639599,,,Nov18Aloud3,89,2022_Nov_18_1551,ProdSingRedoBetween,2021.2.3,59.91102001
,,,,44,0,44,0,,,,,,,,,,,,,,,,,,,,,,656.1077096,None,,,,,,,,,,,,,,,,,colonel,16,45,aloud,old,yellow,653.3479261,None,653.3479261,None,6,1.7806108,653.3479261,None,1.7806108,655.1609637,None,655.6743064,None,655.6743064,None,r,0.406250901,655.6743064,None,0.406250901,,,Nov18Aloud3,89,2022_Nov_18_1551,ProdSingRedoBetween,2021.2.3,59.91102001
,,,,45,0,45,0,,,,,,,,,,,,,,,,,,,,,,659.5946691,None,,,,,,,,,,,,,,,,,weather,120,46,aloud,new,null,656.6203684,None,656.6203684,None,1,2.164120601,656.6203684,None,2.164120601,658.814169,None,659.328245,None,659.328245,None,n,0.240368701,659.328245,None,0.240368701,,,Nov18Aloud3,89,2022_Nov_18_1551,ProdSingRedoBetween,2021.2.3,59.91102001
,,,,46,0,46,0,,,,,,,,,,,,,,,,,,,,,,663.0814084,None,,,,,,,,,,,,,,,,,sweet,26,47,aloud,old,yellow,660.1043873,None,660.1043873,None,6,1.9442244,660.1043873,None,1.9442244,662.0648424,None,662.5644039,None,662.5644039,None,r,0.4922052,662.5644039,None,0.4922052,,,Nov18Aloud3,89,2022_Nov_18_1551,ProdSingRedoBetween,2021.2.3,59.91102001
,,,,47,0,47,0,,,,,,,,,,,,,,,,,,,,,,666.2343459,None,,,,,,,,,,,,,,,,,orchestra,0,48,aloud,old,yellow,663.5872958,None,663.5872958,None,6,1.349316,663.5872958,None,1.349316,664.967579,None,665.4731577,None,665.4731577,None,r,0.7354854,665.4731577,None,0.7354854,,,Nov18Aloud3,89,2022_Nov_18_1551,ProdSingRedoBetween,2021.2.3,59.91102001
,,,,48,0,48,0,,,,,,,,,,,,,,,,,,,,,,669.104216,None,,,,,,,,,,,,,,,,,universal,44,49,aloud,old,blue,666.7459449,None,666.7459449,None,6,1.2548322,666.7459449,None,1.2548322,668.024908,None,668.5369387,None,668.5369387,None,r,0.543686301,668.5369387,None,0.543686301,,,Nov18Aloud3,89,2022_Nov_18_1551,ProdSingRedoBetween,2021.2.3,59.91102001
,,,,49,0,49,0,,,,,,,,,,,,,,,,,,,,,,672.4073443,None,,,,,,,,,,,,,,,,,balance,169,50,aloud,new,null,669.6095705,None,669.6095705,None,2,2.0550258,669.6095705,None,2.0550258,671.6909632,None,672.193282,None,672.193282,None,f,0.1992859,672.193282,None,0.1992859,,,Nov18Aloud3,89,2022_Nov_18_1551,ProdSingRedoBetween,2021.2.3,59.91102001
,,,,50,0,50,0,,,,,,,,,,,,,,,,,,,,,,675.0934027,None,,,,,,,,,,,,,,,,,novel,11,51,aloud,old,yellow,672.9134468,None,672.9134468,None,6,1.2151406,672.9134468,None,1.2151406,674.1604752,None,674.663757,None,674.663757,None,r,0.4088624,674.663757,None,0.4088624,,,Nov18Aloud3,89,2022_Nov_18_1551,ProdSingRedoBetween,2021.2.3,59.91102001
,,,,51,0,51,0,,,,,,,,,,,,,,,,,,,,,,678.5967721,None,,,,,,,,,,,,,,,,,mayor,173,52,aloud,new,null,675.5973374,None,675.5973374,None,1,1.5151638,675.5973374,None,1.5151638,677.1289872,None,677.6293852,None,677.6293852,None,n,0.9473365,677.6293852,None,0.9473365,,,Nov18Aloud3,89,2022_Nov_18_1551,ProdSingRedoBetween,2021.2.3,59.91102001
,,,,52,0,52,0,,,,,,,,,,,,,,,,,,,,,,682.0003255,None,,,,,,,,,,,,,,,,,curve,43,53,aloud,old,blue,679.104396,None,679.104396,None,6,1.9441486,679.104396,None,1.9441486,681.0671461,None,681.5687053,None,681.5687053,None,r,0.4078779,681.5687053,None,0.4078779,,,Nov18Aloud3,89,2022_Nov_18_1551,ProdSingRedoBetween,2021.2.3,59.91102001
,,,,53,0,53,0,,,,,,,,,,,,,,,,,,,,,,684.5528942,None,,,,,,,,,,,,,,,,,watch,103,54,aloud,new,null,682.5096864,None,682.5096864,None,1,1.226867001,682.5096864,None,1.226867001,683.7533414,None,684.2698391,None,684.2698391,None,n,0.2666245,684.2698391,None,0.2666245,,,Nov18Aloud3,89,2022_Nov_18_1551,ProdSingRedoBetween,2021.2.3,59.91102001
,,,,54,0,54,0,,,,,,,,,,,,,,,,,,,,,,688.9904974,None,,,,,,,,,,,,,,,,,length,32,55,aloud,old,blue,685.0534577,None,685.0534577,None,1,2.2751661,685.0534577,None,2.2751661,687.3619772,None,687.87302,None,687.87302,None,n,1.0954233,687.87302,None,1.0954233,,,Nov18Aloud3,89,2022_Nov_18_1551,ProdSingRedoBetween,2021.2.3,59.91102001
,,,,55,0,55,0,,,,,,,,,,,,,,,,,,,,,,691.6653255,None,,,,,,,,,,,,,,,,,property,76,56,aloud,old,red,689.4911979,None,689.4911979,None,6,1.1653536,689.4911979,None,1.1653536,690.6754011,None,691.1762142,None,691.1762142,None,r,0.4644508,691.1762142,None,0.4644508,,,Nov18Aloud3,89,2022_Nov_18_1551,ProdSingRedoBetween,2021.2.3,59.91102001
,,,,56,0,56,0,,,,,,,,,,,,,,,,,,,,,,695.5844367,None,,,,,,,,,,,,,,,,,alert,118,57,aloud,new,null,692.1881968,None,692.1881968,None,1,2.436357601,692.1881968,None,2.436357601,694.6462207,None,695.14725,None,695.14725,None,n,0.4052451,695.14725,None,0.4052451,,,Nov18Aloud3,89,2022_Nov_18_1551,ProdSingRedoBetween,2021.2.3,59.91102001
,,,,57,0,57,0,,,,,,,,,,,,,,,,,,,,,,698.533445,None,,,,,,,,,,,,,,,,,religion,3,58,aloud,old,yellow,696.0975989,None,696.0975989,None,6,1.4309415,696.0975989,None,1.4309415,697.558462,None,698.067999,None,698.067999,None,r,0.4366202,698.067999,None,0.4366202,,,Nov18Aloud3,89,2022_Nov_18_1551,ProdSingRedoBetween,2021.2.3,59.91102001
,,,,58,0,58,0,,,,,,,,,,,,,,,,,,,,,,702.7877073,None,,,,,,,,,,,,,,,,,object,170,59,aloud,new,null,699.0457683,None,699.0457683,None,2,1.8346961,699.0457683,None,1.8346961,700.9037421,None,701.4080003,None,701.4080003,None,f,1.3524985,701.4080003,None,1.3524985,,,Nov18Aloud3,89,2022_Nov_18_1551,ProdSingRedoBetween,2021.2.3,59.91102001
,,,,59,0,59,0,,,,,,,,,,,,,,,,,,,,,,705.6406327,None,,,,,,,,,,,,,,,,,month,175,60,aloud,new,null,703.2962075,None,703.2962075,None,1,1.4483457,703.2962075,None,1.4483457,704.7730247,None,705.2778143,None,705.2778143,None,n,0.3467004,705.2778143,None,0.3467004,,,Nov18Aloud3,89,2022_Nov_18_1551,ProdSingRedoBetween,2021.2.3,59.91102001
,,,,60,0,60,0,,,,,,,,,,,,,,,,,,,,,,709.2107861,None,,,,,,,,,,,,,,,,,fight,50,61,aloud,old,blue,706.1409819,None,706.1409819,None,1,2.107470199,706.1409819,None,2.107470199,708.2772872,None,708.7792321,None,708.7792321,None,n,0.4052525,708.7792321,None,0.4052525,,,Nov18Aloud3,89,2022_Nov_18_1551,ProdSingRedoBetween,2021.2.3,59.91102001
,,,,61,0,61,0,,,,,,,,,,,,,,,,,,,,,,712.1675036,None,,,,,,,,,,,,,,,,,prime,67,62,aloud,old,red,709.7180404,None,709.7180404,None,6,1.546480101,709.7180404,None,1.546480101,711.2805433,None,711.7865793,None,711.7865793,None,r,0.357836,711.7865793,None,0.357836,,,Nov18Aloud3,89,2022_Nov_18_1551,ProdSingRedoBetween,2021.2.3,59.91102001
,,,,62,0,62,0,,,,,,,,,,,,,,,,,,,,,,714.6329933,None,,,,,,,,,,,,,,,,,frank,158,63,aloud,new,null,712.6916884,None,712.6916884,None,1,1.1168305,712.6916884,None,1.1168305,713.8367099,None,714.3554048,None,714.3554048,None,n,0.2611597,714.3554048,None,0.2611597,,,Nov18Aloud3,89,2022_Nov_18_1551,ProdSingRedoBetween,2021.2.3,59.91102001
,,,,63,0,63,0,,,,,,,,,,,,,,,,,,,,,,717.2687275,None,,,,,,,,,,,,,,,,,birth,138,64,aloud,new,null,715.1350288,None,715.1350288,None,1,1.2255124,715.1350288,None,1.2255124,716.3855032,None,716.8875423,None,716.8875423,None,n,0.3529619,716.8875423,None,0.3529619,,,Nov18Aloud3,89,2022_Nov_18_1551,ProdSingRedoBetween,2021.2.3,59.91102001
,,,,64,0,64,0,,,,,,,,,,,,,,,,,,,,,,720.455403,None,,,,,,,,,,,,,,,,,business,12,65,aloud,old,yellow,717.776676,None,717.776676,None,6,1.855754601,717.776676,None,1.855754601,719.655345,None,720.1629313,None,720.1629313,None,r,0.269749001,720.1629313,None,0.269749001,,,Nov18Aloud3,89,2022_Nov_18_1551,ProdSingRedoBetween,2021.2.3,59.91102001
,,,,65,0,65,0,,,,,,,,,,,,,,,,,,,,,,723.8753869,None,,,,,,,,,,,,,,,,,payment,164,66,aloud,new,null,720.9598204,None,720.9598204,None,2,2.040734599,720.9598204,None,2.040734599,723.0293517,None,723.5456456,None,723.5456456,None,f,0.3028225,723.5456456,None,0.3028225,,,Nov18Aloud3,89,2022_Nov_18_1551,ProdSingRedoBetween,2021.2.3,59.91102001
,,,,66,0,66,0,,,,,,,,,,,,,,,,,,,,,,726.6956815,None,,,,,,,,,,,,,,,,,author,8,67,aloud,old,yellow,724.3858263,None,724.3858263,None,1,1.438635,724.3858263,None,1.438635,725.8438433,None,726.3472556,None,726.3472556,None,n,0.3173851,726.3472556,None,0.3173851,,,Nov18Aloud3,89,2022_Nov_18_1551,ProdSingRedoBetween,2021.2.3,59.91102001
,,,,67,0,67,0,,,,,,,,,,,,,,,,,,,,,,730.665497,None,,,,,,,,,,,,,,,,,treatment,78,68,aloud,old,red,727.198472,None,727.198472,None,3,2.5859194,727.198472,None,2.5859194,729.8151938,None,730.3281289,None,730.3281289,None,f,0.312390399,730.3281289,None,0.312390399,,,Nov18Aloud3,89,2022_Nov_18_1551,ProdSingRedoBetween,2021.2.3,59.91102001
,,,,68,0,68,0,,,,,,,,,,,,,,,,,,,,,,734.5360115,None,,,,,,,,,,,,,,,,,interview,171,69,aloud,new,null,731.1794464,None,731.1794464,None,1,2.5090392,731.1794464,None,2.5090392,733.7197726,None,734.2242562,None,734.2242562,None,n,0.296229799,734.2242562,None,0.296229799,,,Nov18Aloud3,89,2022_Nov_18_1551,ProdSingRedoBetween,2021.2.3,59.91102001
,,,,69,0,69,0,,,,,,,,,,,,,,,,,,,,,,737.9084541,None,,,,,,,,,,,,,,,,,welcome,71,70,aloud,old,red,735.0428287,None,735.0428287,None,6,1.9815932,735.0428287,None,1.9815932,737.0553155,None,737.5558745,None,737.5558745,None,r,0.332822599,737.5558745,None,0.332822599,,,Nov18Aloud3,89,2022_Nov_18_1551,ProdSingRedoBetween,2021.2.3,59.91102001
,,,,70,0,70,0,,,,,,,,,,,,,,,,,,,,,,740.6087788,None,,,,,,,,,,,,,,,,,character,140,71,aloud,new,null,738.4273812,None,738.4273812,None,1,1.3730876,738.4273812,None,1.3730876,739.8255656,None,740.327471,None,740.327471,None,n,0.2569897,740.327471,None,0.2569897,,,Nov18Aloud3,89,2022_Nov_18_1551,ProdSingRedoBetween,2021.2.3,59.91102001
,,,,71,0,71,0,,,,,,,,,,,,,,,,,,,,,,744.2290004,None,,,,,,,,,,,,,,,,,travel,66,72,aloud,old,red,741.1188299,None,741.1188299,None,2,2.2417253,741.1188299,None,2.2417253,743.3797681,None,743.8984288,None,743.8984288,None,f,0.3020662,743.8984288,None,0.3020662,,,Nov18Aloud3,89,2022_Nov_18_1551,ProdSingRedoBetween,2021.2.3,59.91102001
,,,,72,0,72,0,,,,,,,,,,,,,,,,,,,,,,746.6647671,None,,,,,,,,,,,,,,,,,atmosphere,146,73,aloud,new,null,744.7398295,None,744.7398295,None,1,1.1245454,744.7398295,None,1.1245454,745.8820677,None,746.3862067,None,746.3862067,None,n,0.2622524,746.3862067,None,0.2622524,,,Nov18Aloud3,89,2022_Nov_18_1551,ProdSingRedoBetween,2021.2.3,59.91102001
,,,,73,0,73,0,,,,,,,,,,,,,,,,,,,,,,751.1189993,None,,,,,,,,,,,,,,,,,burden,165,74,aloud,new,null,747.1714645,None,747.1714645,None,1,2.5330011,747.1714645,None,2.5330011,749.7351988,None,750.2385255,None,750.2385255,None,n,0.8579869,750.2385255,None,0.8579869,,,Nov18Aloud3,89,2022_Nov_18_1551,ProdSingRedoBetween,2021.2.3,59.91102001
,,,,74,0,74,0,,,,,,,,,,,,,,,,,,,,,,754.8727594,None,,,,,,,,,,,,,,,,,course,19,75,aloud,old,yellow,751.6226079,None,751.6226079,None,2,2.426059701,751.6226079,None,2.426059701,754.0789711,None,754.5894799,None,754.5894799,None,f,0.266975501,754.5894799,None,0.266975501,,,Nov18Aloud3,89,2022_Nov_18_1551,ProdSingRedoBetween,2021.2.3,59.91102001
,,,,75,0,75,0,,,,,,,,,,,,,,,,,,,,,,759.327416,None,,,,,,,,,,,,,,,,,individual,29,76,aloud,old,blue,755.3787469,None,755.3787469,None,4,2.7576985,755.3787469,None,2.7576985,758.1607885,None,758.6602961,None,758.6602961,None,f,0.636155,758.6602961,None,0.636155,,,Nov18Aloud3,89,2022_Nov_18_1551,ProdSingRedoBetween,2021.2.3,59.91102001
,,,,76,0,76,0,,,,,,,,,,,,,,,,,,,,,,763.7485358,None,,,,,,,,,,,,,,,,,reading,69,77,aloud,old,red,759.8279788,None,759.8279788,None,2,2.5884801,759.8279788,None,2.5884801,762.448943,None,762.9643564,None,762.9643564,None,f,0.7640877,762.9643564,None,0.7640877,,,Nov18Aloud3,89,2022_Nov_18_1551,ProdSingRedoBetween,2021.2.3,59.91102001
,,,,77,0,77,0,,,,,,,,,,,,,,,,,,,,,,766.6678366,None,,,,,,,,,,,,,,,,,murder,59,78,aloud,old,yellow,764.2525344,None,764.2525344,None,1,1.5720318,764.2525344,None,1.5720318,765.850441,None,766.3526545,None,766.3526545,None,n,0.287732,766.3526545,None,0.287732,,,Nov18Aloud3,89,2022_Nov_18_1551,ProdSingRedoBetween,2021.2.3,59.91102001
,,,,78,0,78,0,,,,,,,,,,,,,,,,,,,,,,770.0881399,None,,,,,,,,,,,,,,,,,graduate,55,79,aloud,old,blue,767.185848,None,767.185848,None,6,1.9105507,767.185848,None,1.9105507,769.1222852,None,769.6389214,None,769.6389214,None,r,0.4335061,769.6389214,None,0.4335061,,,Nov18Aloud3,89,2022_Nov_18_1551,ProdSingRedoBetween,2021.2.3,59.91102001
,,,,79,0,79,0,,,,,,,,,,,,,,,,,,,,,,773.1409435,None,,,,,,,,,,,,,,,,,personnel,30,80,aloud,old,blue,770.588782,None,770.588782,None,1,1.771543,770.588782,None,1.771543,772.3988973,None,772.9077721,None,772.9077721,None,n,0.2047218,772.9077721,None,0.2047218,,,Nov18Aloud3,89,2022_Nov_18_1551,ProdSingRedoBetween,2021.2.3,59.91102001
,,,,80,0,80,0,,,,,,,,,,,,,,,,,,,,,,775.9440368,None,,,,,,,,,,,,,,,,,volume,6,81,aloud,old,yellow,773.644087,None,773.644087,None,1,1.252656501,773.644087,None,1.252656501,774.928976,None,775.4455066,None,775.4455066,None,n,0.482892101,775.4455066,None,0.482892101,,,Nov18Aloud3,89,2022_Nov_18_1551,ProdSingRedoBetween,2021.2.3,59.91102001
,,,,81,0,81,0,,,,,,,,,,,,,,,,,,,,,,779.6485649,None,,,,,,,,,,,,,,,,,point,104,82,aloud,new,null,776.4474738,None,776.4474738,None,1,1.976884101,776.4474738,None,1.976884101,778.4484841,None,778.9635965,None,778.9635965,None,n,0.660734301,778.9635965,None,0.660734301,,,Nov18Aloud3,89,2022_Nov_18_1551,ProdSingRedoBetween,2021.2.3,59.91102001
,,,,82,0,82,0,,,,,,,,,,,,,,,,,,,,,,782.7674652,None,,,,,,,,,,,,,,,,,swift,31,83,aloud,old,blue,780.1560001,None,780.1560001,None,1,1.5644245,780.1560001,None,1.5644245,781.7530756,None,782.2670981,None,782.2670981,None,n,0.469320199,782.2670981,None,0.469320199,,,Nov18Aloud3,89,2022_Nov_18_1551,ProdSingRedoBetween,2021.2.3,59.91102001
,,,,83,0,83,0,,,,,,,,,,,,,,,,,,,,,,787.0384244,None,,,,,,,,,,,,,,,,,pressure,168,84,aloud,new,null,783.2783955,None,783.2783955,None,2,2.0420592,783.2783955,None,2.0420592,785.3419134,None,785.8539755,None,785.8539755,None,f,1.1543971,785.8539755,None,1.1543971,,,Nov18Aloud3,89,2022_Nov_18_1551,ProdSingRedoBetween,2021.2.3,59.91102001
,,,,84,0,84,0,,,,,,,,,,,,,,,,,,,,,,789.4739145,None,,,,,,,,,,,,,,,,,native,72,85,aloud,old,red,787.5500516,None,787.5500516,None,6,1.2903525,787.5500516,None,1.2903525,788.856645,None,789.3573266,None,789.3573266,None,r,0.0911733,789.3573266,None,0.0911733,,,Nov18Aloud3,89,2022_Nov_18_1551,ProdSingRedoBetween,2021.2.3,59.91102001
,,,,85,0,85,0,,,,,,,,,,,,,,,,,,,,,,792.0433239,None,,,,,,,,,,,,,,,,,bucket,125,86,aloud,new,null,789.9826102,None,789.9826102,None,1,1.3937769,789.9826102,None,1.3937769,791.4070204,None,791.9126687,None,791.9126687,None,n,0.1036483,791.9126687,None,0.1036483,,,Nov18Aloud3,89,2022_Nov_18_1551,ProdSingRedoBetween,2021.2.3,59.91102001
,,,,86,0,86,0,,,,,,,,,,,,,,,,,,,,,,794.8462637,None,,,,,,,,,,,,,,,,,close,172,87,aloud,new,null,792.5464704,None,792.5464704,None,1,1.541910401,792.5464704,None,1.541910401,794.1142732,None,794.6330904,None,794.6330904,None,n,0.183431,794.6330904,None,0.183431,,,Nov18Aloud3,89,2022_Nov_18_1551,ProdSingRedoBetween,2021.2.3,59.91102001
,,,,87,0,87,0,,,,,,,,,,,,,,,,,,,,,,798.7334674,None,,,,,,,,,,,,,,,,,profession,98,88,aloud,new,null,795.356576,None,795.356576,None,2,1.9717764,795.356576,None,1.9717764,797.3509315,None,797.8659926,None,797.8659926,None,f,0.838305299,797.8659926,None,0.838305299,,,Nov18Aloud3,89,2022_Nov_18_1551,ProdSingRedoBetween,2021.2.3,59.91102001
,,,,88,0,88,0,,,,,,,,,,,,,,,,,,,,,,803.1211257,None,,,,,,,,,,,,,,,,,command,161,89,aloud,new,null,799.2382046,None,799.2382046,None,1,2.506059299,799.2382046,None,2.506059299,801.7699214,None,802.2702622,None,802.2702622,None,n,0.83411,802.2702622,None,0.83411,,,Nov18Aloud3,89,2022_Nov_18_1551,ProdSingRedoBetween,2021.2.3,59.91102001
,,,,89,0,89,0,,,,,,,,,,,,,,,,,,,,,,805.9406652,None,,,,,,,,,,,,,,,,,industry,122,90,aloud,new,null,803.6302378,None,803.6302378,None,1,1.546158301,803.6302378,None,1.546158301,805.2074893,None,805.7104987,None,805.7104987,None,n,0.2019094,805.7104987,None,0.2019094,,,Nov18Aloud3,89,2022_Nov_18_1551,ProdSingRedoBetween,2021.2.3,59.91102001
,,,,90,0,90,0,,,,,,,,,,,,,,,,,,,,,,809.827822,None,,,,,,,,,,,,,,,,,measure,77,91,aloud,old,red,806.4417543,None,806.4417543,None,5,2.4864914,806.4417543,None,2.4864914,808.9468283,None,809.4608926,None,809.4608926,None,f,0.3473987,809.4608926,None,0.3473987,,,Nov18Aloud3,89,2022_Nov_18_1551,ProdSingRedoBetween,2021.2.3,59.91102001
,,,,91,0,91,0,,,,,,,,,,,,,,,,,,,,,,814.9662297,None,,,,,,,,,,,,,,,,,number,18,92,aloud,old,yellow,810.3354341,None,810.3354341,None,3,3.656907599,810.3354341,None,3.656907599,814.0152768,None,814.5159455,None,814.5159455,None,f,0.420368901,814.5159455,None,0.420368901,,,Nov18Aloud3,89,2022_Nov_18_1551,ProdSingRedoBetween,2021.2.3,59.91102001
,,,,92,0,92,0,,,,,,,,,,,,,,,,,,,,,,817.5020726,None,,,,,,,,,,,,,,,,,breath,87,93,aloud,old,red,815.468067,None,815.468067,None,6,1.2603641,815.468067,None,1.2603641,816.7523204,None,817.2569276,None,817.2569276,None,r,0.2154112,817.2569276,None,0.2154112,,,Nov18Aloud3,89,2022_Nov_18_1551,ProdSingRedoBetween,2021.2.3,59.91102001
,,,,93,0,93,0,,,,,,,,,,,,,,,,,,,,,,820.7570486,None,,,,,,,,,,,,,,,,,salary,116,94,aloud,new,null,818.0086904,None,818.0086904,None,2,1.319663299,818.0086904,None,1.319663299,819.3552103,None,819.8600322,None,819.8600322,None,f,0.876379901,819.8600322,None,0.876379901,,,Nov18Aloud3,89,2022_Nov_18_1551,ProdSingRedoBetween,2021.2.3,59.91102001
,,,,94,0,94,0,,,,,,,,,,,,,,,,,,,,,,823.8250448,None,,,,,,,,,,,,,,,,,republic,60,95,aloud,old,red,821.2743102,None,821.2743102,None,6,1.2780205,821.2743102,None,1.2780205,822.5761298,None,823.0912246,None,823.0912246,None,r,0.7170613,823.0912246,None,0.7170613,,,Nov18Aloud3,89,2022_Nov_18_1551,ProdSingRedoBetween,2021.2.3,59.91102001
,,,,95,0,95,0,,,,,,,,,,,,,,,,,,,,,,828.8801608,None,,,,,,,,,,,,,,,,,bitter,65,96,aloud,old,red,824.3266605,None,824.3266605,None,5,1.6577026,824.3266605,None,1.6577026,826.0133451,None,826.5278728,None,826.5278728,None,r,2.336375999,826.5278728,None,2.336375999,,,Nov18Aloud3,89,2022_Nov_18_1551,ProdSingRedoBetween,2021.2.3,59.91102001
,,,,96,0,96,0,,,,,,,,,,,,,,,,,,,,,,833.0509325,None,,,,,,,,,,,,,,,,,sleep,81,97,aloud,old,red,829.3968253,None,829.3968253,None,4,2.7237167,829.3968253,None,2.7237167,832.16202,None,832.6670951,None,832.6670951,None,f,0.3651302,832.6670951,None,0.3651302,,,Nov18Aloud3,89,2022_Nov_18_1551,ProdSingRedoBetween,2021.2.3,59.91102001
,,,,97,0,97,0,,,,,,,,,,,,,,,,,,,,,,837.2719366,None,,,,,,,,,,,,,,,,,executive,115,98,aloud,new,null,833.5526283,None,833.5526283,None,2,2.671861,833.5526283,None,2.671861,836.2643819,None,836.7715342,None,836.7715342,None,f,0.4847642,836.7715342,None,0.4847642,,,Nov18Aloud3,89,2022_Nov_18_1551,ProdSingRedoBetween,2021.2.3,59.91102001
,,,,98,0,98,0,,,,,,,,,,,,,,,,,,,,,,839.9078371,None,,,,,,,,,,,,,,,,,sight,127,99,aloud,new,null,837.7749686,None,837.7749686,None,1,1.2652731,837.7749686,None,1.2652731,839.0597799,None,839.5769679,None,839.5769679,None,n,0.311336599,839.5769679,None,0.311336599,,,Nov18Aloud3,89,2022_Nov_18_1551,ProdSingRedoBetween,2021.2.3,59.91102001
,,,,99,0,99,0,,,,,,,,,,,,,,,,,,,,,,842.6104846,None,,,,,,,,,,,,,,,,,signal,176,100,aloud,new,null,840.4172226,None,840.4172226,None,1,1.2310084,840.4172226,None,1.2310084,841.6770789,None,842.1826681,None,842.1826681,None,n,0.401643299,842.1826681,None,0.401643299,,,Nov18Aloud3,89,2022_Nov_18_1551,ProdSingRedoBetween,2021.2.3,59.91102001
,,,,100,0,100,0,,,,,,,,,,,,,,,,,,,,,,845.763799,None,,,,,,,,,,,,,,,,,notice,46,101,aloud,old,blue,843.11208,None,843.11208,None,1,1.720257699,843.11208,None,1.720257699,844.8642911,None,845.3800356,None,845.3800356,None,n,0.3641699,845.3800356,None,0.3641699,,,Nov18Aloud3,89,2022_Nov_18_1551,ProdSingRedoBetween,2021.2.3,59.91102001
,,,,101,0,101,0,,,,,,,,,,,,,,,,,,,,,,849.0502372,None,,,,,,,,,,,,,,,,,substance,135,102,aloud,new,null,846.2770058,None,846.2770058,None,1,1.89925,846.2770058,None,1.89925,848.2006425,None,848.704782,None,848.704782,None,n,0.327502,848.704782,None,0.327502,,,Nov18Aloud3,89,2022_Nov_18_1551,ProdSingRedoBetween,2021.2.3,59.91102001
,,,,102,0,102,0,,,,,,,,,,,,,,,,,,,,,,853.5248051,None,,,,,,,,,,,,,,,,,discovery,124,103,aloud,new,null,849.5541495,None,849.5541495,None,2,3.062117601,849.5541495,None,3.062117601,852.6394728,None,853.1615505,None,853.1615505,None,f,0.3429483,853.1615505,None,0.3429483,,,Nov18Aloud3,89,2022_Nov_18_1551,ProdSingRedoBetween,2021.2.3,59.91102001
,,,,103,0,103,0,,,,,,,,,,,,,,,,,,,,,,859.5606582,None,,,,,,,,,,,,,,,,,victory,121,104,aloud,new,null,854.0444573,None,854.0444573,None,2,4.6439272,854.0444573,None,4.6439272,858.7113802,None,859.2132806,None,859.2132806,None,f,0.3310922,859.2132806,None,0.3310922,,,Nov18Aloud3,89,2022_Nov_18_1551,ProdSingRedoBetween,2021.2.3,59.91102001
,,,,104,0,104,0,,,,,,,,,,,,,,,,,,,,,,863.4651626,None,,,,,,,,,,,,,,,,,build,5,105,aloud,old,yellow,860.0613767,None,860.0613767,None,4,2.4909096,860.0613767,None,2.4909096,862.5804024,None,863.081096,None,863.081096,None,f,0.3593169,863.081096,None,0.3593169,,,Nov18Aloud3,89,2022_Nov_18_1551,ProdSingRedoBetween,2021.2.3,59.91102001
,,,,105,0,105,0,,,,,,,,,,,,,,,,,,,,,,867.1682685,None,,,,,,,,,,,,,,,,,incident,51,106,aloud,old,blue,863.9742296,None,863.9742296,None,1,2.3219093,863.9742296,None,2.3219093,866.3173832,None,866.8180379,None,866.8180379,None,n,0.3262449,866.8180379,None,0.3262449,,,Nov18Aloud3,89,2022_Nov_18_1551,ProdSingRedoBetween,2021.2.3,59.91102001
,,,,106,0,106,0,,,,,,,,,,,,,,,,,,,,,,869.8877147,None,,,,,,,,,,,,,,,,,medicine,133,107,aloud,new,null,867.6763317,None,867.6763317,None,1,1.2278636,867.6763317,None,1.2278636,868.9227343,None,869.4371139,None,869.4371139,None,n,0.4351277,869.4371139,None,0.4351277,,,Nov18Aloud3,89,2022_Nov_18_1551,ProdSingRedoBetween,2021.2.3,59.91102001
,,,,107,0,107,0,,,,,,,,,,,,,,,,,,,,,,874.3754786,None,,,,,,,,,,,,,,,,,agreement,84,108,aloud,old,red,870.3909488,None,870.3909488,None,3,3.0814126,870.3909488,None,3.0814126,873.4956995,None,874.011315,None,874.011315,None,f,0.348902601,874.011315,None,0.348902601,,,Nov18Aloud3,89,2022_Nov_18_1551,ProdSingRedoBetween,2021.2.3,59.91102001
,,,,108,0,108,0,,,,,,,,,,,,,,,,,,,,,,876.8622427,None,,,,,,,,,,,,,,,,,defeat,112,109,aloud,new,null,874.8863011,None,874.8863011,None,1,1.154180899,874.8863011,None,1.154180899,876.0655077,None,876.577824,None,876.577824,None,n,0.2623089,876.577824,None,0.2623089,,,Nov18Aloud3,89,2022_Nov_18_1551,ProdSingRedoBetween,2021.2.3,59.91102001
,,,,109,0,109,0,,,,,,,,,,,,,,,,,,,,,,881.5159034,None,,,,,,,,,,,,,,,,,general,48,110,aloud,old,blue,877.3701362,None,877.3701362,None,2,3.2540898,877.3701362,None,3.2540898,880.6484172,None,881.1533011,None,881.1533011,None,f,0.3348943,881.1533011,None,0.3348943,,,Nov18Aloud3,89,2022_Nov_18_1551,ProdSingRedoBetween,2021.2.3,59.91102001
,,,,110,0,110,0,,,,,,,,,,,,,,,,,,,,,,884.4244919,None,,,,,,,,,,,,,,,,,style,45,111,aloud,old,blue,882.0184134,None,882.0184134,None,6,1.4697067,882.0184134,None,1.4697067,883.5280611,None,884.0351774,None,884.0351774,None,r,0.3572241,884.0351774,None,0.3572241,,,Nov18Aloud3,89,2022_Nov_18_1551,ProdSingRedoBetween,2021.2.3,59.91102001
,,,,111,0,111,0,,,,,,,,,,,,,,,,,,,,,,886.9213916,None,,,,,,,,,,,,,,,,,music,119,112,aloud,new,null,884.9360955,None,884.9360955,None,1,1.2081283,884.9360955,None,1.2081283,886.1718283,None,886.6755464,None,886.6755464,None,n,0.2207963,886.6755464,None,0.2207963,,,Nov18Aloud3,89,2022_Nov_18_1551,ProdSingRedoBetween,2021.2.3,59.91102001
,,,,112,0,112,0,,,,,,,,,,,,,,,,,,,,,,889.6906946,None,,,,,,,,,,,,,,,,,production,2,113,aloud,old,yellow,887.4295752,None,887.4295752,None,1,1.426646399,887.4295752,None,1.426646399,888.8745218,None,889.3777194,None,889.3777194,None,n,0.2864787,889.3777194,None,0.2864787,,,Nov18Aloud3,89,2022_Nov_18_1551,ProdSingRedoBetween,2021.2.3,59.91102001
,,,,113,0,113,0,,,,,,,,,,,,,,,,,,,,,,892.8948362,None,,,,,,,,,,,,,,,,,silence,91,114,aloud,new,null,890.1916492,None,890.1916492,None,1,1.9286348,890.1916492,None,1.9286348,892.1444659,None,892.6457888,None,892.6457888,None,n,0.2183542,892.6457888,None,0.2183542,,,Nov18Aloud3,89,2022_Nov_18_1551,ProdSingRedoBetween,2021.2.3,59.91102001
,,,,114,0,114,0,,,,,,,,,,,,,,,,,,,,,,895.6634037,None,,,,,,,,,,,,,,,,,junior,9,115,aloud,old,yellow,893.4017505,None,893.4017505,None,6,1.3985563,893.4017505,None,1.3985563,894.829119,None,895.3384183,None,895.3384183,None,r,0.293835101,895.3384183,None,0.293835101,,,Nov18Aloud3,89,2022_Nov_18_1551,ProdSingRedoBetween,2021.2.3,59.91102001
,,,,115,0,115,0,,,,,,,,,,,,,,,,,,,,,,898.4881181,None,,,,,,,,,,,,,,,,,throw,1,116,aloud,old,yellow,896.1702362,None,896.1702362,None,6,1.413929501,896.1702362,None,1.413929501,897.6207273,None,898.1366917,None,898.1366917,None,r,0.3274927,898.1366917,None,0.3274927,,,Nov18Aloud3,89,2022_Nov_18_1551,ProdSingRedoBetween,2021.2.3,59.91102001
,,,,116,0,116,0,,,,,,,,,,,,,,,,,,,,,,901.102152,None,,,,,,,,,,,,,,,,,straight,28,117,aloud,old,yellow,899.0030435,None,899.0030435,None,6,1.3890998,899.0030435,None,1.3890998,900.4232954,None,900.9374761,None,900.9374761,None,r,0.142742,900.9374761,None,0.142742,,,Nov18Aloud3,89,2022_Nov_18_1551,ProdSingRedoBetween,2021.2.3,59.91102001
,,,,117,0,117,0,,,,,,,,,,,,,,,,,,,,,,905.4064104,None,,,,,,,,,,,,,,,,,rapid,82,118,aloud,old,red,901.604337,None,901.604337,None,4,2.5318736,901.604337,None,2.5318736,904.1581407,None,904.6762931,None,904.6762931,None,f,0.7079021,904.6762931,None,0.7079021,,,Nov18Aloud3,89,2022_Nov_18_1551,ProdSingRedoBetween,2021.2.3,59.91102001
,,,,118,0,118,0,,,,,,,,,,,,,,,,,,,,,,907.7920585,None,,,,,,,,,,,,,,,,,master,97,119,aloud,new,null,905.9127408,None,905.9127408,None,1,1.1513854,905.9127408,None,1.1513854,907.0924133,None,907.5980254,None,907.5980254,None,n,0.1703592,907.5980254,None,0.1703592,,,Nov18Aloud3,89,2022_Nov_18_1551,ProdSingRedoBetween,2021.2.3,59.91102001
,,,,119,0,119,0,,,,,,,,,,,,,,,,,,,,,,911.7960759,None,,,,,,,,,,,,,,,,,contract,86,120,aloud,old,red,908.2986845,None,908.2986845,None,6,2.6135196,908.2986845,None,2.6135196,910.9294648,None,911.4293057,None,911.4293057,None,r,0.3469047,911.4293057,None,0.3469047,,,Nov18Aloud3,89,2022_Nov_18_1551,ProdSingRedoBetween,2021.2.3,59.91102001
,,,,120,0,120,0,,,,,,,,,,,,,,,,,,,,,,915.1678142,None,,,,,,,,,,,,,,,,,collection,56,121,aloud,old,blue,912.3026758,None,912.3026758,None,3,1.633504,912.3026758,None,1.633504,913.9656204,None,914.4693575,None,914.4693575,None,f,0.6668005,914.4693575,None,0.6668005,,,Nov18Aloud3,89,2022_Nov_18_1551,ProdSingRedoBetween,2021.2.3,59.91102001
,,,,121,0,121,0,,,,,,,,,,,,,,,,,,,,,,919.8541132,None,,,,,,,,,,,,,,,,,empty,4,122,aloud,old,yellow,915.6854231,None,915.6854231,None,5,3.0667028,915.6854231,None,3.0667028,918.7708244,None,919.2755262,None,919.2755262,None,f,0.5566283,919.2755262,None,0.5566283,,,Nov18Aloud3,89,2022_Nov_18_1551,ProdSingRedoBetween,2021.2.3,59.91102001
,,,,122,0,122,0,,,,,,,,,,,,,,,,,,,,,,922.5234742,None,,,,,,,,,,,,,,,,,hunger,62,123,aloud,old,red,920.3623299,None,920.3623299,None,6,1.237968,920.3623299,None,1.237968,921.6305001,None,922.1399831,None,922.1399831,None,r,0.356175099,922.1399831,None,0.356175099,,,Nov18Aloud3,89,2022_Nov_18_1551,ProdSingRedoBetween,2021.2.3,59.91102001
,,,,123,0,123,0,,,,,,,,,,,,,,,,,,,,,,926.7944094,None,,,,,,,,,,,,,,,,,council,141,124,aloud,new,null,923.0240568,None,923.0240568,None,1,2.912122101,923.0240568,None,2.912122101,925.961709,None,926.4629675,None,926.4629675,None,n,0.3130796,926.4629675,None,0.3130796,,,Nov18Aloud3,89,2022_Nov_18_1551,ProdSingRedoBetween,2021.2.3,59.91102001
,,,,124,0,124,0,,,,,,,,,,,,,,,,,,,,,,933.7179869,None,,,,,,,,,,,,,,,,,addition,128,125,aloud,new,null,927.3018702,None,927.3018702,None,1,5.3702969,927.3018702,None,5.3702969,932.7004589,None,933.2052525,None,933.2052525,None,n,0.4828388,933.2052525,None,0.4828388,,,Nov18Aloud3,89,2022_Nov_18_1551,ProdSingRedoBetween,2021.2.3,59.91102001
,,,,125,0,125,0,,,,,,,,,,,,,,,,,,,,,,936.6542312,None,,,,,,,,,,,,,,,,,crime,79,126,aloud,old,red,934.2298983,None,934.2298983,None,2,1.538232001,934.2298983,None,1.538232001,935.7865256,None,936.2877463,None,936.2877463,None,f,0.3363933,936.2877463,None,0.3363933,,,Nov18Aloud3,89,2022_Nov_18_1551,ProdSingRedoBetween,2021.2.3,59.91102001
,,,,126,0,126,0,,,,,,,,,,,,,,,,,,,,,,939.4609149,None,,,,,,,,,,,,,,,,,finance,154,127,aloud,new,null,937.1563229,None,937.1563229,None,1,1.4598192,937.1563229,None,1.4598192,938.6393629,None,939.1448831,None,939.1448831,None,n,0.2953947,939.1448831,None,0.2953947,,,Nov18Aloud3,89,2022_Nov_18_1551,ProdSingRedoBetween,2021.2.3,59.91102001
,,,,127,0,127,0,,,,,,,,,,,,,,,,,,,,,,942.4266966,None,,,,,,,,,,,,,,,,,dozen,137,128,aloud,new,null,939.9904852,None,939.9904852,None,1,1.6816334,939.9904852,None,1.6816334,941.693877,None,942.1955469,None,942.1955469,None,n,0.2125638,942.1955469,None,0.2125638,,,Nov18Aloud3,89,2022_Nov_18_1551,ProdSingRedoBetween,2021.2.3,59.91102001
,,,,128,0,128,0,,,,,,,,,,,,,,,,,,,,,,945.0291415,None,,,,,,,,,,,,,,,,,marriage,107,129,aloud,new,null,942.9344035,None,942.9344035,None,1,1.2897125,942.9344035,None,1.2897125,944.2460646,None,944.7475133,None,944.7475133,None,n,0.260607,944.7475133,None,0.260607,,,Nov18Aloud3,89,2022_Nov_18_1551,ProdSingRedoBetween,2021.2.3,59.91102001
,,,,129,0,129,0,,,,,,,,,,,,,,,,,,,,,,948.7496577,None,,,,,,,,,,,,,,,,,meeting,52,130,aloud,old,blue,945.5298843,None,945.5298843,None,2,1.9741642,945.5298843,None,1.9741642,947.5317185,None,948.03411,None,948.03411,None,f,0.6859927,948.03411,None,0.6859927,,,Nov18Aloud3,89,2022_Nov_18_1551,ProdSingRedoBetween,2021.2.3,59.91102001
,,,,130,0,130,0,,,,,,,,,,,,,,,,,,,,,,952.5230907,None,,,,,,,,,,,,,,,,,crowd,155,131,aloud,new,null,949.2585844,None,949.2585844,None,2,2.077685599,949.2585844,None,2.077685599,951.3589337,None,951.8695156,None,951.8695156,None,f,0.634594199,951.8695156,None,0.634594199,,,Nov18Aloud3,89,2022_Nov_18_1551,ProdSingRedoBetween,2021.2.3,59.91102001
,,,,131,0,131,0,,,,,,,,,,,,,,,,,,,,,,955.1749317,None,,,,,,,,,,,,,,,,,quarter,64,132,aloud,old,red,953.0400404,None,953.0400404,None,6,1.3361341,953.0400404,None,1.3361341,954.4062944,None,954.9118279,None,954.9118279,None,r,0.2323428,954.9118279,None,0.2323428,,,Nov18Aloud3,89,2022_Nov_18_1551,ProdSingRedoBetween,2021.2.3,59.91102001
,,,,132,0,132,0,,,,,,,,,,,,,,,,,,,,,,961.0452527,None,,,,,,,,,,,,,,,,,principal,105,133,aloud,new,null,955.6930183,None,955.6930183,None,2,1.763116799,955.6930183,None,1.763116799,957.4762621,None,957.9755007,None,957.9755007,None,f,3.0404609,957.9755007,None,3.0404609,,,Nov18Aloud3,89,2022_Nov_18_1551,ProdSingRedoBetween,2021.2.3,59.91102001
,,,,133,0,133,0,,,,,,,,,,,,,,,,,,,,,,963.6311595,None,,,,,,,,,,,,,,,,,theme,27,134,aloud,old,yellow,961.5557439,None,961.5557439,None,1,1.3085214,961.5557439,None,1.3085214,962.8841789,None,963.3979126,None,963.3979126,None,n,0.2022434,963.3979126,None,0.2022434,,,Nov18Aloud3,89,2022_Nov_18_1551,ProdSingRedoBetween,2021.2.3,59.91102001
,,,,134,0,134,0,,,,,,,,,,,,,,,,,,,,,,967.5350512,None,,,,,,,,,,,,,,,,,evidence,92,135,aloud,new,null,964.141809,None,964.141809,None,2,1.890176,964.141809,None,1.890176,966.0521442,None,966.5695109,None,966.5695109,None,f,0.9345748,966.5695109,None,0.9345748,,,Nov18Aloud3,89,2022_Nov_18_1551,ProdSingRedoBetween,2021.2.3,59.91102001
,,,,135,0,135,0,,,,,,,,,,,,,,,,,,,,,,970.8049596,None,,,,,,,,,,,,,,,,,dispute,40,136,aloud,old,blue,968.044372,None,968.044372,None,1,1.755708301,968.044372,None,1.755708301,969.8220046,None,970.3215523,None,970.3215523,None,n,0.462707,970.3215523,None,0.462707,,,Nov18Aloud3,89,2022_Nov_18_1551,ProdSingRedoBetween,2021.2.3,59.91102001
,,,,136,0,136,0,,,,,,,,,,,,,,,,,,,,,,974.7254994,None,,,,,,,,,,,,,,,,,enemy,24,137,aloud,old,yellow,971.3081904,None,971.3081904,None,6,2.5318502,971.3081904,None,2.5318502,973.8630758,None,974.3751309,None,974.3751309,None,r,0.3209427,974.3751309,None,0.3209427,,,Nov18Aloud3,89,2022_Nov_18_1551,ProdSingRedoBetween,2021.2.3,59.91102001
,,,,137,0,137,0,,,,,,,,,,,,,,,,,,,,,,979.6473562,None,,,,,,,,,,,,,,,,,clear,58,138,aloud,old,blue,975.2364858,None,975.2364858,None,5,3.411557,975.2364858,None,3.411557,978.663754,None,979.1633577,None,979.1633577,None,f,0.4685822,979.1633577,None,0.4685822,,,Nov18Aloud3,89,2022_Nov_18_1551,ProdSingRedoBetween,2021.2.3,59.91102001
,,,,138,0,138,0,,,,,,,,,,,,,,,,,,,,,,983.8847175,None,,,,,,,,,,,,,,,,,growth,110,139,aloud,new,null,980.1494512,None,980.1494512,None,2,2.8665822,980.1494512,None,2.8665822,983.0355288,None,983.5511338,None,983.5511338,None,f,0.3049999,983.5511338,None,0.3049999,,,Nov18Aloud3,89,2022_Nov_18_1551,ProdSingRedoBetween,2021.2.3,59.91102001
,,,,139,0,139,0,,,,,,,,,,,,,,,,,,,,,,988.1889651,None,,,,,,,,,,,,,,,,,impact,106,140,aloud,new,null,984.3945769,None,984.3945769,None,1,2.3254577,984.3945769,None,2.3254577,986.7387982,None,987.2462693,None,987.2462693,None,n,0.921741799,987.2462693,None,0.921741799,,,Nov18Aloud3,89,2022_Nov_18_1551,ProdSingRedoBetween,2021.2.3,59.91102001
,,,,140,0,140,0,,,,,,,,,,,,,,,,,,,,,,991.0084866,None,,,,,,,,,,,,,,,,,hearing,109,141,aloud,new,null,988.6926267,None,988.6926267,None,1,1.5554905,988.6926267,None,1.5554905,990.2750119,None,990.775031,None,990.775031,None,n,0.2090572,990.775031,None,0.2090572,,,Nov18Aloud3,89,2022_Nov_18_1551,ProdSingRedoBetween,2021.2.3,59.91102001
,,,,141,0,141,0,,,,,,,,,,,,,,,,,,,,,,994.6285331,None,,,,,,,,,,,,,,,,,people,10,142,aloud,old,yellow,991.5246763,None,991.5246763,None,3,2.171546999,991.5246763,None,2.171546999,993.7171147,None,994.2312716,None,994.2312716,None,f,0.376768799,994.2312716,None,0.376768799,,,Nov18Aloud3,89,2022_Nov_18_1551,ProdSingRedoBetween,2021.2.3,59.91102001
,,,,142,0,142,0,,,,,,,,,,,,,,,,,,,,,,998.3994966,None,,,,,,,,,,,,,,,,,portion,38,143,aloud,old,blue,995.1392434,None,995.1392434,None,6,2.4047755,995.1392434,None,2.4047755,997.5666421,None,998.0822845,None,998.0822845,None,r,0.301799799,998.0822845,None,0.301799799,,,Nov18Aloud3,89,2022_Nov_18_1551,ProdSingRedoBetween,2021.2.3,59.91102001
,,,,143,0,143,0,,,,,,,,,,,,,,,,,,,,,,1001.902642,None,,,,,,,,,,,,,,,,,judge,34,144,aloud,old,blue,998.9123302,None,998.9123302,None,2,1.2956568,998.9123302,None,1.2956568,1000.234541,None,1000.735011,None,1000.735011,None,f,1.1370433,1000.735011,None,1.1370433,,,Nov18Aloud3,89,2022_Nov_18_1551,ProdSingRedoBetween,2021.2.3,59.91102001
,,,,144,0,144,0,,,,,,,,,,,,,,,,,,,,,,1004.672112,None,,,,,,,,,,,,,,,,,light,113,145,aloud,new,null,1002.412558,None,1002.412558,None,1,1.4753603,1002.412558,None,1.4753603,1003.905146,None,1004.408211,None,1004.408211,None,n,0.2398221,1004.408211,None,0.2398221,,,Nov18Aloud3,89,2022_Nov_18_1551,ProdSingRedoBetween,2021.2.3,59.91102001
,,,,145,0,145,0,,,,,,,,,,,,,,,,,,,,,,1007.161071,None,,,,,,,,,,,,,,,,,bright,114,146,aloud,new,null,1005.183877,None,1005.183877,None,1,1.1760621,1005.183877,None,1.1760621,1006.390535,None,1006.895107,None,1006.895107,None,n,0.2331336,1006.895107,None,0.2331336,,,Nov18Aloud3,89,2022_Nov_18_1551,ProdSingRedoBetween,2021.2.3,59.91102001
,,,,146,0,146,0,,,,,,,,,,,,,,,,,,,,,,1014.632409,None,,,,,,,,,,,,,,,,,quick,7,147,aloud,old,yellow,1007.682362,None,1007.682362,None,1,5.997608501,1007.682362,None,5.997608501,1013.699806,None,1014.218091,None,1014.218091,None,n,0.389933799,1014.218091,None,0.389933799,,,Nov18Aloud3,89,2022_Nov_18_1551,ProdSingRedoBetween,2021.2.3,59.91102001
,,,,147,0,147,0,,,,,,,,,,,,,,,,,,,,,,1017.903529,None,,,,,,,,,,,,,,,,,private,39,148,aloud,old,blue,1015.139452,None,1015.139452,None,6,1.420686101,1015.139452,None,1.420686101,1016.597046,None,1017.1061,None,1017.1061,None,r,0.7739394,1017.1061,None,0.7739394,,,Nov18Aloud3,89,2022_Nov_18_1551,ProdSingRedoBetween,2021.2.3,59.91102001
,,,,148,0,148,0,,,,,,,,,,,,,,,,,,,,,,1022.056119,None,,,,,,,,,,,,,,,,,subject,94,149,aloud,new,null,1018.424975,None,1018.424975,None,6,1.918974,1018.424975,None,1.918974,1020.37463,None,1020.888378,None,1020.888378,None,r,1.1516915,1020.888378,None,1.1516915,,,Nov18Aloud3,89,2022_Nov_18_1551,ProdSingRedoBetween,2021.2.3,59.91102001
,,,,149,0,149,0,,,,,,,,,,,,,,,,,,,,,,1024.508518,None,,,,,,,,,,,,,,,,,smell,139,150,aloud,new,null,1022.561969,None,1022.561969,None,1,1.1580077,1022.561969,None,1.1580077,1023.741203,None,1024.246158,None,1024.246158,None,n,0.233838,1024.246158,None,0.233838,,,Nov18Aloud3,89,2022_Nov_18_1551,ProdSingRedoBetween,2021.2.3,59.91102001
,,,,150,0,150,0,,,,,,,,,,,,,,,,,,,,,,1027.344802,None,,,,,,,,,,,,,,,,,afternoon,13,151,aloud,old,yellow,1025.023185,None,1025.023185,None,6,1.5047289,1025.023185,None,1.5047289,1026.546072,None,1027.065667,None,1027.065667,None,r,0.2543387,1027.065667,None,0.2543387,,,Nov18Aloud3,89,2022_Nov_18_1551,ProdSingRedoBetween,2021.2.3,59.91102001
,,,,151,0,151,0,,,,,,,,,,,,,,,,,,,,,,1030.814895,None,,,,,,,,,,,,,,,,,vision,147,152,aloud,new,null,1027.861505,None,1027.861505,None,2,2.0106157,1027.861505,None,2.0106157,1029.898537,None,1030.414604,None,1030.414604,None,f,0.3775138,1030.414604,None,0.3775138,,,Nov18Aloud3,89,2022_Nov_18_1551,ProdSingRedoBetween,2021.2.3,59.91102001
,,,,152,0,152,0,,,,,,,,,,,,,,,,,,,,,,1033.951363,None,,,,,,,,,,,,,,,,,staff,163,153,aloud,new,null,1031.325868,None,1031.325868,None,1,1.8580567,1031.325868,None,1.8580567,1033.20182,None,1033.705485,None,1033.705485,None,n,0.222417399,1033.705485,None,0.222417399,,,Nov18Aloud3,89,2022_Nov_18_1551,ProdSingRedoBetween,2021.2.3,59.91102001
,,,,153,0,153,0,,,,,,,,,,,,,,,,,,,,,,1037.177696,None,,,,,,,,,,,,,,,,,order,157,154,aloud,new,null,1034.46217,None,1034.46217,None,1,1.7937984,1034.46217,None,1.7937984,1036.287695,None,1036.787614,None,1036.787614,None,n,0.3563632,1036.787614,None,0.3563632,,,Nov18Aloud3,89,2022_Nov_18_1551,ProdSingRedoBetween,2021.2.3,59.91102001
,,,,154,0,154,0,,,,,,,,,,,,,,,,,,,,,,1040.424443,None,,,,,,,,,,,,,,,,,court,89,155,aloud,old,red,1037.698498,None,1037.698498,None,5,1.9256365,1037.698498,None,1.9256365,1039.642267,None,1040.157592,None,1040.157592,None,f,0.2423527,1040.157592,None,0.2423527,,,Nov18Aloud3,89,2022_Nov_18_1551,ProdSingRedoBetween,2021.2.3,59.91102001
,,,,155,0,155,0,,,,,,,,,,,,,,,,,,,,,,1043.128831,None,,,,,,,,,,,,,,,,,career,178,156,aloud,new,null,1040.925022,None,1040.925022,None,2,1.4190198,1040.925022,None,1.4190198,1042.361456,None,1042.889608,None,1042.889608,None,f,0.222618801,1042.889608,None,0.222618801,,,Nov18Aloud3,89,2022_Nov_18_1551,ProdSingRedoBetween,2021.2.3,59.91102001
,,,,156,0,156,0,,,,,,,,,,,,,,,,,,,,,,1045.446925,None,,,,,,,,,,,,,,,,,motion,53,157,aloud,old,blue,1043.650413,None,1043.650413,None,6,1.2457183,1043.650413,None,1.2457183,1044.917694,None,1045.429501,None,1045.429501,None,r,0.0024498,1045.429501,None,0.0024498,,,Nov18Aloud3,89,2022_Nov_18_1551,ProdSingRedoBetween,2021.2.3,59.91102001
,,,,157,0,157,0,,,,,,,,,,,,,,,,,,,,,,1047.681684,None,,,,,,,,,,,,,,,,,revolution,117,158,aloud,new,null,1045.947705,None,1045.947705,None,1,1.172128201,1045.947705,None,1.172128201,1047.147901,None,1047.648512,None,1047.648512,None,n,0.007355399,1047.648512,None,0.007355399,,,Nov18Aloud3,89,2022_Nov_18_1551,ProdSingRedoBetween,2021.2.3,59.91102001
,,,,158,0,158,0,,,,,,,,,,,,,,,,,,,,,,1050.100763,None,,,,,,,,,,,,,,,,,sunset,85,159,aloud,old,red,1048.184977,None,1048.184977,None,1,1.2869665,1048.184977,None,1.2869665,1049.500864,None,1050.007809,None,1050.007809,None,n,0.0641337,1050.007809,None,0.0641337,,,Nov18Aloud3,89,2022_Nov_18_1551,ProdSingRedoBetween,2021.2.3,59.91102001
,,,,159,0,159,0,,,,,,,,,,,,,,,,,,,,,,1052.502899,None,,,,,,,,,,,,,,,,,broad,156,160,aloud,new,null,1050.607374,None,1050.607374,None,1,1.136602401,1050.607374,None,1.136602401,1051.769134,None,1052.273781,None,1052.273781,None,n,0.2141797,1052.273781,None,0.2141797,,,Nov18Aloud3,89,2022_Nov_18_1551,ProdSingRedoBetween,2021.2.3,59.91102001
,,,,160,0,160,0,,,,,,,,,,,,,,,,,,,,,,1055.355966,None,,,,,,,,,,,,,,,,,patient,22,161,aloud,old,yellow,1053.006593,None,1053.006593,None,4,1.7533563,1053.006593,None,1.7533563,1054.79004,None,1055.2894,None,1055.2894,None,f,0.0465628,1055.2894,None,0.0465628,,,Nov18Aloud3,89,2022_Nov_18_1551,ProdSingRedoBetween,2021.2.3,59.91102001
,,,,161,0,161,0,,,,,,,,,,,,,,,,,,,,,,1058.943771,None,,,,,,,,,,,,,,,,,drama,15,162,aloud,old,yellow,1055.864389,None,1055.864389,None,5,1.247748201,1055.864389,None,1.247748201,1057.145616,None,1057.658512,None,1057.658512,None,f,1.2614368,1057.658512,None,1.2614368,,,Nov18Aloud3,89,2022_Nov_18_1551,ProdSingRedoBetween,2021.2.3,59.91102001
,,,,162,0,162,0,,,,,,,,,,,,,,,,,,,,,,1063.096976,None,,,,,,,,,,,,,,,,,resistance,162,163,aloud,new,null,1059.454463,None,1059.454463,None,3,2.9054443,1059.454463,None,2.9054443,1062.381716,None,1062.899448,None,1062.899448,None,f,0.1724284,1062.899448,None,0.1724284,,,Nov18Aloud3,89,2022_Nov_18_1551,ProdSingRedoBetween,2021.2.3,59.91102001
,,,,163,0,163,0,,,,,,,,,,,,,,,,,,,,,,1066.068124,None,,,,,,,,,,,,,,,,,threat,167,164,aloud,new,null,1063.599578,None,1063.599578,None,2,1.304355701,1063.599578,None,1.304355701,1064.932781,None,1065.435153,None,1065.435153,None,f,0.6048126,1065.435153,None,0.6048126,,,Nov18Aloud3,89,2022_Nov_18_1551,ProdSingRedoBetween,2021.2.3,59.91102001
,,,,164,0,164,0,,,,,,,,,,,,,,,,,,,,,,1068.402421,None,,,,,,,,,,,,,,,,,phrase,145,165,aloud,new,null,1066.570118,None,1066.570118,None,1,1.125786901,1066.570118,None,1.125786901,1067.721507,None,1068.235663,None,1068.235663,None,n,0.1482913,1068.235663,None,0.1482913,,,Nov18Aloud3,89,2022_Nov_18_1551,ProdSingRedoBetween,2021.2.3,59.91102001
,,,,165,0,165,0,,,,,,,,,,,,,,,,,,,,,,1071.772104,None,,,,,,,,,,,,,,,,,position,142,166,aloud,new,null,1068.912706,None,1068.912706,None,1,2.231148,1068.912706,None,2.231148,1071.17432,None,1071.688908,None,1071.688908,None,n,0.0549032,1071.688908,None,0.0549032,,,Nov18Aloud3,89,2022_Nov_18_1551,ProdSingRedoBetween,2021.2.3,59.91102001
,,,,166,0,166,0,,,,,,,,,,,,,,,,,,,,,,1076.91084,None,,,,,,,,,,,,,,,,,committee,74,167,aloud,old,red,1072.272733,None,1072.272733,None,6,3.9992471,1072.272733,None,3.9992471,1076.293594,None,1076.794141,None,1076.794141,None,r,0.101737101,1076.794141,None,0.101737101,,,Nov18Aloud3,89,2022_Nov_18_1551,ProdSingRedoBetween,2021.2.3,59.91102001
,,,,167,0,167,0,,,,,,,,,,,,,,,,,,,,,,1080.500823,None,,,,,,,,,,,,,,,,,beauty,73,168,aloud,old,red,1077.414165,None,1077.414165,None,6,2.417719699,1077.414165,None,2.417719699,1079.848214,None,1080.353063,None,1080.353063,None,r,0.1268275,1080.353063,None,0.1268275,,,Nov18Aloud3,89,2022_Nov_18_1551,ProdSingRedoBetween,2021.2.3,59.91102001
,,,,168,0,168,0,,,,,,,,,,,,,,,,,,,,,,1085.752945,None,,,,,,,,,,,,,,,,,nature,93,169,aloud,new,null,1081.014996,None,1081.014996,None,3,4.080888401,1081.014996,None,4.080888401,1085.118992,None,1085.622242,None,1085.622242,None,f,0.1057885,1085.622242,None,0.1057885,,,Nov18Aloud3,89,2022_Nov_18_1551,ProdSingRedoBetween,2021.2.3,59.91102001
,,,,169,0,169,0,,,,,,,,,,,,,,,,,,,,,,1090.657755,None,,,,,,,,,,,,,,,,,partner,143,170,aloud,new,null,1086.253644,None,1086.253644,None,1,3.458438301,1086.253644,None,3.458438301,1089.749561,None,1090.262955,None,1090.262955,None,n,0.368945,1090.262955,None,0.368945,,,Nov18Aloud3,89,2022_Nov_18_1551,ProdSingRedoBetween,2021.2.3,59.91102001
,,,,170,0,170,0,,,,,,,,,,,,,,,,,,,,,,1095.229095,None,,,,,,,,,,,,,,,,,conference,35,171,aloud,old,blue,1091.161445,None,1091.161445,None,3,3.2064672,1091.161445,None,3.2064672,1094.398872,None,1094.913967,None,1094.913967,None,f,0.2939457,1094.913967,None,0.2939457,,,Nov18Aloud3,89,2022_Nov_18_1551,ProdSingRedoBetween,2021.2.3,59.91102001
,,,,171,0,171,0,,,,,,,,,,,,,,,,,,,,,,1097.865054,None,,,,,,,,,,,,,,,,,weight,151,172,aloud,new,null,1095.732339,None,1095.732339,None,1,1.3554811,1095.732339,None,1.3554811,1097.116681,None,1097.635015,None,1097.635015,None,n,0.2048166,1097.635015,None,0.2048166,,,Nov18Aloud3,89,2022_Nov_18_1551,ProdSingRedoBetween,2021.2.3,59.91102001
,,,,172,0,172,0,,,,,,,,,,,,,,,,,,,,,,1100.567704,None,,,,,,,,,,,,,,,,,employment,159,173,aloud,new,null,1098.36942,None,1098.36942,None,1,1.2863771,1098.36942,None,1.2863771,1099.684666,None,1100.184298,None,1100.184298,None,n,0.359562499,1100.184298,None,0.359562499,,,Nov18Aloud3,89,2022_Nov_18_1551,ProdSingRedoBetween,2021.2.3,59.91102001
,,,,173,0,173,0,,,,,,,,,,,,,,,,,,,,,,1103.020199,None,,,,,,,,,,,,,,,,,budget,75,174,aloud,old,red,1101.074801,None,1101.074801,None,1,1.237061,1101.074801,None,1.237061,1102.340526,None,1102.853481,None,1102.853481,None,n,0.1464124,1102.853481,None,0.1464124,,,Nov18Aloud3,89,2022_Nov_18_1551,ProdSingRedoBetween,2021.2.3,59.91102001
,,,,174,0,174,0,,,,,,,,,,,,,,,,,,,,,,1105.839633,None,,,,,,,,,,,,,,,,,entrance,63,175,aloud,old,red,1103.532864,None,1103.532864,None,1,1.5869516,1103.532864,None,1.5869516,1105.139797,None,1105.639965,None,1105.639965,None,n,0.1837835,1105.639965,None,0.1837835,,,Nov18Aloud3,89,2022_Nov_18_1551,ProdSingRedoBetween,2021.2.3,59.91102001
,,,,175,0,175,0,,,,,,,,,,,,,,,,,,,,,,1109.11143,None,,,,,,,,,,,,,,,,,equipment,100,176,aloud,new,null,1106.348981,None,1106.348981,None,1,2.0508553,1106.348981,None,2.0508553,1108.435304,None,1108.944121,None,1108.944121,None,n,0.135600599,1108.944121,None,0.135600599,,,Nov18Aloud3,89,2022_Nov_18_1551,ProdSingRedoBetween,2021.2.3,59.91102001
,,,,176,0,176,0,,,,,,,,,,,,,,,,,,,,,,1112.062517,None,,,,,,,,,,,,,,,,,power,101,177,aloud,new,null,1109.626851,None,1109.626851,None,1,1.5570302,1109.626851,None,1.5570302,1111.220943,None,1111.728973,None,1111.728973,None,n,0.3108456,1111.728973,None,0.3108456,,,Nov18Aloud3,89,2022_Nov_18_1551,ProdSingRedoBetween,2021.2.3,59.91102001
,,,,177,0,177,0,,,,,,,,,,,,,,,,,,,,,,1115.049049,None,,,,,,,,,,,,,,,,,strength,126,178,aloud,new,null,1112.570732,None,1112.570732,None,1,1.5652494,1112.570732,None,1.5652494,1114.171366,None,1114.686161,None,1114.686161,None,n,0.3377072,1114.686161,None,0.3377072,,,Nov18Aloud3,89,2022_Nov_18_1551,ProdSingRedoBetween,2021.2.3,59.91102001
,,,,178,0,178,0,,,,,,,,,,,,,,,,,,,,,,1117.803543,None,,,,,,,,,,,,,,,,,benefit,68,179,aloud,old,red,1115.567005,None,1115.567005,None,1,1.4007278,1115.567005,None,1.4007278,1116.992812,None,1117.509414,None,1117.509414,None,n,0.2746389,1117.509414,None,0.2746389,,,Nov18Aloud3,89,2022_Nov_18_1551,ProdSingRedoBetween,2021.2.3,59.91102001
,,,,179,0,179,0,,,,,,,,,,,,,,,,,,,,,,1122.105793,None,,,,,,,,,,,,,,,,,guest,49,180,aloud,old,blue,1118.324518,None,1118.324518,None,3,2.707214001,1118.324518,None,2.707214001,1121.054989,None,1121.557721,None,1121.557721,None,f,0.5221623,1121.557721,None,0.5221623,,,Nov18Aloud3,89,2022_Nov_18_1551,ProdSingRedoBetween,2021.2.3,59.91102001
,,,,,,,,,,,,,,,,,,,,,,,,,,,,,,,,,,,,,,,,,,,,,,,,,,,,,,,,,,,,,,,,,,,,,,,,,1122.607028,None,,,,,,
