StudyLoop.thisRepN,StudyLoop.thisTrialN,StudyLoop.thisN,StudyLoop.thisIndex,TestLoop.thisRepN,TestLoop.thisTrialN,TestLoop.thisN,TestLoop.thisIndex,textCondition.started,textCondition.stopped,keyCondition.keys,keyCondition.rt,keyCondition.started,keyCondition.stopped,Condition,textWelcome.started,textWelcome.stopped,keyWelcome.keys,keyWelcome.rt,keyWelcome.started,keyWelcome.stopped,textAloud.started,textAloud.stopped,textSilent.started,textSilent.stopped,textSing.started,textSing.stopped,conditional_text.started,conditional_text.stopped,textBlank500.started,textBlank500.stopped,study_word,study_num,study_order,study_type,word_color,textStudy.started,textStudy.stopped,keyStudy.keys,keyStudy.started,keyStudy.stopped,textTestInstructions.started,textTestInstructions.stopped,key_resp_3.keys,key_resp_3.rt,key_resp_3.started,key_resp_3.stopped,test_word,test_num,test_order,test_condition,old_new_test,test_word_original_color,textConf.started,textConf.stopped,textConfScale.started,textConfScale.stopped,keyConf.keys,keyConf.rt,keyConf.started,keyConf.stopped,confidence response time,textTestBlank.started,textTestBlank.stopped,textRKN.started,textRKN.stopped,textRKNScale.started,textRKNScale.stopped,keyRKN.keys,keyRKN.rt,keyRKN.started,keyRKN.stopped,rkn response time,textEnd.started,textEnd.stopped,participant,session,date,expName,psychopyVersion,frameRate,
,,,,,,,,18.370084099995438,None,b,2.1433142999885604,18.370084099995438,None,,,,,,,,,,,,,,,,,,,,,,,,,,,,,,,,,,,,,,,,,,,,,,,,,,,,,,,,,,,,,,8Aloud,001,2022_Aug_02_1010,ProdSingRedoBetween,2021.2.3,59.92351363774908,
,,,,,,,,,,,,,,AloudTest,20.55643150000833,None,space,171.6369854999939,20.55643150000833,None,,,,,,,,,,,,,,,,,,,,,,,,,,,,,,,,,,,,,,,,,,,,,,,,,,,,,,,8Aloud,001,2022_Aug_02_1010,ProdSingRedoBetween,2021.2.3,59.92351363774908,
0,0,0,0,,,,,,,,,,,,,,,,,,20.55643150000833,None,20.55643150000833,None,20.55643150000833,None,20.55643150000833,None,194.73859779996565,None,safety,80,1,aloud,red,192.73529179999605,None,None,192.73529179999605,None,,,,,,,,,,,,,,,,,,,,,,,,,,,,,,,,,,,8Aloud,001,2022_Aug_02_1010,ProdSingRedoBetween,2021.2.3,59.92351363774908,
1,0,1,0,,,,,,,,,,,,,,,,,,,,,,,,,,197.2578727999935,None,finish,83,2,aloud,red,195.2487994999974,None,None,195.2487994999974,None,,,,,,,,,,,,,,,,,,,,,,,,,,,,,,,,,,,8Aloud,001,2022_Aug_02_1010,ProdSingRedoBetween,2021.2.3,59.92351363774908,
2,0,2,0,,,,,,,,,,,,,,,,,,,,,,,,,,199.7770307000028,None,south,51,3,aloud,blue,197.76606309995987,None,None,197.76606309995987,None,,,,,,,,,,,,,,,,,,,,,,,,,,,,,,,,,,,8Aloud,001,2022_Aug_02_1010,ProdSingRedoBetween,2021.2.3,59.92351363774908,
3,0,3,0,,,,,,,,,,,,,,,,,,,,,,,,,,202.2962154999841,None,produce,42,4,aloud,blue,200.28642279998166,None,None,200.28642279998166,None,,,,,,,,,,,,,,,,,,,,,,,,,,,,,,,,,,,8Aloud,001,2022_Aug_02_1010,ProdSingRedoBetween,2021.2.3,59.92351363774908,
4,0,4,0,,,,,,,,,,,,,,,,,,,,,,,,,,204.81539959996007,None,trash,37,5,aloud,blue,202.80489129998023,None,None,202.80489129998023,None,,,,,,,,,,,,,,,,,,,,,,,,,,,,,,,,,,,8Aloud,001,2022_Aug_02_1010,ProdSingRedoBetween,2021.2.3,59.92351363774908,
5,0,5,0,,,,,,,,,,,,,,,,,,,,,,,,,,207.33587219996843,None,tennis,14,6,aloud,yellow,205.32851239998126,None,None,205.32851239998126,None,,,,,,,,,,,,,,,,,,,,,,,,,,,,,,,,,,,8Aloud,001,2022_Aug_02_1010,ProdSingRedoBetween,2021.2.3,59.92351363774908,
6,0,6,0,,,,,,,,,,,,,,,,,,,,,,,,,,209.8370665999828,None,break,59,7,aloud,yellow,207.83614999998827,None,None,207.83614999998827,None,,,,,,,,,,,,,,,,,,,,,,,,,,,,,,,,,,,8Aloud,001,2022_Aug_02_1010,ProdSingRedoBetween,2021.2.3,59.92351363774908,
7,0,7,0,,,,,,,,,,,,,,,,,,,,,,,,,,212.35623699997086,None,majority,22,8,aloud,yellow,210.36081549996743,None,None,210.36081549996743,None,,,,,,,,,,,,,,,,,,,,,,,,,,,,,,,,,,,8Aloud,001,2022_Aug_02_1010,ProdSingRedoBetween,2021.2.3,59.92351363774908,
8,0,8,0,,,,,,,,,,,,,,,,,,,,,,,,,,214.85872049996397,None,capital,16,9,aloud,yellow,212.85652749997098,None,None,212.85652749997098,None,,,,,,,,,,,,,,,,,,,,,,,,,,,,,,,,,,,8Aloud,001,2022_Aug_02_1010,ProdSingRedoBetween,2021.2.3,59.92351363774908,
9,0,9,0,,,,,,,,,,,,,,,,,,,,,,,,,,217.36123589996714,None,still,76,10,aloud,red,215.35899239999708,None,None,215.35899239999708,None,,,,,,,,,,,,,,,,,,,,,,,,,,,,,,,,,,,8Aloud,001,2022_Aug_02_1010,ProdSingRedoBetween,2021.2.3,59.92351363774908,
10,0,10,0,,,,,,,,,,,,,,,,,,,,,,,,,,219.8802937999717,None,resistance,20,11,aloud,yellow,217.87758679996477,None,None,217.87758679996477,None,,,,,,,,,,,,,,,,,,,,,,,,,,,,,,,,,,,8Aloud,001,2022_Aug_02_1010,ProdSingRedoBetween,2021.2.3,59.92351363774908,
11,0,11,0,,,,,,,,,,,,,,,,,,,,,,,,,,222.400036899955,None,quiet,4,12,aloud,yellow,220.3999960999936,None,None,220.3999960999936,None,,,,,,,,,,,,,,,,,,,,,,,,,,,,,,,,,,,8Aloud,001,2022_Aug_02_1010,ProdSingRedoBetween,2021.2.3,59.92351363774908,
12,0,12,0,,,,,,,,,,,,,,,,,,,,,,,,,,224.91837719996693,None,present,32,13,aloud,blue,222.91502249997575,None,None,222.91502249997575,None,,,,,,,,,,,,,,,,,,,,,,,,,,,,,,,,,,,8Aloud,001,2022_Aug_02_1010,ProdSingRedoBetween,2021.2.3,59.92351363774908,
13,0,13,0,,,,,,,,,,,,,,,,,,,,,,,,,,227.42097350000404,None,history,49,14,aloud,blue,225.41922709997743,None,None,225.41922709997743,None,,,,,,,,,,,,,,,,,,,,,,,,,,,,,,,,,,,8Aloud,001,2022_Aug_02_1010,ProdSingRedoBetween,2021.2.3,59.92351363774908,
14,0,14,0,,,,,,,,,,,,,,,,,,,,,,,,,,229.92374800000107,None,estate,38,15,aloud,blue,227.92164799995953,None,None,227.92164799995953,None,,,,,,,,,,,,,,,,,,,,,,,,,,,,,,,,,,,8Aloud,001,2022_Aug_02_1010,ProdSingRedoBetween,2021.2.3,59.92351363774908,
15,0,15,0,,,,,,,,,,,,,,,,,,,,,,,,,,232.44293059996562,None,payment,3,16,aloud,yellow,230.43578679999337,None,None,230.43578679999337,None,,,,,,,,,,,,,,,,,,,,,,,,,,,,,,,,,,,8Aloud,001,2022_Aug_02_1010,ProdSingRedoBetween,2021.2.3,59.92351363774908,
16,0,16,0,,,,,,,,,,,,,,,,,,,,,,,,,,234.9621211999911,None,review,21,17,aloud,yellow,232.96230739995372,None,None,232.96230739995372,None,,,,,,,,,,,,,,,,,,,,,,,,,,,,,,,,,,,8Aloud,001,2022_Aug_02_1010,ProdSingRedoBetween,2021.2.3,59.92351363774908,
17,0,17,0,,,,,,,,,,,,,,,,,,,,,,,,,,237.48139039997477,None,raise,77,18,aloud,red,235.4716448999825,None,None,235.4716448999825,None,,,,,,,,,,,,,,,,,,,,,,,,,,,,,,,,,,,8Aloud,001,2022_Aug_02_1010,ProdSingRedoBetween,2021.2.3,59.92351363774908,
18,0,18,0,,,,,,,,,,,,,,,,,,,,,,,,,,240.00048990000505,None,oxygen,11,19,aloud,yellow,237.99318289995426,None,None,237.99318289995426,None,,,,,,,,,,,,,,,,,,,,,,,,,,,,,,,,,,,8Aloud,001,2022_Aug_02_1010,ProdSingRedoBetween,2021.2.3,59.92351363774908,
19,0,19,0,,,,,,,,,,,,,,,,,,,,,,,,,,242.51996919995872,None,interior,88,20,aloud,red,240.50761229998898,None,None,240.50761229998898,None,,,,,,,,,,,,,,,,,,,,,,,,,,,,,,,,,,,8Aloud,001,2022_Aug_02_1010,ProdSingRedoBetween,2021.2.3,59.92351363774908,
20,0,20,0,,,,,,,,,,,,,,,,,,,,,,,,,,245.03894110000692,None,discussion,73,21,aloud,red,243.0347391999676,None,None,243.0347391999676,None,,,,,,,,,,,,,,,,,,,,,,,,,,,,,,,,,,,8Aloud,001,2022_Aug_02_1010,ProdSingRedoBetween,2021.2.3,59.92351363774908,
21,0,21,0,,,,,,,,,,,,,,,,,,,,,,,,,,247.55842029995983,None,minute,72,22,aloud,red,245.54609349998645,None,None,245.54609349998645,None,,,,,,,,,,,,,,,,,,,,,,,,,,,,,,,,,,,8Aloud,001,2022_Aug_02_1010,ProdSingRedoBetween,2021.2.3,59.92351363774908,
22,0,22,0,,,,,,,,,,,,,,,,,,,,,,,,,,250.07715149997966,None,fight,30,23,aloud,blue,248.06778609997127,None,None,248.06778609997127,None,,,,,,,,,,,,,,,,,,,,,,,,,,,,,,,,,,,8Aloud,001,2022_Aug_02_1010,ProdSingRedoBetween,2021.2.3,59.92351363774908,
23,0,23,0,,,,,,,,,,,,,,,,,,,,,,,,,,252.5963899999624,None,second,35,24,aloud,blue,250.58726749999914,None,None,250.58726749999914,None,,,,,,,,,,,,,,,,,,,,,,,,,,,,,,,,,,,8Aloud,001,2022_Aug_02_1010,ProdSingRedoBetween,2021.2.3,59.92351363774908,
24,0,24,0,,,,,,,,,,,,,,,,,,,,,,,,,,255.09881259995745,None,threat,52,25,aloud,blue,253.09663699998055,None,None,253.09663699998055,None,,,,,,,,,,,,,,,,,,,,,,,,,,,,,,,,,,,8Aloud,001,2022_Aug_02_1010,ProdSingRedoBetween,2021.2.3,59.92351363774908,
25,0,25,0,,,,,,,,,,,,,,,,,,,,,,,,,,257.6186163999955,None,military,34,26,aloud,blue,255.61118379997788,None,None,255.61118379997788,None,,,,,,,,,,,,,,,,,,,,,,,,,,,,,,,,,,,8Aloud,001,2022_Aug_02_1010,ProdSingRedoBetween,2021.2.3,59.92351363774908,
26,0,26,0,,,,,,,,,,,,,,,,,,,,,,,,,,260.13724859996,None,season,67,27,aloud,red,258.1299962999765,None,None,258.1299962999765,None,,,,,,,,,,,,,,,,,,,,,,,,,,,,,,,,,,,8Aloud,001,2022_Aug_02_1010,ProdSingRedoBetween,2021.2.3,59.92351363774908,
27,0,27,0,,,,,,,,,,,,,,,,,,,,,,,,,,262.65645039995434,None,notice,54,28,aloud,blue,260.64479970000684,None,None,260.64479970000684,None,,,,,,,,,,,,,,,,,,,,,,,,,,,,,,,,,,,8Aloud,001,2022_Aug_02_1010,ProdSingRedoBetween,2021.2.3,59.92351363774908,
28,0,28,0,,,,,,,,,,,,,,,,,,,,,,,,,,265.1756505999947,None,audience,57,29,aloud,blue,263.16566979995696,None,None,263.16566979995696,None,,,,,,,,,,,,,,,,,,,,,,,,,,,,,,,,,,,8Aloud,001,2022_Aug_02_1010,ProdSingRedoBetween,2021.2.3,59.92351363774908,
29,0,29,0,,,,,,,,,,,,,,,,,,,,,,,,,,267.6948532999959,None,afternoon,71,30,aloud,red,265.6909006999922,None,None,265.6909006999922,None,,,,,,,,,,,,,,,,,,,,,,,,,,,,,,,,,,,8Aloud,001,2022_Aug_02_1010,ProdSingRedoBetween,2021.2.3,59.92351363774908,
30,0,30,0,,,,,,,,,,,,,,,,,,,,,,,,,,270.21906289999606,None,travel,79,31,aloud,red,268.20640759996604,None,None,268.20640759996604,None,,,,,,,,,,,,,,,,,,,,,,,,,,,,,,,,,,,8Aloud,001,2022_Aug_02_1010,ProdSingRedoBetween,2021.2.3,59.92351363774908,
31,0,31,0,,,,,,,,,,,,,,,,,,,,,,,,,,272.7331496999832,None,block,60,32,aloud,red,270.72348739998415,None,None,270.72348739998415,None,,,,,,,,,,,,,,,,,,,,,,,,,,,,,,,,,,,8Aloud,001,2022_Aug_02_1010,ProdSingRedoBetween,2021.2.3,59.92351363774908,
32,0,32,0,,,,,,,,,,,,,,,,,,,,,,,,,,275.2523836999899,None,native,87,33,aloud,red,273.2435297999764,None,None,273.2435297999764,None,,,,,,,,,,,,,,,,,,,,,,,,,,,,,,,,,,,8Aloud,001,2022_Aug_02_1010,ProdSingRedoBetween,2021.2.3,59.92351363774908,
33,0,33,0,,,,,,,,,,,,,,,,,,,,,,,,,,277.7715448999661,None,platform,78,34,aloud,red,275.7635047999793,None,None,275.7635047999793,None,,,,,,,,,,,,,,,,,,,,,,,,,,,,,,,,,,,8Aloud,001,2022_Aug_02_1010,ProdSingRedoBetween,2021.2.3,59.92351363774908,
34,0,34,0,,,,,,,,,,,,,,,,,,,,,,,,,,280.2907145000063,None,route,85,35,aloud,red,278.28118409996387,None,None,278.28118409996387,None,,,,,,,,,,,,,,,,,,,,,,,,,,,,,,,,,,,8Aloud,001,2022_Aug_02_1010,ProdSingRedoBetween,2021.2.3,59.92351363774908,
35,0,35,0,,,,,,,,,,,,,,,,,,,,,,,,,,282.809909100004,None,search,10,36,aloud,yellow,280.8069500999991,None,None,280.8069500999991,None,,,,,,,,,,,,,,,,,,,,,,,,,,,,,,,,,,,8Aloud,001,2022_Aug_02_1010,ProdSingRedoBetween,2021.2.3,59.92351363774908,
36,0,36,0,,,,,,,,,,,,,,,,,,,,,,,,,,285.31238369998755,None,throw,53,37,aloud,blue,283.31026110000676,None,None,283.31026110000676,None,,,,,,,,,,,,,,,,,,,,,,,,,,,,,,,,,,,8Aloud,001,2022_Aug_02_1010,ProdSingRedoBetween,2021.2.3,59.92351363774908,
37,0,37,0,,,,,,,,,,,,,,,,,,,,,,,,,,287.83156079996843,None,agreement,89,38,aloud,red,285.8215039999923,None,None,285.8215039999923,None,,,,,,,,,,,,,,,,,,,,,,,,,,,,,,,,,,,8Aloud,001,2022_Aug_02_1010,ProdSingRedoBetween,2021.2.3,59.92351363774908,
38,0,38,0,,,,,,,,,,,,,,,,,,,,,,,,,,290.3505265999702,None,count,81,39,aloud,red,288.3381250000093,None,None,288.3381250000093,None,,,,,,,,,,,,,,,,,,,,,,,,,,,,,,,,,,,8Aloud,001,2022_Aug_02_1010,ProdSingRedoBetween,2021.2.3,59.92351363774908,
39,0,39,0,,,,,,,,,,,,,,,,,,,,,,,,,,292.86986599996453,None,swift,5,40,aloud,yellow,290.8615543000051,None,None,290.8615543000051,None,,,,,,,,,,,,,,,,,,,,,,,,,,,,,,,,,,,8Aloud,001,2022_Aug_02_1010,ProdSingRedoBetween,2021.2.3,59.92351363774908,
40,0,40,0,,,,,,,,,,,,,,,,,,,,,,,,,,295.38910719996784,None,hunger,1,41,aloud,yellow,293.3873534000013,None,None,293.3873534000013,None,,,,,,,,,,,,,,,,,,,,,,,,,,,,,,,,,,,8Aloud,001,2022_Aug_02_1010,ProdSingRedoBetween,2021.2.3,59.92351363774908,
41,0,41,0,,,,,,,,,,,,,,,,,,,,,,,,,,297.8914060999523,None,clean,0,42,aloud,yellow,295.8912693999591,None,None,295.8912693999591,None,,,,,,,,,,,,,,,,,,,,,,,,,,,,,,,,,,,8Aloud,001,2022_Aug_02_1010,ProdSingRedoBetween,2021.2.3,59.92351363774908,
42,0,42,0,,,,,,,,,,,,,,,,,,,,,,,,,,300.4105476999539,None,business,39,43,aloud,blue,298.39929139998276,None,None,298.39929139998276,None,,,,,,,,,,,,,,,,,,,,,,,,,,,,,,,,,,,8Aloud,001,2022_Aug_02_1010,ProdSingRedoBetween,2021.2.3,59.92351363774908,
43,0,43,0,,,,,,,,,,,,,,,,,,,,,,,,,,302.91299689997686,None,report,13,44,aloud,yellow,300.9109355999972,None,None,300.9109355999972,None,,,,,,,,,,,,,,,,,,,,,,,,,,,,,,,,,,,8Aloud,001,2022_Aug_02_1010,ProdSingRedoBetween,2021.2.3,59.92351363774908,
44,0,44,0,,,,,,,,,,,,,,,,,,,,,,,,,,305.4155588999856,None,accident,69,45,aloud,red,303.4135816000053,None,None,303.4135816000053,None,,,,,,,,,,,,,,,,,,,,,,,,,,,,,,,,,,,8Aloud,001,2022_Aug_02_1010,ProdSingRedoBetween,2021.2.3,59.92351363774908,
45,0,45,0,,,,,,,,,,,,,,,,,,,,,,,,,,307.91803689999506,None,curve,47,46,aloud,blue,305.91607189999195,None,None,305.91607189999195,None,,,,,,,,,,,,,,,,,,,,,,,,,,,,,,,,,,,8Aloud,001,2022_Aug_02_1010,ProdSingRedoBetween,2021.2.3,59.92351363774908,
46,0,46,0,,,,,,,,,,,,,,,,,,,,,,,,,,310.42047129996354,None,session,70,47,aloud,red,308.41850049997447,None,None,308.41850049997447,None,,,,,,,,,,,,,,,,,,,,,,,,,,,,,,,,,,,8Aloud,001,2022_Aug_02_1010,ProdSingRedoBetween,2021.2.3,59.92351363774908,
47,0,47,0,,,,,,,,,,,,,,,,,,,,,,,,,,312.92322880000575,None,clear,43,48,aloud,blue,310.92099729995243,None,None,310.92099729995243,None,,,,,,,,,,,,,,,,,,,,,,,,,,,,,,,,,,,8Aloud,001,2022_Aug_02_1010,ProdSingRedoBetween,2021.2.3,59.92351363774908,
48,0,48,0,,,,,,,,,,,,,,,,,,,,,,,,,,315.4254339999752,None,growth,40,49,aloud,blue,313.4240523999906,None,None,313.4240523999906,None,,,,,,,,,,,,,,,,,,,,,,,,,,,,,,,,,,,8Aloud,001,2022_Aug_02_1010,ProdSingRedoBetween,2021.2.3,59.92351363774908,
49,0,49,0,,,,,,,,,,,,,,,,,,,,,,,,,,317.9284163999837,None,split,61,50,aloud,red,315.9263773999992,None,None,315.9263773999992,None,,,,,,,,,,,,,,,,,,,,,,,,,,,,,,,,,,,8Aloud,001,2022_Aug_02_1010,ProdSingRedoBetween,2021.2.3,59.92351363774908,
50,0,50,0,,,,,,,,,,,,,,,,,,,,,,,,,,320.4304716999759,None,center,28,51,aloud,yellow,318.42862659995444,None,None,318.42862659995444,None,,,,,,,,,,,,,,,,,,,,,,,,,,,,,,,,,,,8Aloud,001,2022_Aug_02_1010,ProdSingRedoBetween,2021.2.3,59.92351363774908,
51,0,51,0,,,,,,,,,,,,,,,,,,,,,,,,,,322.9329202999943,None,place,19,52,aloud,yellow,320.93101229995955,None,None,320.93101229995955,None,,,,,,,,,,,,,,,,,,,,,,,,,,,,,,,,,,,8Aloud,001,2022_Aug_02_1010,ProdSingRedoBetween,2021.2.3,59.92351363774908,
52,0,52,0,,,,,,,,,,,,,,,,,,,,,,,,,,325.435966799967,None,under,75,53,aloud,red,323.4334961999557,None,None,323.4334961999557,None,,,,,,,,,,,,,,,,,,,,,,,,,,,,,,,,,,,8Aloud,001,2022_Aug_02_1010,ProdSingRedoBetween,2021.2.3,59.92351363774908,
53,0,53,0,,,,,,,,,,,,,,,,,,,,,,,,,,327.93807889998425,None,evidence,64,54,aloud,red,325.93602409999585,None,None,325.93602409999585,None,,,,,,,,,,,,,,,,,,,,,,,,,,,,,,,,,,,8Aloud,001,2022_Aug_02_1010,ProdSingRedoBetween,2021.2.3,59.92351363774908,
54,0,54,0,,,,,,,,,,,,,,,,,,,,,,,,,,330.4406561999931,None,turkey,36,55,aloud,blue,328.4389022999676,None,None,328.4389022999676,None,,,,,,,,,,,,,,,,,,,,,,,,,,,,,,,,,,,8Aloud,001,2022_Aug_02_1010,ProdSingRedoBetween,2021.2.3,59.92351363774908,
55,0,55,0,,,,,,,,,,,,,,,,,,,,,,,,,,332.9598262999789,None,article,18,56,aloud,yellow,330.95110829995247,None,None,330.95110829995247,None,,,,,,,,,,,,,,,,,,,,,,,,,,,,,,,,,,,8Aloud,001,2022_Aug_02_1010,ProdSingRedoBetween,2021.2.3,59.92351363774908,
56,0,56,0,,,,,,,,,,,,,,,,,,,,,,,,,,335.4623423999874,None,goose,12,57,aloud,yellow,333.4602507999516,None,None,333.4602507999516,None,,,,,,,,,,,,,,,,,,,,,,,,,,,,,,,,,,,8Aloud,001,2022_Aug_02_1010,ProdSingRedoBetween,2021.2.3,59.92351363774908,
57,0,57,0,,,,,,,,,,,,,,,,,,,,,,,,,,337.98165949998656,None,union,84,58,aloud,red,335.968977099983,None,None,335.968977099983,None,,,,,,,,,,,,,,,,,,,,,,,,,,,,,,,,,,,8Aloud,001,2022_Aug_02_1010,ProdSingRedoBetween,2021.2.3,59.92351363774908,
58,0,58,0,,,,,,,,,,,,,,,,,,,,,,,,,,340.5008500999538,None,reading,29,59,aloud,blue,338.488667299971,None,None,338.488667299971,None,,,,,,,,,,,,,,,,,,,,,,,,,,,,,,,,,,,8Aloud,001,2022_Aug_02_1010,ProdSingRedoBetween,2021.2.3,59.92351363774908,
59,0,59,0,,,,,,,,,,,,,,,,,,,,,,,,,,343.01965819997713,None,ground,6,60,aloud,yellow,341.0080794999958,None,None,341.0080794999958,None,,,,,,,,,,,,,,,,,,,,,,,,,,,,,,,,,,,8Aloud,001,2022_Aug_02_1010,ProdSingRedoBetween,2021.2.3,59.92351363774908,
60,0,60,0,,,,,,,,,,,,,,,,,,,,,,,,,,345.5224297999521,None,partner,74,61,aloud,red,343.5203065999667,None,None,343.5203065999667,None,,,,,,,,,,,,,,,,,,,,,,,,,,,,,,,,,,,8Aloud,001,2022_Aug_02_1010,ProdSingRedoBetween,2021.2.3,59.92351363774908,
61,0,61,0,,,,,,,,,,,,,,,,,,,,,,,,,,348.0415878999629,None,fellow,15,62,aloud,yellow,346.0342416999629,None,None,346.0342416999629,None,,,,,,,,,,,,,,,,,,,,,,,,,,,,,,,,,,,8Aloud,001,2022_Aug_02_1010,ProdSingRedoBetween,2021.2.3,59.92351363774908,
62,0,62,0,,,,,,,,,,,,,,,,,,,,,,,,,,350.5609113999526,None,rapid,7,63,aloud,yellow,348.55558049998945,None,None,348.55558049998945,None,,,,,,,,,,,,,,,,,,,,,,,,,,,,,,,,,,,8Aloud,001,2022_Aug_02_1010,ProdSingRedoBetween,2021.2.3,59.92351363774908,
63,0,63,0,,,,,,,,,,,,,,,,,,,,,,,,,,353.0800739999977,None,death,2,64,aloud,yellow,351.06826450000517,None,None,351.06826450000517,None,,,,,,,,,,,,,,,,,,,,,,,,,,,,,,,,,,,8Aloud,001,2022_Aug_02_1010,ProdSingRedoBetween,2021.2.3,59.92351363774908,
64,0,64,0,,,,,,,,,,,,,,,,,,,,,,,,,,355.59918909997214,None,government,45,65,aloud,blue,353.5895893999841,None,None,353.5895893999841,None,,,,,,,,,,,,,,,,,,,,,,,,,,,,,,,,,,,8Aloud,001,2022_Aug_02_1010,ProdSingRedoBetween,2021.2.3,59.92351363774908,
65,0,65,0,,,,,,,,,,,,,,,,,,,,,,,,,,358.11808639997616,None,drama,66,66,aloud,red,356.1074383999803,None,None,356.1074383999803,None,,,,,,,,,,,,,,,,,,,,,,,,,,,,,,,,,,,8Aloud,001,2022_Aug_02_1010,ProdSingRedoBetween,2021.2.3,59.92351363774908,
66,0,66,0,,,,,,,,,,,,,,,,,,,,,,,,,,360.6206586000044,None,surface,9,67,aloud,yellow,358.6193460999639,None,None,358.6193460999639,None,,,,,,,,,,,,,,,,,,,,,,,,,,,,,,,,,,,8Aloud,001,2022_Aug_02_1010,ProdSingRedoBetween,2021.2.3,59.92351363774908,
67,0,67,0,,,,,,,,,,,,,,,,,,,,,,,,,,363.14013479999267,None,whole,44,68,aloud,blue,361.1343771999818,None,None,361.1343771999818,None,,,,,,,,,,,,,,,,,,,,,,,,,,,,,,,,,,,8Aloud,001,2022_Aug_02_1010,ProdSingRedoBetween,2021.2.3,59.92351363774908,
68,0,68,0,,,,,,,,,,,,,,,,,,,,,,,,,,365.6593057999853,None,problem,86,69,aloud,red,363.65057860000525,None,None,363.65057860000525,None,,,,,,,,,,,,,,,,,,,,,,,,,,,,,,,,,,,8Aloud,001,2022_Aug_02_1010,ProdSingRedoBetween,2021.2.3,59.92351363774908,
69,0,69,0,,,,,,,,,,,,,,,,,,,,,,,,,,368.17849209997803,None,question,62,70,aloud,red,366.1689344999613,None,None,366.1689344999613,None,,,,,,,,,,,,,,,,,,,,,,,,,,,,,,,,,,,8Aloud,001,2022_Aug_02_1010,ProdSingRedoBetween,2021.2.3,59.92351363774908,
70,0,70,0,,,,,,,,,,,,,,,,,,,,,,,,,,370.69766939996043,None,machinery,31,71,aloud,blue,368.6856973999529,None,None,368.6856973999529,None,,,,,,,,,,,,,,,,,,,,,,,,,,,,,,,,,,,8Aloud,001,2022_Aug_02_1010,ProdSingRedoBetween,2021.2.3,59.92351363774908,
71,0,71,0,,,,,,,,,,,,,,,,,,,,,,,,,,373.2165333000012,None,group,41,72,aloud,blue,371.20404769998277,None,None,371.20404769998277,None,,,,,,,,,,,,,,,,,,,,,,,,,,,,,,,,,,,8Aloud,001,2022_Aug_02_1010,ProdSingRedoBetween,2021.2.3,59.92351363774908,
72,0,72,0,,,,,,,,,,,,,,,,,,,,,,,,,,375.7193126999773,None,bureau,82,73,aloud,red,373.71717679995345,None,None,373.71717679995345,None,,,,,,,,,,,,,,,,,,,,,,,,,,,,,,,,,,,8Aloud,001,2022_Aug_02_1010,ProdSingRedoBetween,2021.2.3,59.92351363774908,
73,0,73,0,,,,,,,,,,,,,,,,,,,,,,,,,,378.23886919999495,None,property,55,74,aloud,blue,376.23282849998213,None,None,376.23282849998213,None,,,,,,,,,,,,,,,,,,,,,,,,,,,,,,,,,,,8Aloud,001,2022_Aug_02_1010,ProdSingRedoBetween,2021.2.3,59.92351363774908,
74,0,74,0,,,,,,,,,,,,,,,,,,,,,,,,,,380.75773269997444,None,impact,25,75,aloud,yellow,378.7483119999524,None,None,378.7483119999524,None,,,,,,,,,,,,,,,,,,,,,,,,,,,,,,,,,,,8Aloud,001,2022_Aug_02_1010,ProdSingRedoBetween,2021.2.3,59.92351363774908,
75,0,75,0,,,,,,,,,,,,,,,,,,,,,,,,,,383.27680369996233,None,science,56,76,aloud,blue,381.2689371999586,None,None,381.2689371999586,None,,,,,,,,,,,,,,,,,,,,,,,,,,,,,,,,,,,8Aloud,001,2022_Aug_02_1010,ProdSingRedoBetween,2021.2.3,59.92351363774908,
76,0,76,0,,,,,,,,,,,,,,,,,,,,,,,,,,385.7961217999691,None,salary,23,77,aloud,yellow,383.7866433999734,None,None,383.7866433999734,None,,,,,,,,,,,,,,,,,,,,,,,,,,,,,,,,,,,8Aloud,001,2022_Aug_02_1010,ProdSingRedoBetween,2021.2.3,59.92351363774908,
77,0,77,0,,,,,,,,,,,,,,,,,,,,,,,,,,388.3152546999627,None,atmosphere,8,78,aloud,yellow,386.3063917999971,None,None,386.3063917999971,None,,,,,,,,,,,,,,,,,,,,,,,,,,,,,,,,,,,8Aloud,001,2022_Aug_02_1010,ProdSingRedoBetween,2021.2.3,59.92351363774908,
78,0,78,0,,,,,,,,,,,,,,,,,,,,,,,,,,390.8344451999874,None,course,46,79,aloud,blue,388.82449909998104,None,None,388.82449909998104,None,,,,,,,,,,,,,,,,,,,,,,,,,,,,,,,,,,,8Aloud,001,2022_Aug_02_1010,ProdSingRedoBetween,2021.2.3,59.92351363774908,
79,0,79,0,,,,,,,,,,,,,,,,,,,,,,,,,,393.35369089996675,None,track,26,80,aloud,yellow,391.34345280000707,None,None,391.34345280000707,None,,,,,,,,,,,,,,,,,,,,,,,,,,,,,,,,,,,8Aloud,001,2022_Aug_02_1010,ProdSingRedoBetween,2021.2.3,59.92351363774908,
80,0,80,0,,,,,,,,,,,,,,,,,,,,,,,,,,395.87281719996827,None,cover,58,81,aloud,blue,393.8635769999819,None,None,393.8635769999819,None,,,,,,,,,,,,,,,,,,,,,,,,,,,,,,,,,,,8Aloud,001,2022_Aug_02_1010,ProdSingRedoBetween,2021.2.3,59.92351363774908,
81,0,81,0,,,,,,,,,,,,,,,,,,,,,,,,,,398.375320799998,None,couch,63,82,aloud,red,396.3762099999585,None,None,396.3762099999585,None,,,,,,,,,,,,,,,,,,,,,,,,,,,,,,,,,,,8Aloud,001,2022_Aug_02_1010,ProdSingRedoBetween,2021.2.3,59.92351363774908,
82,0,82,0,,,,,,,,,,,,,,,,,,,,,,,,,,400.8945123999729,None,executive,50,83,aloud,blue,398.8896899999818,None,None,398.8896899999818,None,,,,,,,,,,,,,,,,,,,,,,,,,,,,,,,,,,,8Aloud,001,2022_Aug_02_1010,ProdSingRedoBetween,2021.2.3,59.92351363774908,
83,0,83,0,,,,,,,,,,,,,,,,,,,,,,,,,,403.4135291999555,None,sleep,27,84,aloud,yellow,401.4048864999786,None,None,401.4048864999786,None,,,,,,,,,,,,,,,,,,,,,,,,,,,,,,,,,,,8Aloud,001,2022_Aug_02_1010,ProdSingRedoBetween,2021.2.3,59.92351363774908,
84,0,84,0,,,,,,,,,,,,,,,,,,,,,,,,,,405.9328742999933,None,population,68,85,aloud,red,403.9180925999535,None,None,403.9180925999535,None,,,,,,,,,,,,,,,,,,,,,,,,,,,,,,,,,,,8Aloud,001,2022_Aug_02_1010,ProdSingRedoBetween,2021.2.3,59.92351363774908,
85,0,85,0,,,,,,,,,,,,,,,,,,,,,,,,,,408.4520445999806,None,enemy,24,86,aloud,yellow,406.4438373000012,None,None,406.4438373000012,None,,,,,,,,,,,,,,,,,,,,,,,,,,,,,,,,,,,8Aloud,001,2022_Aug_02_1010,ProdSingRedoBetween,2021.2.3,59.92351363774908,
86,0,86,0,,,,,,,,,,,,,,,,,,,,,,,,,,410.9712362999562,None,point,48,87,aloud,blue,408.96149179997155,None,None,408.96149179997155,None,,,,,,,,,,,,,,,,,,,,,,,,,,,,,,,,,,,8Aloud,001,2022_Aug_02_1010,ProdSingRedoBetween,2021.2.3,59.92351363774908,
87,0,87,0,,,,,,,,,,,,,,,,,,,,,,,,,,413.4904674999998,None,committee,33,88,aloud,blue,411.47918899997603,None,None,411.47918899997603,None,,,,,,,,,,,,,,,,,,,,,,,,,,,,,,,,,,,8Aloud,001,2022_Aug_02_1010,ProdSingRedoBetween,2021.2.3,59.92351363774908,
88,0,88,0,,,,,,,,,,,,,,,,,,,,,,,,,,416.00958569999784,None,department,17,89,aloud,yellow,414.00181869999506,None,None,414.00181869999506,None,,,,,,,,,,,,,,,,,,,,,,,,,,,,,,,,,,,8Aloud,001,2022_Aug_02_1010,ProdSingRedoBetween,2021.2.3,59.92351363774908,
89,0,89,0,,,,,,,,,,,,,,,,,,,,,,,,,,418.5287728999974,None,device,65,90,aloud,red,416.5197138999938,None,None,416.5197138999938,None,,,,,,,,,,,,,,,,,,,,,,,,,,,,,,,,,,,8Aloud,001,2022_Aug_02_1010,ProdSingRedoBetween,2021.2.3,59.92351363774908,
,,,,,,,,,,,,,,,,,,,,,,,,,,,,,,,,,,,,,,,,,419.0294722999679,None,k,9.036225699994247,419.0294722999679,None,,,,,,,,,,,,,,,,,,,,,,,,,,,,,8Aloud,001,2022_Aug_02_1010,ProdSingRedoBetween,2021.2.3,59.92351363774908,
,,,,0,0,0,0,,,,,,,,,,,,,,,,,,,,,,510.49630759999854,None,,,,,,,,,,,,,,,,,ground,6,1,aloud,old,yellow,428.61059810000006,None,428.61059810000006,None,3,40.64692150003975,428.61059810000006,None,40.64692150003975,469.29804869997315,None,469.8231817999622,None,469.8231817999622,None,f,40.6343276000116,469.8231817999622,None,40.6343276000116,,,8Aloud,001,2022_Aug_02_1010,ProdSingRedoBetween,2021.2.3,59.92351363774908,
,,,,1,0,1,0,,,,,,,,,,,,,,,,,,,,,,523.8004241999588,None,,,,,,,,,,,,,,,,,atmosphere,8,2,aloud,old,yellow,511.02267879998544,None,511.02267879998544,None,6,3.218874499958474,511.02267879998544,None,3.218874499958474,514.2734934999608,None,514.7850626999862,None,514.7850626999862,None,r,9.000162300013471,514.7850626999862,None,9.000162300013471,,,8Aloud,001,2022_Aug_02_1010,ProdSingRedoBetween,2021.2.3,59.92351363774908,
,,,,2,0,2,0,,,,,,,,,,,,,,,,,,,,,,530.4481112000067,None,,,,,,,,,,,,,,,,,contract,162,3,aloud,new,null,524.3154456999619,None,524.3154456999619,None,5,3.8459895999985747,524.3154456999619,None,3.8459895999985747,528.2034350999747,None,528.7146838000044,None,528.7146838000044,None,f,1.694734500022605,528.7146838000044,None,1.694734500022605,,,8Aloud,001,2022_Aug_02_1010,ProdSingRedoBetween,2021.2.3,59.92351363774908,
,,,,3,0,3,0,,,,,,,,,,,,,,,,,,,,,,536.1023614999722,None,,,,,,,,,,,,,,,,,defeat,117,4,aloud,new,null,530.9732559999684,None,530.9732559999684,None,1,3.3082232999731787,530.9732559999684,None,3.3082232999731787,534.322365799977,None,534.836542999954,None,534.836542999954,None,n,1.2288332000025548,534.836542999954,None,1.2288332000025548,,,8Aloud,001,2022_Aug_02_1010,ProdSingRedoBetween,2021.2.3,59.92351363774908,
,,,,4,0,4,0,,,,,,,,,,,,,,,,,,,,,,545.1912225999986,None,,,,,,,,,,,,,,,,,center,28,5,aloud,old,yellow,536.6243307999684,None,536.6243307999684,None,5,6.633234900014941,536.6243307999684,None,6.633234900014941,543.3015477999579,None,543.8099913999904,None,543.8099913999904,None,f,1.359374799998477,543.8099913999904,None,1.359374799998477,,,8Aloud,001,2022_Aug_02_1010,ProdSingRedoBetween,2021.2.3,59.92351363774908,
,,,,5,0,5,0,,,,,,,,,,,,,,,,,,,,,,551.0482354999986,None,,,,,,,,,,,,,,,,,group,41,6,aloud,old,blue,545.7170875999727,None,545.7170875999727,None,6,3.0764020000351593,545.7170875999727,None,3.0764020000351593,548.8272428999771,None,549.3500998999807,None,549.3500998999807,None,r,1.6750285999733023,549.3500998999807,None,1.6750285999733023,,,8Aloud,001,2022_Aug_02_1010,ProdSingRedoBetween,2021.2.3,59.92351363774908,
,,,,6,0,6,0,,,,,,,,,,,,,,,,,,,,,,557.1417695999844,None,,,,,,,,,,,,,,,,,congress,173,7,aloud,new,null,551.5732978999731,None,551.5732978999731,None,1,2.0358562000328675,551.5732978999731,None,2.0358562000328675,553.6346629000036,None,554.1513997999718,None,554.1513997999718,None,n,2.9541378000285476,554.1513997999718,None,2.9541378000285476,,,8Aloud,001,2022_Aug_02_1010,ProdSingRedoBetween,2021.2.3,59.92351363774908,
,,,,7,0,7,0,,,,,,,,,,,,,,,,,,,,,,563.0980512999813,None,,,,,,,,,,,,,,,,,clean,0,8,aloud,old,yellow,557.6677101999521,None,557.6677101999521,None,5,3.085739400004968,557.6677101999521,None,3.085739400004968,560.7867991999956,None,561.2947030999931,None,561.2947030999931,None,r,1.7706264999578707,561.2947030999931,None,1.7706264999578707,,,8Aloud,001,2022_Aug_02_1010,ProdSingRedoBetween,2021.2.3,59.92351363774908,
,,,,8,0,8,0,,,,,,,,,,,,,,,,,,,,,,569.8914193999954,None,,,,,,,,,,,,,,,,,surface,9,9,aloud,old,yellow,563.6203790999716,None,563.6203790999716,None,4,3.733049300033599,563.6203790999716,None,3.733049300033599,567.3956516999751,None,567.9015428999555,None,567.9015428999555,None,f,1.955805700039491,567.9015428999555,None,1.955805700039491,,,8Aloud,001,2022_Aug_02_1010,ProdSingRedoBetween,2021.2.3,59.92351363774908,
,,,,9,0,9,0,,,,,,,,,,,,,,,,,,,,,,574.9101516999654,None,,,,,,,,,,,,,,,,,health,158,10,aloud,new,null,570.4099152999697,None,570.4099152999697,None,1,1.8474873999948613,570.4099152999697,None,1.8474873999948613,572.2982470999705,None,572.8087406999548,None,572.8087406999548,None,n,2.072693500027526,572.8087406999548,None,2.072693500027526,,,8Aloud,001,2022_Aug_02_1010,ProdSingRedoBetween,2021.2.3,59.92351363774908,
,,,,10,0,10,0,,,,,,,,,,,,,,,,,,,,,,585.4678149999818,None,,,,,,,,,,,,,,,,,military,34,11,aloud,old,blue,575.4432828999707,None,575.4432828999707,None,6,3.0220207000384107,575.4432828999707,None,3.0220207000384107,578.4883988999645,None,578.9996779999929,None,578.9996779999929,None,r,6.433808800007682,578.9996779999929,None,6.433808800007682,,,8Aloud,001,2022_Aug_02_1010,ProdSingRedoBetween,2021.2.3,59.92351363774908,
,,,,11,0,11,0,,,,,,,,,,,,,,,,,,,,,,595.0725331999711,None,,,,,,,,,,,,,,,,,device,65,12,aloud,old,red,585.9915826999932,None,585.9915826999932,None,5,5.233858400024474,585.9915826999932,None,5.233858400024474,591.2694849999971,None,591.7762835999602,None,591.7762835999602,None,f,3.2731362000340596,591.7762835999602,None,3.2731362000340596,,,8Aloud,001,2022_Aug_02_1010,ProdSingRedoBetween,2021.2.3,59.92351363774908,
,,,,12,0,12,0,,,,,,,,,,,,,,,,,,,,,,603.955080499989,None,,,,,,,,,,,,,,,,,salary,23,13,aloud,old,yellow,595.589024099987,None,595.589024099987,None,5,2.2525551000144333,595.589024099987,None,2.2525551000144333,597.8769463999779,None,598.3826118999859,None,598.3826118999859,None,r,5.538784399977885,598.3826118999859,None,5.538784399977885,,,8Aloud,001,2022_Aug_02_1010,ProdSingRedoBetween,2021.2.3,59.92351363774908,
,,,,13,0,13,0,,,,,,,,,,,,,,,,,,,,,,611.4319037999958,None,,,,,,,,,,,,,,,,,south,51,14,aloud,old,blue,604.4769634999684,None,604.4769634999684,None,6,4.60451330000069,604.4769634999684,None,4.60451330000069,609.1208163999836,None,609.6262417999678,None,609.6262417999678,None,r,1.775150700006634,609.6262417999678,None,1.775150700006634,,,8Aloud,001,2022_Aug_02_1010,ProdSingRedoBetween,2021.2.3,59.92351363774908,
,,,,14,0,14,0,,,,,,,,,,,,,,,,,,,,,,617.5605487999856,None,,,,,,,,,,,,,,,,,rapid,7,15,aloud,old,yellow,611.9535395999555,None,611.9535395999555,None,5,2.479828500014264,611.9535395999555,None,2.479828500014264,614.4732236999553,None,614.9748621999752,None,614.9748621999752,None,f,2.562332100002095,614.9748621999752,None,2.562332100002095,,,8Aloud,001,2022_Aug_02_1010,ProdSingRedoBetween,2021.2.3,59.92351363774908,
,,,,15,0,15,0,,,,,,,,,,,,,,,,,,,,,,623.0734588999767,None,,,,,,,,,,,,,,,,,front,108,16,aloud,new,null,618.0613089999533,None,618.0613089999533,None,1,3.2121708000195213,618.0613089999533,None,3.2121708000195213,621.3134994999855,None,621.8212251999648,None,621.8212251999648,None,n,1.2281362999929115,621.8212251999648,None,1.2281362999929115,,,8Aloud,001,2022_Aug_02_1010,ProdSingRedoBetween,2021.2.3,59.92351363774908,
,,,,16,0,16,0,,,,,,,,,,,,,,,,,,,,,,629.3965580000076,None,,,,,,,,,,,,,,,,,object,147,17,aloud,new,null,623.5952940999996,None,623.5952940999996,None,1,3.8381225000484847,623.5952940999996,None,3.8381225000484847,627.4653464999865,None,627.9785857999814,None,627.9785857999814,None,n,1.3828532000188716,627.9785857999814,None,1.3828532000188716,,,8Aloud,001,2022_Aug_02_1010,ProdSingRedoBetween,2021.2.3,59.92351363774908,
,,,,17,0,17,0,,,,,,,,,,,,,,,,,,,,,,633.4298514999682,None,,,,,,,,,,,,,,,,,bitter,96,18,aloud,new,null,629.9078454999835,None,629.9078454999835,None,1,2.18957310001133,629.9078454999835,None,2.18957310001133,632.1397036999697,None,632.6501196000027,None,632.6501196000027,None,n,0.7591612000251189,632.6501196000027,None,0.7591612000251189,,,8Aloud,001,2022_Aug_02_1010,ProdSingRedoBetween,2021.2.3,59.92351363774908,
,,,,18,0,18,0,,,,,,,,,,,,,,,,,,,,,,637.650324199989,None,,,,,,,,,,,,,,,,,victory,143,19,aloud,new,null,633.9635581999901,None,633.9635581999901,None,4,2.3977332999929786,633.9635581999901,None,2.3977332999929786,636.4004209999694,None,636.9055567999603,None,636.9055567999603,None,f,0.7197483999771066,636.9055567999603,None,0.7197483999771066,,,8Aloud,001,2022_Aug_02_1010,ProdSingRedoBetween,2021.2.3,59.92351363774908,
,,,,19,0,19,0,,,,,,,,,,,,,,,,,,,,,,642.599835800007,None,,,,,,,,,,,,,,,,,business,39,20,aloud,old,blue,638.176026000001,None,638.176026000001,None,6,2.4813891000230797,638.176026000001,None,2.4813891000230797,640.696732499986,None,641.2146497999784,None,641.2146497999784,None,f,1.3549112000036985,641.2146497999784,None,1.3549112000036985,,,8Aloud,001,2022_Aug_02_1010,ProdSingRedoBetween,2021.2.3,59.92351363774908,
,,,,20,0,20,0,,,,,,,,,,,,,,,,,,,,,,650.5534017999889,None,,,,,,,,,,,,,,,,,machinery,31,21,aloud,old,blue,643.1060461999732,None,643.1060461999732,None,6,5.607278499985114,643.1060461999732,None,5.607278499985114,648.7515474999673,None,649.2674713999731,None,649.2674713999731,None,r,1.2538536000065506,649.2674713999731,None,1.2538536000065506,,,8Aloud,001,2022_Aug_02_1010,ProdSingRedoBetween,2021.2.3,59.92351363774908,
,,,,21,0,21,0,,,,,,,,,,,,,,,,,,,,,,654.6891528999549,None,,,,,,,,,,,,,,,,,route,85,22,aloud,old,red,651.077714199957,None,651.077714199957,None,5,2.3157097999937832,651.077714199957,None,2.3157097999937832,653.4284255999955,None,653.9370267000049,None,653.9370267000049,None,r,0.7202965000178665,653.9370267000049,None,0.7202965000178665,,,8Aloud,001,2022_Aug_02_1010,ProdSingRedoBetween,2021.2.3,59.92351363774908,
,,,,22,0,22,0,,,,,,,,,,,,,,,,,,,,,,667.8684633999947,None,,,,,,,,,,,,,,,,,reading,29,23,aloud,old,blue,655.2101384999696,None,655.2101384999696,None,3,8.063259100017603,655.2101384999696,None,8.063259100017603,663.2944758000085,None,663.8129906999529,None,663.8129906999529,None,f,4.020378299988806,663.8129906999529,None,4.020378299988806,,,8Aloud,001,2022_Aug_02_1010,ProdSingRedoBetween,2021.2.3,59.92351363774908,
,,,,23,0,23,0,,,,,,,,,,,,,,,,,,,,,,675.4589438999537,None,,,,,,,,,,,,,,,,,concern,99,24,aloud,new,null,668.3891088999808,None,668.3891088999808,None,3,5.179938399989624,668.3891088999808,None,5.179938399989624,673.5998399999808,None,674.1089025999536,None,674.1089025999536,None,f,1.3164768999558873,674.1089025999536,None,1.3164768999558873,,,8Aloud,001,2022_Aug_02_1010,ProdSingRedoBetween,2021.2.3,59.92351363774908,
,,,,24,0,24,0,,,,,,,,,,,,,,,,,,,,,,679.4932549999794,None,,,,,,,,,,,,,,,,,speech,155,25,aloud,new,null,675.9850370999775,None,675.9850370999775,None,1,1.576325599977281,675.9850370999775,None,1.576325599977281,677.5986847999739,None,678.1176653999719,None,678.1176653999719,None,n,1.3553974999813363,678.1176653999719,None,1.3553974999813363,,,8Aloud,001,2022_Aug_02_1010,ProdSingRedoBetween,2021.2.3,59.92351363774908,
,,,,25,0,25,0,,,,,,,,,,,,,,,,,,,,,,683.8490868000081,None,,,,,,,,,,,,,,,,,plane,90,26,aloud,new,null,680.014568499988,None,680.014568499988,None,1,2.7307322999695316,680.014568499988,None,2.7307322999695316,682.7834738999954,None,683.292928299983,None,683.292928299983,None,n,0.5323079000227153,683.292928299983,None,0.5323079000227153,,,8Aloud,001,2022_Aug_02_1010,ProdSingRedoBetween,2021.2.3,59.92351363774908,
,,,,26,0,26,0,,,,,,,,,,,,,,,,,,,,,,689.5050922000082,None,,,,,,,,,,,,,,,,,impact,25,27,aloud,old,yellow,684.3647056999616,None,684.3647056999616,None,1,3.524443699978292,684.3647056999616,None,3.524443699978292,687.9294486999861,None,688.4430944999913,None,688.4430944999913,None,n,1.0382219000020996,688.4430944999913,None,1.0382219000020996,,,8Aloud,001,2022_Aug_02_1010,ProdSingRedoBetween,2021.2.3,59.92351363774908,
,,,,27,0,27,0,,,,,,,,,,,,,,,,,,,,,,694.3064724999713,None,,,,,,,,,,,,,,,,,straight,123,28,aloud,new,null,690.0315547999926,None,690.0315547999926,None,1,3.193754000007175,690.0315547999926,None,3.193754000007175,693.2697539000073,None,693.7776313999784,None,693.7776313999784,None,n,0.4956260999897495,693.7776313999784,None,0.4956260999897495,,,8Aloud,001,2022_Aug_02_1010,ProdSingRedoBetween,2021.2.3,59.92351363774908,
,,,,28,0,28,0,,,,,,,,,,,,,,,,,,,,,,698.05936319998,None,,,,,,,,,,,,,,,,,brief,168,29,aloud,new,null,694.8367537999875,None,694.8367537999875,None,2,2.116486100014299,694.8367537999875,None,2.116486100014299,696.9814729999634,None,697.5003707999713,None,697.5003707999713,None,n,0.5328026000061072,697.5003707999713,None,0.5328026000061072,,,8Aloud,001,2022_Aug_02_1010,ProdSingRedoBetween,2021.2.3,59.92351363774908,
,,,,29,0,29,0,,,,,,,,,,,,,,,,,,,,,,706.9184118999983,None,,,,,,,,,,,,,,,,,population,68,30,aloud,old,red,698.5788078999612,None,698.5788078999612,None,2,7.37462289998075,698.5788078999612,None,7.37462289998075,706.000074599986,None,706.5092393999803,None,706.5092393999803,None,n,0.38800420000916347,706.5092393999803,None,0.38800420000916347,,,8Aloud,001,2022_Aug_02_1010,ProdSingRedoBetween,2021.2.3,59.92351363774908,
,,,,30,0,30,0,,,,,,,,,,,,,,,,,,,,,,712.6933500999585,None,,,,,,,,,,,,,,,,,department,17,31,aloud,old,yellow,707.4503392999759,None,707.4503392999759,None,3,3.3750101000186987,707.4503392999759,None,3.3750101000186987,710.8716202999931,None,711.3795309999841,None,711.3795309999841,None,f,1.2858082000166178,711.3795309999841,None,1.2858082000166178,,,8Aloud,001,2022_Aug_02_1010,ProdSingRedoBetween,2021.2.3,59.92351363774908,
,,,,31,0,31,0,,,,,,,,,,,,,,,,,,,,,,728.107665199961,None,,,,,,,,,,,,,,,,,figure,110,32,aloud,new,null,713.2089530999656,None,713.2089530999656,None,2,13.496433100022841,713.2089530999656,None,13.496433100022841,726.7419941999833,None,727.2634721999639,None,727.2634721999639,None,n,0.8098759999847971,727.2634721999639,None,0.8098759999847971,,,8Aloud,001,2022_Aug_02_1010,ProdSingRedoBetween,2021.2.3,59.92351363774908,
,,,,32,0,32,0,,,,,,,,,,,,,,,,,,,,,,733.0075118999812,None,,,,,,,,,,,,,,,,,trash,37,33,aloud,old,blue,728.636940700002,None,728.636940700002,None,6,2.6044748999993317,728.636940700002,None,2.6044748999993317,731.2712672000052,None,731.7842668999801,None,731.7842668999801,None,r,1.1930781000410207,731.7842668999801,None,1.1930781000410207,,,8Aloud,001,2022_Aug_02_1010,ProdSingRedoBetween,2021.2.3,59.92351363774908,
,,,,33,0,33,0,,,,,,,,,,,,,,,,,,,,,,737.821628799953,None,,,,,,,,,,,,,,,,,agreement,89,34,aloud,old,red,733.5111736999825,None,733.5111736999825,None,5,2.4501105999806896,733.5111736999825,None,2.4501105999806896,735.9973174000042,None,736.5063012999599,None,736.5063012999599,None,f,1.2790933000505902,736.5063012999599,None,1.2790933000505902,,,8Aloud,001,2022_Aug_02_1010,ProdSingRedoBetween,2021.2.3,59.92351363774908,
,,,,34,0,34,0,,,,,,,,,,,,,,,,,,,,,,745.5382126999903,None,,,,,,,,,,,,,,,,,character,171,35,aloud,new,null,738.3441638000077,None,738.3441638000077,None,1,6.041006100014783,738.3441638000077,None,6.041006100014783,744.404987899994,None,744.90459619998,None,744.90459619998,None,n,0.6085073000285774,744.90459619998,None,0.6085073000285774,,,8Aloud,001,2022_Aug_02_1010,ProdSingRedoBetween,2021.2.3,59.92351363774908,
,,,,35,0,35,0,,,,,,,,,,,,,,,,,,,,,,752.0843601999804,None,,,,,,,,,,,,,,,,,union,84,36,aloud,old,red,746.043525599991,None,746.043525599991,None,1,4.5815826000180095,746.043525599991,None,4.5815826000180095,750.6492993999855,None,751.168515599973,None,751.168515599973,None,n,0.8810778999468312,751.168515599973,None,0.8810778999468312,,,8Aloud,001,2022_Aug_02_1010,ProdSingRedoBetween,2021.2.3,59.92351363774908,
,,,,36,0,36,0,,,,,,,,,,,,,,,,,,,,,,755.1160745999659,None,,,,,,,,,,,,,,,,,dream,163,37,aloud,new,null,752.6073280999553,None,752.6073280999553,None,1,1.6659832000150345,752.6073280999553,None,1.6659832000150345,754.3125928000081,None,754.8225247999653,None,754.8225247999653,None,n,0.26662369997939095,754.8225247999653,None,0.26662369997939095,,,8Aloud,001,2022_Aug_02_1010,ProdSingRedoBetween,2021.2.3,59.92351363774908,
,,,,37,0,37,0,,,,,,,,,,,,,,,,,,,,,,758.4535754999961,None,,,,,,,,,,,,,,,,,cousin,114,38,aloud,new,null,755.6265915999538,None,755.6265915999538,None,1,1.9507211999734864,755.6265915999538,None,1.9507211999734864,757.6105568999774,None,758.12551849999,None,758.12551849999,None,n,0.2998327999957837,758.12551849999,None,0.2998327999957837,,,8Aloud,001,2022_Aug_02_1010,ProdSingRedoBetween,2021.2.3,59.92351363774908,
,,,,38,0,38,0,,,,,,,,,,,,,,,,,,,,,,764.5610437999712,None,,,,,,,,,,,,,,,,,afternoon,71,39,aloud,old,red,758.9814053999726,None,758.9814053999726,None,1,3.9237846999894828,758.9814053999726,None,3.9237846999894828,762.9401035999763,None,763.4397483000066,None,763.4397483000066,None,n,1.0895580999786034,763.4397483000066,None,1.0895580999786034,,,8Aloud,001,2022_Aug_02_1010,ProdSingRedoBetween,2021.2.3,59.92351363774908,
,,,,39,0,39,0,,,,,,,,,,,,,,,,,,,,,,768.7196744999965,None,,,,,,,,,,,,,,,,,little,92,40,aloud,new,null,765.088757199992,None,765.088757199992,None,1,2.4485146999941207,765.088757199992,None,2.4485146999941207,767.5701357999933,None,768.0837715999805,None,768.0837715999805,None,n,0.6134983999654651,768.0837715999805,None,0.6134983999654651,,,8Aloud,001,2022_Aug_02_1010,ProdSingRedoBetween,2021.2.3,59.92351363774908,
,,,,40,0,40,0,,,,,,,,,,,,,,,,,,,,,,776.2361010999884,None,,,,,,,,,,,,,,,,,institute,156,41,aloud,new,null,769.2404830000014,None,769.2404830000014,None,1,5.848610599990934,769.2404830000014,None,5.848610599990934,775.1247655999614,None,775.6434869999648,None,775.6434869999648,None,n,0.573764199973084,775.6434869999648,None,0.573764199973084,,,8Aloud,001,2022_Aug_02_1010,ProdSingRedoBetween,2021.2.3,59.92351363774908,
,,,,41,0,41,0,,,,,,,,,,,,,,,,,,,,,,779.9236894999631,None,,,,,,,,,,,,,,,,,dozen,101,42,aloud,new,null,776.7607822999707,None,776.7607822999707,None,1,1.8325554999755695,776.7607822999707,None,1.8325554999755695,778.6342751999618,None,779.1462343999883,None,779.1462343999883,None,n,0.7509427999611944,779.1462343999883,None,0.7509427999611944,,,8Aloud,001,2022_Aug_02_1010,ProdSingRedoBetween,2021.2.3,59.92351363774908,
,,,,42,0,42,0,,,,,,,,,,,,,,,,,,,,,,784.1801348999725,None,,,,,,,,,,,,,,,,,heavy,102,43,aloud,new,null,780.4425407999661,None,780.4425407999661,None,1,2.3986495999852195,780.4425407999661,None,2.3986495999852195,782.8701433999813,None,783.3873978999909,None,783.3873978999909,None,n,0.7656933999969624,783.3873978999909,None,0.7656933999969624,,,8Aloud,001,2022_Aug_02_1010,ProdSingRedoBetween,2021.2.3,59.92351363774908,
,,,,43,0,43,0,,,,,,,,,,,,,,,,,,,,,,790.3177946999785,None,,,,,,,,,,,,,,,,,capital,16,44,aloud,old,yellow,784.7083957999712,None,784.7083957999712,None,5,2.316808699979447,784.7083957999712,None,2.316808699979447,787.055728599953,None,787.571884999983,None,787.571884999983,None,f,2.725302000006195,787.571884999983,None,2.725302000006195,,,8Aloud,001,2022_Aug_02_1010,ProdSingRedoBetween,2021.2.3,59.92351363774908,
,,,,44,0,44,0,,,,,,,,,,,,,,,,,,,,,,797.725031799986,None,,,,,,,,,,,,,,,,,present,32,45,aloud,old,blue,790.8327896999544,None,790.8327896999544,None,3,5.4403501999913715,790.8327896999544,None,5.4403501999913715,796.2967249999638,None,796.8138538000057,None,796.8138538000057,None,f,0.8914326999802142,796.8138538000057,None,0.8914326999802142,,,8Aloud,001,2022_Aug_02_1010,ProdSingRedoBetween,2021.2.3,59.92351363774908,
,,,,45,0,45,0,,,,,,,,,,,,,,,,,,,,,,803.4697262999834,None,,,,,,,,,,,,,,,,,question,62,46,aloud,old,red,798.2409143999685,None,798.2409143999685,None,5,3.456353500019759,798.2409143999685,None,3.456353500019759,801.7396451999666,None,802.263752800005,None,802.263752800005,None,f,1.1694429999915883,802.263752800005,None,1.1694429999915883,,,8Aloud,001,2022_Aug_02_1010,ProdSingRedoBetween,2021.2.3,59.92351363774908,
,,,,46,0,46,0,,,,,,,,,,,,,,,,,,,,,,807.9087466999772,None,,,,,,,,,,,,,,,,,executive,50,47,aloud,old,blue,803.9989576999797,None,803.9989576999797,None,6,2.8664669999852777,803.9989576999797,None,2.8664669999852777,806.8973944999743,None,807.4113477999927,None,807.4113477999927,None,r,0.46198089997051284,807.4113477999927,None,0.46198089997051284,,,8Aloud,001,2022_Aug_02_1010,ProdSingRedoBetween,2021.2.3,59.92351363774908,
,,,,47,0,47,0,,,,,,,,,,,,,,,,,,,,,,819.003151199955,None,,,,,,,,,,,,,,,,,committee,33,48,aloud,old,blue,808.4228399999556,None,808.4228399999556,None,6,1.94633479998447,808.4228399999556,None,1.94633479998447,810.3981744999764,None,810.9106708999607,None,810.9106708999607,None,r,8.066656699986197,810.9106708999607,None,8.066656699986197,,,8Aloud,001,2022_Aug_02_1010,ProdSingRedoBetween,2021.2.3,59.92351363774908,
,,,,48,0,48,0,,,,,,,,,,,,,,,,,,,,,,825.6045144999516,None,,,,,,,,,,,,,,,,,light,137,49,aloud,new,null,819.5241437999648,None,819.5241437999648,None,1,2.0531944999820553,819.5241437999648,None,2.0531944999820553,821.6137694999925,None,822.1213416999672,None,822.1213416999672,None,n,3.463806499959901,822.1213416999672,None,3.463806499959901,,,8Aloud,001,2022_Aug_02_1010,ProdSingRedoBetween,2021.2.3,59.92351363774908,
,,,,49,0,49,0,,,,,,,,,,,,,,,,,,,,,,834.71852699999,None,,,,,,,,,,,,,,,,,council,97,50,aloud,new,null,826.1340742000029,None,826.1340742000029,None,2,4.235227900033351,826.1340742000029,None,4.235227900033351,830.4095181999728,None,830.930166599981,None,830.930166599981,None,n,3.759029599954374,830.930166599981,None,3.759029599954374,,,8Aloud,001,2022_Aug_02_1010,ProdSingRedoBetween,2021.2.3,59.92351363774908,
,,,,50,0,50,0,,,,,,,,,,,,,,,,,,,,,,838.0039074000088,None,,,,,,,,,,,,,,,,,childhood,148,51,aloud,new,null,835.2386229999829,None,835.2386229999829,None,1,1.666619100025855,835.2386229999829,None,1.666619100025855,836.945522199967,None,837.4542542999843,None,837.4542542999843,None,n,0.5229606999782845,837.4542542999843,None,0.5229606999782845,,,8Aloud,001,2022_Aug_02_1010,ProdSingRedoBetween,2021.2.3,59.92351363774908,
,,,,51,0,51,0,,,,,,,,,,,,,,,,,,,,,,842.1747802000027,None,,,,,,,,,,,,,,,,,finish,83,52,aloud,old,red,838.5309468999621,None,838.5309468999621,None,1,2.0543845999636687,838.5309468999621,None,2.0543845999636687,840.6359515999793,None,841.1573638999835,None,841.1573638999835,None,n,0.9800775999901816,841.1573638999835,None,0.9800775999901816,,,8Aloud,001,2022_Aug_02_1010,ProdSingRedoBetween,2021.2.3,59.92351363774908,
,,,,52,0,52,0,,,,,,,,,,,,,,,,,,,,,,848.6594187999726,None,,,,,,,,,,,,,,,,,charter,118,53,aloud,new,null,842.6992810000083,None,842.6992810000083,None,1,4.933812500035856,842.6992810000083,None,4.933812500035856,847.6570793999708,None,848.1669905000017,None,848.1669905000017,None,n,0.4661748000071384,848.1669905000017,None,0.4661748000071384,,,8Aloud,001,2022_Aug_02_1010,ProdSingRedoBetween,2021.2.3,59.92351363774908,
,,,,53,0,53,0,,,,,,,,,,,,,,,,,,,,,,861.5796144999913,None,,,,,,,,,,,,,,,,,welcome,116,54,aloud,new,null,849.1806378999609,None,849.1806378999609,None,1,11.060612000001129,849.1806378999609,None,11.060612000001129,860.2882753000013,None,860.8114706999622,None,860.8114706999622,None,n,0.7417879999848083,860.8114706999622,None,0.7417879999848083,,,8Aloud,001,2022_Aug_02_1010,ProdSingRedoBetween,2021.2.3,59.92351363774908,
,,,,54,0,54,0,,,,,,,,,,,,,,,,,,,,,,866.1669445000007,None,,,,,,,,,,,,,,,,,science,56,55,aloud,old,blue,862.1092701999587,None,862.1092701999587,None,1,3.020077900029719,862.1092701999587,None,3.020077900029719,865.1787918999908,None,865.699419099954,None,865.699419099954,None,n,0.4298831000342034,865.699419099954,None,0.4298831000342034,,,8Aloud,001,2022_Aug_02_1010,ProdSingRedoBetween,2021.2.3,59.92351363774908,
,,,,55,0,55,0,,,,,,,,,,,,,,,,,,,,,,873.3492538999999,None,,,,,,,,,,,,,,,,,weight,166,56,aloud,new,null,866.6891199999955,None,866.6891199999955,None,4,5.383972000039648,866.6891199999955,None,5.383972000039648,872.1069567999803,None,872.6216000999557,None,872.6216000999557,None,f,0.6994783999980427,872.6216000999557,None,0.6994783999980427,,,8Aloud,001,2022_Aug_02_1010,ProdSingRedoBetween,2021.2.3,59.92351363774908,
,,,,56,0,56,0,,,,,,,,,,,,,,,,,,,,,,879.6909282999695,None,,,,,,,,,,,,,,,,,edition,157,57,aloud,new,null,873.8713820999837,None,873.8713820999837,None,1,4.938086399983149,873.8713820999837,None,4.938086399983149,878.8539105999516,None,879.3619083999656,None,879.3619083999656,None,n,0.3113485000212677,879.3619083999656,None,0.3113485000212677,,,8Aloud,001,2022_Aug_02_1010,ProdSingRedoBetween,2021.2.3,59.92351363774908,
,,,,57,0,57,0,,,,,,,,,,,,,,,,,,,,,,896.0620633999933,None,,,,,,,,,,,,,,,,,century,119,58,aloud,new,null,880.2192757999874,None,880.2192757999874,None,2,13.622083399968687,880.2192757999874,None,13.622083399968687,893.8871388999978,None,894.3955789000029,None,894.3955789000029,None,f,1.6375635000295006,894.3955789000029,None,1.6375635000295006,,,8Aloud,001,2022_Aug_02_1010,ProdSingRedoBetween,2021.2.3,59.92351363774908,
,,,,58,0,58,0,,,,,,,,,,,,,,,,,,,,,,901.0124387999531,None,,,,,,,,,,,,,,,,,principal,136,59,aloud,new,null,896.5882492999663,None,896.5882492999663,None,1,3.196730000025127,896.5882492999663,None,3.196730000025127,899.8103067000047,None,900.3196246000007,None,900.3196246000007,None,n,0.6734684000257403,900.3196246000007,None,0.6734684000257403,,,8Aloud,001,2022_Aug_02_1010,ProdSingRedoBetween,2021.2.3,59.92351363774908,
,,,,59,0,59,0,,,,,,,,,,,,,,,,,,,,,,904.8879469999811,None,,,,,,,,,,,,,,,,,escape,159,60,aloud,new,null,901.5402993999887,None,901.5402993999887,None,2,1.8688605999923311,901.5402993999887,None,1.8688605999923311,903.4367842999636,None,903.9559914999991,None,903.9559914999991,None,f,0.9012273999978788,903.9559914999991,None,0.9012273999978788,,,8Aloud,001,2022_Aug_02_1010,ProdSingRedoBetween,2021.2.3,59.92351363774908,
,,,,60,0,60,0,,,,,,,,,,,,,,,,,,,,,,912.8304454999743,None,,,,,,,,,,,,,,,,,throw,53,61,aloud,old,blue,905.4086179999867,None,905.4086179999867,None,4,6.43264229997294,905.4086179999867,None,6.43264229997294,911.8878821999533,None,912.396029399999,None,912.396029399999,None,f,0.39736249996349216,912.396029399999,None,0.39736249996349216,,,8Aloud,001,2022_Aug_02_1010,ProdSingRedoBetween,2021.2.3,59.92351363774908,
,,,,61,0,61,0,,,,,,,,,,,,,,,,,,,,,,916.3260256999638,None,,,,,,,,,,,,,,,,,permit,103,62,aloud,new,null,913.340973399987,None,913.340973399987,None,1,1.764327599958051,913.340973399987,None,1.764327599958051,915.1414133000071,None,915.6491468999884,None,915.6491468999884,None,n,0.6479065000312403,915.6491468999884,None,0.6479065000312403,,,8Aloud,001,2022_Aug_02_1010,ProdSingRedoBetween,2021.2.3,59.92351363774908,
,,,,62,0,62,0,,,,,,,,,,,,,,,,,,,,,,927.6111944000004,None,,,,,,,,,,,,,,,,,couch,63,63,aloud,old,red,916.8394267999684,None,916.8394267999684,None,5,8.76169790001586,916.8394267999684,None,8.76169790001586,925.6247762999847,None,926.1395603999845,None,926.1395603999845,None,f,1.4457640000036918,926.1395603999845,None,1.4457640000036918,,,8Aloud,001,2022_Aug_02_1010,ProdSingRedoBetween,2021.2.3,59.92351363774908,
,,,,63,0,63,0,,,,,,,,,,,,,,,,,,,,,,933.4517917999765,None,,,,,,,,,,,,,,,,,majority,22,64,aloud,old,yellow,928.1377136000083,None,928.1377136000083,None,6,4.071399100008421,928.1377136000083,None,4.071399100008421,932.2380738999927,None,932.7515722999815,None,932.7515722999815,None,r,0.6736084999865852,932.7515722999815,None,0.6736084999865852,,,8Aloud,001,2022_Aug_02_1010,ProdSingRedoBetween,2021.2.3,59.92351363774908,
,,,,64,0,64,0,,,,,,,,,,,,,,,,,,,,,,939.5820224999916,None,,,,,,,,,,,,,,,,,motion,105,65,aloud,new,null,933.975662199955,None,933.975662199955,None,1,4.121385900012683,933.975662199955,None,4.121385900012683,938.1425951999845,None,938.6479254000005,None,938.6479254000005,None,n,0.9050097999861464,938.6479254000005,None,0.9050097999861464,,,8Aloud,001,2022_Aug_02_1010,ProdSingRedoBetween,2021.2.3,59.92351363774908,
,,,,65,0,65,0,,,,,,,,,,,,,,,,,,,,,,943.4379776999704,None,,,,,,,,,,,,,,,,,interior,88,66,aloud,old,red,940.0975064999657,None,940.0975064999657,None,6,1.9598694000160322,940.0975064999657,None,1.9598694000160322,942.1026510999654,None,942.6101456999895,None,942.6101456999895,None,r,0.7988096000044607,942.6101456999895,None,0.7988096000044607,,,8Aloud,001,2022_Aug_02_1010,ProdSingRedoBetween,2021.2.3,59.92351363774908,
,,,,66,0,66,0,,,,,,,,,,,,,,,,,,,,,,967.9579695999855,None,,,,,,,,,,,,,,,,,alert,128,67,aloud,new,null,943.9614019999863,None,943.9614019999863,None,1,21.903834500000812,943.9614019999863,None,21.903834500000812,965.9067249000072,None,966.4146049999981,None,966.4146049999981,None,n,1.5066767999669537,966.4146049999981,None,1.5066767999669537,,,8Aloud,001,2022_Aug_02_1010,ProdSingRedoBetween,2021.2.3,59.92351363774908,
,,,,67,0,67,0,,,,,,,,,,,,,,,,,,,,,,971.2381722999853,None,,,,,,,,,,,,,,,,,bright,109,68,aloud,new,null,968.4751113000093,None,968.4751113000093,None,1,1.702343999990262,968.4751113000093,None,1.702343999990262,970.2109256999684,None,970.7223603999591,None,970.7223603999591,None,n,0.47892500000307336,970.7223603999591,None,0.47892500000307336,,,8Aloud,001,2022_Aug_02_1010,ProdSingRedoBetween,2021.2.3,59.92351363774908,
,,,,68,0,68,0,,,,,,,,,,,,,,,,,,,,,,976.4940390999545,None,,,,,,,,,,,,,,,,,series,131,69,aloud,new,null,971.764295800007,None,971.764295800007,None,1,1.348574900010135,971.764295800007,None,1.348574900010135,973.1441663999576,None,973.6494848000002,None,973.6494848000002,None,n,2.8157622999860905,973.6494848000002,None,2.8157622999860905,,,8Aloud,001,2022_Aug_02_1010,ProdSingRedoBetween,2021.2.3,59.92351363774908,
,,,,69,0,69,0,,,,,,,,,,,,,,,,,,,,,,991.8175537000061,None,,,,,,,,,,,,,,,,,subject,140,70,aloud,new,null,977.0186145000043,None,977.0186145000043,None,2,12.758426300017163,977.0186145000043,None,12.758426300017163,989.8063929000054,None,990.3260817999835,None,990.3260817999835,None,n,1.4669089000090025,990.3260817999835,None,1.4669089000090025,,,8Aloud,001,2022_Aug_02_1010,ProdSingRedoBetween,2021.2.3,59.92351363774908,
,,,,70,0,70,0,,,,,,,,,,,,,,,,,,,,,,1000.4496892999741,None,,,,,,,,,,,,,,,,,government,45,71,aloud,old,blue,992.3355631000013,None,992.3355631000013,None,6,1.8897060999879614,992.3355631000013,None,1.8897060999879614,994.2717228999827,None,994.7789832999697,None,994.7789832999697,None,r,5.6382000999874435,994.7789832999697,None,5.6382000999874435,,,8Aloud,001,2022_Aug_02_1010,ProdSingRedoBetween,2021.2.3,59.92351363774908,
,,,,71,0,71,0,,,,,,,,,,,,,,,,,,,,,,1007.5865053999587,None,,,,,,,,,,,,,,,,,nation,177,72,aloud,new,null,1000.971309799992,None,1000.971309799992,None,4,5.605902999988757,1000.971309799992,None,5.605902999988757,1006.6155473999679,None,1007.1260135999764,None,1007.1260135999764,None,f,0.4352358999894932,1007.1260135999764,None,0.4352358999894932,,,8Aloud,001,2022_Aug_02_1010,ProdSingRedoBetween,2021.2.3,59.92351363774908,
,,,,72,0,72,0,,,,,,,,,,,,,,,,,,,,,,1012.9295619999757,None,,,,,,,,,,,,,,,,,accident,69,73,aloud,old,red,1008.1137019000016,None,1008.1137019000016,None,5,3.823449299961794,1008.1137019000016,None,3.823449299961794,1011.9693453999935,None,1012.4715817999677,None,1012.4715817999677,None,f,0.4336094000027515,1012.4715817999677,None,0.4336094000027515,,,8Aloud,001,2022_Aug_02_1010,ProdSingRedoBetween,2021.2.3,59.92351363774908,
,,,,73,0,73,0,,,,,,,,,,,,,,,,,,,,,,1017.5356919000042,None,,,,,,,,,,,,,,,,,strength,94,74,aloud,new,null,1013.4550608999562,None,1013.4550608999562,None,2,2.7380596000002697,1013.4550608999562,None,2.7380596000002697,1016.226766799984,None,1016.7358696999727,None,1016.7358696999727,None,n,0.7693036000127904,1016.7358696999727,None,0.7693036000127904,,,8Aloud,001,2022_Aug_02_1010,ProdSingRedoBetween,2021.2.3,59.92351363774908,
,,,,74,0,74,0,,,,,,,,,,,,,,,,,,,,,,1028.7231077000033,None,,,,,,,,,,,,,,,,,color,104,75,aloud,new,null,1018.0589746999904,None,1018.0589746999904,None,1,9.470186399994418,1018.0589746999904,None,9.470186399994418,1027.5686158000026,None,1028.0706907999702,None,1028.0706907999702,None,n,0.6263331000227481,1028.0706907999702,None,0.6263331000227481,,,8Aloud,001,2022_Aug_02_1010,ProdSingRedoBetween,2021.2.3,59.92351363774908,
,,,,75,0,75,0,,,,,,,,,,,,,,,,,,,,,,1032.560659199953,None,,,,,,,,,,,,,,,,,individual,167,76,aloud,new,null,1029.251809999987,None,1029.251809999987,None,1,2.1973661000374705,1029.251809999987,None,2.1973661000374705,1031.4928923999541,None,1032.0021118999575,None,1032.0021118999575,None,n,0.5271538000088185,1032.0021118999575,None,0.5271538000088185,,,8Aloud,001,2022_Aug_02_1010,ProdSingRedoBetween,2021.2.3,59.92351363774908,
,,,,76,0,76,0,,,,,,,,,,,,,,,,,,,,,,1041.1915241999668,None,,,,,,,,,,,,,,,,,break,59,77,aloud,old,yellow,1033.0750133999973,None,1033.0750133999973,None,5,6.214130199979991,1033.0750133999973,None,6.214130199979991,1039.332211699977,None,1039.8381472000037,None,1039.8381472000037,None,f,1.3230608999729156,1039.8381472000037,None,1.3230608999729156,,,8Aloud,001,2022_Aug_02_1010,ProdSingRedoBetween,2021.2.3,59.92351363774908,
,,,,77,0,77,0,,,,,,,,,,,,,,,,,,,,,,1044.6387704999652,None,,,,,,,,,,,,,,,,,message,112,78,aloud,new,null,1041.717150899989,None,1041.717150899989,None,1,1.5880404000054114,1041.717150899989,None,1.5880404000054114,1043.3514831999782,None,1043.860018599953,None,1043.860018599953,None,n,0.7490889999899082,1043.860018599953,None,0.7490889999899082,,,8Aloud,001,2022_Aug_02_1010,ProdSingRedoBetween,2021.2.3,59.92351363774908,
,,,,78,0,78,0,,,,,,,,,,,,,,,,,,,,,,1052.0286703999736,None,,,,,,,,,,,,,,,,,still,76,79,aloud,old,red,1045.1698541999795,None,1045.1698541999795,None,4,3.7272663000039756,1045.1698541999795,None,3.7272663000039756,1048.9440687999595,None,1049.4417506000027,None,1049.4417506000027,None,f,2.5673656000290066,1049.4417506000027,None,2.5673656000290066,,,8Aloud,001,2022_Aug_02_1010,ProdSingRedoBetween,2021.2.3,59.92351363774908,
,,,,79,0,79,0,,,,,,,,,,,,,,,,,,,,,,1074.498408799991,None,,,,,,,,,,,,,,,,,silence,93,80,aloud,new,null,1052.5431075000088,None,1052.5431075000088,None,2,20.37027949996991,1052.5431075000088,None,20.37027949996991,1072.9504387999768,None,1073.4585755000007,None,1073.4585755000007,None,f,1.0066852000309154,1073.4585755000007,None,1.0066852000309154,,,8Aloud,001,2022_Aug_02_1010,ProdSingRedoBetween,2021.2.3,59.92351363774908,
,,,,80,0,80,0,,,,,,,,,,,,,,,,,,,,,,1080.8425183999934,None,,,,,,,,,,,,,,,,,property,55,81,aloud,old,blue,1075.0156067999778,None,1075.0156067999778,None,4,5.065552999963984,1075.0156067999778,None,5.065552999963984,1080.1237841999973,None,1080.6320905999746,None,1080.6320905999746,None,f,0.19296219997340813,1080.6320905999746,None,0.19296219997340813,,,8Aloud,001,2022_Aug_02_1010,ProdSingRedoBetween,2021.2.3,59.92351363774908,
,,,,81,0,81,0,,,,,,,,,,,,,,,,,,,,,,1103.7714959000004,None,,,,,,,,,,,,,,,,,company,121,82,aloud,new,null,1081.3683438999578,None,1081.3683438999578,None,4,20.264795599970967,1081.3683438999578,None,20.264795599970967,1101.6795088999788,None,1102.2032164999982,None,1102.2032164999982,None,f,1.5418541000108235,1102.2032164999982,None,1.5418541000108235,,,8Aloud,001,2022_Aug_02_1010,ProdSingRedoBetween,2021.2.3,59.92351363774908,
,,,,82,0,82,0,,,,,,,,,,,,,,,,,,,,,,1107.7916436999803,None,,,,,,,,,,,,,,,,,medicine,141,83,aloud,new,null,1104.2920974000008,None,1104.2920974000008,None,1,2.4610746999969706,1104.2920974000008,None,2.4610746999969706,1106.7975711000036,None,1107.3066925999592,None,1107.3066925999592,None,n,0.43843249999918044,1107.3066925999592,None,0.43843249999918044,,,8Aloud,001,2022_Aug_02_1010,ProdSingRedoBetween,2021.2.3,59.92351363774908,
,,,,83,0,83,0,,,,,,,,,,,,,,,,,,,,,,1112.1310714999563,None,,,,,,,,,,,,,,,,,period,174,84,aloud,new,null,1108.3174743999843,None,1108.3174743999843,None,1,2.843481999996584,1108.3174743999843,None,2.843481999996584,1111.202177500003,None,1111.706968899991,None,1111.706968899991,None,n,0.39837700000498444,1111.706968899991,None,0.39837700000498444,,,8Aloud,001,2022_Aug_02_1010,ProdSingRedoBetween,2021.2.3,59.92351363774908,
,,,,84,0,84,0,,,,,,,,,,,,,,,,,,,,,,1117.762355499959,None,,,,,,,,,,,,,,,,,second,35,85,aloud,old,blue,1112.6530652999645,None,1112.6530652999645,None,4,4.108064300031401,1112.6530652999645,None,4.108064300031401,1116.8096713999985,None,1117.31798729999,None,1117.31798729999,None,f,0.41107049997663125,1117.31798729999,None,0.41107049997663125,,,8Aloud,001,2022_Aug_02_1010,ProdSingRedoBetween,2021.2.3,59.92351363774908,
,,,,85,0,85,0,,,,,,,,,,,,,,,,,,,,,,1129.4628585999599,None,,,,,,,,,,,,,,,,,goose,12,86,aloud,old,yellow,1118.2905356999836,None,1118.2905356999836,None,6,2.1104693000088446,1118.2905356999836,None,2.1104693000088446,1120.4467150999699,None,1120.9570855000056,None,1120.9570855000056,None,r,8.46811549999984,1120.9570855000056,None,8.46811549999984,,,8Aloud,001,2022_Aug_02_1010,ProdSingRedoBetween,2021.2.3,59.92351363774908,
,,,,86,0,86,0,,,,,,,,,,,,,,,,,,,,,,1133.3979007999878,None,,,,,,,,,,,,,,,,,drink,130,87,aloud,new,null,1129.973958699964,None,1129.973958699964,None,1,2.411049099988304,1129.973958699964,None,2.411049099988304,1132.4251427999698,None,1132.9379269999918,None,1132.9379269999918,None,n,0.43890000000828877,1132.9379269999918,None,0.43890000000828877,,,8Aloud,001,2022_Aug_02_1010,ProdSingRedoBetween,2021.2.3,59.92351363774908,
,,,,87,0,87,0,,,,,,,,,,,,,,,,,,,,,,1141.2395663000061,None,,,,,,,,,,,,,,,,,running,165,88,aloud,new,null,1133.923976799997,None,1133.923976799997,None,2,5.685140399960801,1133.923976799997,None,5.685140399960801,1139.6467875999515,None,1140.1548749000067,None,1140.1548749000067,None,n,1.0542144000064582,1140.1548749000067,None,1.0542144000064582,,,8Aloud,001,2022_Aug_02_1010,ProdSingRedoBetween,2021.2.3,59.92351363774908,
,,,,88,0,88,0,,,,,,,,,,,,,,,,,,,,,,1147.5645690999809,None,,,,,,,,,,,,,,,,,native,87,89,aloud,old,red,1141.7651270999922,None,1141.7651270999922,None,6,4.731944700004533,1141.7651270999922,None,4.731944700004533,1146.5411545999814,None,1147.04692719999,None,1147.04692719999,None,r,0.48219110001809895,1147.04692719999,None,0.48219110001809895,,,8Aloud,001,2022_Aug_02_1010,ProdSingRedoBetween,2021.2.3,59.92351363774908,
,,,,89,0,89,0,,,,,,,,,,,,,,,,,,,,,,1151.8661754999775,None,,,,,,,,,,,,,,,,,sleep,27,90,aloud,old,yellow,1148.0856127999723,None,1148.0856127999723,None,6,2.2195433999877423,1148.0856127999723,None,2.2195433999877423,1150.3371251999633,None,1150.855461900006,None,1150.855461900006,None,r,0.9777235999936238,1150.855461900006,None,0.9777235999936238,,,8Aloud,001,2022_Aug_02_1010,ProdSingRedoBetween,2021.2.3,59.92351363774908,
,,,,90,0,90,0,,,,,,,,,,,,,,,,,,,,,,1168.9379267999902,None,,,,,,,,,,,,,,,,,religion,106,91,aloud,new,null,1152.3919698999962,None,1152.3919698999962,None,4,15.409127400023863,1152.3919698999962,None,15.409127400023863,1167.842856400006,None,1168.3440842999844,None,1168.3440842999844,None,f,0.561034300015308,1168.3440842999844,None,0.561034300015308,,,8Aloud,001,2022_Aug_02_1010,ProdSingRedoBetween,2021.2.3,59.92351363774908,
,,,,91,0,91,0,,,,,,,,,,,,,,,,,,,,,,1175.1924129999825,None,,,,,,,,,,,,,,,,,hunger,1,92,aloud,old,yellow,1169.4601576999994,None,1169.4601576999994,None,6,1.7808440999942832,1169.4601576999994,None,1.7808440999942832,1171.2721626999555,None,1171.7840995999868,None,1171.7840995999868,None,f,3.368990799994208,1171.7840995999868,None,3.368990799994208,,,8Aloud,001,2022_Aug_02_1010,ProdSingRedoBetween,2021.2.3,59.92351363774908,
,,,,92,0,92,0,,,,,,,,,,,,,,,,,,,,,,1178.4394950999995,None,,,,,,,,,,,,,,,,,corner,138,93,aloud,new,null,1175.7166114999563,None,1175.7166114999563,None,1,1.7883478999719955,1175.7166114999563,None,1.7883478999719955,1177.524712399987,None,1178.0447266999981,None,1178.0447266999981,None,n,0.3642292999429628,1178.0447266999981,None,0.3642292999429628,,,8Aloud,001,2022_Aug_02_1010,ProdSingRedoBetween,2021.2.3,59.92351363774908,
,,,,93,0,93,0,,,,,,,,,,,,,,,,,,,,,,1184.8125799999689,None,,,,,,,,,,,,,,,,,right,132,94,aloud,new,null,1178.9679107999546,None,1178.9679107999546,None,3,4.736886199971195,1178.9679107999546,None,4.736886199971195,1183.7258758999524,None,1184.2366311000078,None,1184.2366311000078,None,f,0.5482938999775797,1184.2366311000078,None,0.5482938999775797,,,8Aloud,001,2022_Aug_02_1010,ProdSingRedoBetween,2021.2.3,59.92351363774908,
,,,,94,0,94,0,,,,,,,,,,,,,,,,,,,,,,1188.904934899998,None,,,,,,,,,,,,,,,,,collection,113,95,aloud,new,null,1185.3420441999915,None,1185.3420441999915,None,1,2.6350563999731094,1185.3420441999915,None,2.6350563999731094,1188.0111739999847,None,1188.5208086000057,None,1188.5208086000057,None,n,0.36035570001695305,1188.5208086000057,None,0.36035570001695305,,,8Aloud,001,2022_Aug_02_1010,ProdSingRedoBetween,2021.2.3,59.92351363774908,
,,,,95,0,95,0,,,,,,,,,,,,,,,,,,,,,,1196.3550312999869,None,,,,,,,,,,,,,,,,,length,160,96,aloud,new,null,1189.4250076999888,None,1189.4250076999888,None,3,4.168057399976533,1189.4250076999888,None,4.168057399976533,1193.6344067999744,None,1194.1450451999553,None,1194.1450451999553,None,f,2.1837287999805994,1194.1450451999553,None,2.1837287999805994,,,8Aloud,001,2022_Aug_02_1010,ProdSingRedoBetween,2021.2.3,59.92351363774908,
,,,,96,0,96,0,,,,,,,,,,,,,,,,,,,,,,1200.4622600000002,None,,,,,,,,,,,,,,,,,raise,77,97,aloud,old,red,1196.8670380999683,None,1196.8670380999683,None,6,2.4220823000068776,1196.8670380999683,None,2.4220823000068776,1199.3211991999997,None,1199.833542999986,None,1199.833542999986,None,f,0.6073859999887645,1199.833542999986,None,0.6073859999887645,,,8Aloud,001,2022_Aug_02_1010,ProdSingRedoBetween,2021.2.3,59.92351363774908,
,,,,97,0,97,0,,,,,,,,,,,,,,,,,,,,,,1209.0102761999588,None,,,,,,,,,,,,,,,,,season,67,98,aloud,old,red,1200.9916347999824,None,1200.9916347999824,None,6,6.209404499968514,1200.9916347999824,None,6.209404499968514,1207.2398802999523,None,1207.7587878999766,None,1207.7587878999766,None,r,1.2182904999936,1207.7587878999766,None,1.2182904999936,,,8Aloud,001,2022_Aug_02_1010,ProdSingRedoBetween,2021.2.3,59.92351363774908,
,,,,98,0,98,0,,,,,,,,,,,,,,,,,,,,,,1214.1280727999983,None,,,,,,,,,,,,,,,,,force,172,99,aloud,new,null,1209.5346360999974,None,1209.5346360999974,None,2,2.0664754000026733,1209.5346360999974,None,2.0664754000026733,1211.6395457999897,None,1212.1607451000018,None,1212.1607451000018,None,n,1.944438100035768,1212.1607451000018,None,1.944438100035768,,,8Aloud,001,2022_Aug_02_1010,ProdSingRedoBetween,2021.2.3,59.92351363774908,
,,,,99,0,99,0,,,,,,,,,,,,,,,,,,,,,,1221.8345017999527,None,,,,,,,,,,,,,,,,,interview,127,100,aloud,new,null,1214.6549053000053,None,1214.6549053000053,None,1,6.5302530999761075,1214.6549053000053,None,6.5302530999761075,1221.2270717999781,None,1221.7441838000086,None,1221.7441838000086,None,n,0.05674100003670901,1221.7441838000086,None,0.05674100003670901,,,8Aloud,001,2022_Aug_02_1010,ProdSingRedoBetween,2021.2.3,59.92351363774908,
,,,,100,0,100,0,,,,,,,,,,,,,,,,,,,,,,1231.0164652999956,None,,,,,,,,,,,,,,,,,sight,175,101,aloud,new,null,1222.359857000003,None,1222.359857000003,None,1,7.8329089999897406,1222.359857000003,None,7.8329089999897406,1230.2270762999542,None,1230.745779399993,None,1230.745779399993,None,n,0.23920989996986464,1230.745779399993,None,0.23920989996986464,,,8Aloud,001,2022_Aug_02_1010,ProdSingRedoBetween,2021.2.3,59.92351363774908,
,,,,101,0,101,0,,,,,,,,,,,,,,,,,,,,,,1241.541552199982,None,,,,,,,,,,,,,,,,,enemy,24,102,aloud,old,yellow,1231.539873200003,None,1231.539873200003,None,6,8.197251999983564,1231.539873200003,None,8.197251999983564,1239.7815430999617,None,1240.2890693999943,None,1240.2890693999943,None,f,1.2240470999968238,1240.2890693999943,None,1.2240470999968238,,,8Aloud,001,2022_Aug_02_1010,ProdSingRedoBetween,2021.2.3,59.92351363774908,
,,,,102,0,102,0,,,,,,,,,,,,,,,,,,,,,,1247.3646442999598,None,,,,,,,,,,,,,,,,,discovery,144,103,aloud,new,null,1242.0676507999888,None,1242.0676507999888,None,2,4.333267399983015,1242.0676507999888,None,4.333267399983015,1246.4325594999827,None,1246.9423253999557,None,1246.9423253999557,None,n,0.39486980001674965,1246.9423253999557,None,0.39486980001674965,,,8Aloud,001,2022_Aug_02_1010,ProdSingRedoBetween,2021.2.3,59.92351363774908,
,,,,103,0,103,0,,,,,,,,,,,,,,,,,,,,,,1252.7708906999906,None,,,,,,,,,,,,,,,,,fellow,15,104,aloud,old,yellow,1247.888871699979,None,1247.888871699979,None,6,3.5040739999967627,1247.888871699979,None,3.5040739999967627,1251.428753699991,None,1251.934038999956,None,1251.934038999956,None,r,0.8030754000064917,1251.934038999956,None,0.8030754000064917,,,8Aloud,001,2022_Aug_02_1010,ProdSingRedoBetween,2021.2.3,59.92351363774908,
,,,,104,0,104,0,,,,,,,,,,,,,,,,,,,,,,1260.9266411999706,None,,,,,,,,,,,,,,,,,republic,153,105,aloud,new,null,1253.298135799996,None,1253.298135799996,None,2,3.16686249995837,1253.298135799996,None,3.16686249995837,1256.4985777999973,None,1257.0078946999856,None,1257.0078946999856,None,n,3.8808694999897853,1257.0078946999856,None,3.8808694999897853,,,8Aloud,001,2022_Aug_02_1010,ProdSingRedoBetween,2021.2.3,59.92351363774908,
,,,,105,0,105,0,,,,,,,,,,,,,,,,,,,,,,1266.1439074999653,None,,,,,,,,,,,,,,,,,management,142,106,aloud,new,null,1261.4422085999977,None,1261.4422085999977,None,1,3.798938099993393,1261.4422085999977,None,3.798938099993393,1265.266075499996,None,1265.7810899000033,None,1265.7810899000033,None,n,0.3318472999962978,1265.7810899000033,None,0.3318472999962978,,,8Aloud,001,2022_Aug_02_1010,ProdSingRedoBetween,2021.2.3,59.92351363774908,
,,,,106,0,106,0,,,,,,,,,,,,,,,,,,,,,,1273.816070700006,None,,,,,,,,,,,,,,,,,quiet,4,107,aloud,old,yellow,1266.6739591999794,None,1266.6739591999794,None,6,2.607459499966353,1266.6739591999794,None,2.607459499966353,1269.3288696999662,None,1269.8424213999533,None,1269.8424213999533,None,f,3.9423956000246108,1269.8424213999533,None,3.9423956000246108,,,8Aloud,001,2022_Aug_02_1010,ProdSingRedoBetween,2021.2.3,59.92351363774908,
,,,,107,0,107,0,,,,,,,,,,,,,,,,,,,,,,1279.2287660999573,None,,,,,,,,,,,,,,,,,platform,78,108,aloud,old,red,1274.3364087999798,None,1274.3364087999798,None,6,2.1365204000030644,1274.3364087999798,None,2.1365204000030644,1276.5100387999555,None,1277.0264989999705,None,1277.0264989999705,None,f,2.174601300037466,1277.0264989999705,None,2.174601300037466,,,8Aloud,001,2022_Aug_02_1010,ProdSingRedoBetween,2021.2.3,59.92351363774908,
,,,,108,0,108,0,,,,,,,,,,,,,,,,,,,,,,1283.7679239999852,None,,,,,,,,,,,,,,,,,clear,43,109,aloud,old,blue,1279.7476642999682,None,1279.7476642999682,None,6,1.6693312000134028,1279.7476642999682,None,1.6693312000134028,1281.4562556999736,None,1281.9637689999654,None,1281.9637689999654,None,r,1.7732435999787413,1281.9637689999654,None,1.7732435999787413,,,8Aloud,001,2022_Aug_02_1010,ProdSingRedoBetween,2021.2.3,59.92351363774908,
,,,,109,0,109,0,,,,,,,,,,,,,,,,,,,,,,1291.0514037999674,None,,,,,,,,,,,,,,,,,junior,125,110,aloud,new,null,1284.2878155999933,None,1284.2878155999933,None,2,2.7612701999605633,1284.2878155999933,None,2.7612701999605633,1287.0970706999651,None,1287.605488399975,None,1287.605488399975,None,n,3.4273893000208773,1287.605488399975,None,3.4273893000208773,,,8Aloud,001,2022_Aug_02_1010,ProdSingRedoBetween,2021.2.3,59.92351363774908,
,,,,110,0,110,0,,,,,,,,,,,,,,,,,,,,,,1302.269036099955,None,,,,,,,,,,,,,,,,,travel,79,111,aloud,old,red,1291.566232699959,None,1291.566232699959,None,3,4.4909935999894515,1291.566232699959,None,4.4909935999894515,1296.1039159999928,None,1296.6140201999806,None,1296.6140201999806,None,f,5.6192405999754556,1296.6140201999806,None,5.6192405999754556,,,8Aloud,001,2022_Aug_02_1010,ProdSingRedoBetween,2021.2.3,59.92351363774908,
,,,,111,0,111,0,,,,,,,,,,,,,,,,,,,,,,1308.9252379999962,None,,,,,,,,,,,,,,,,,patient,145,112,aloud,new,null,1302.790297999978,None,1302.790297999978,None,5,3.474547299963888,1302.790297999978,None,3.474547299963888,1306.287489099952,None,1306.8067304999568,None,1306.8067304999568,None,f,2.0905612999922596,1306.8067304999568,None,2.0905612999922596,,,8Aloud,001,2022_Aug_02_1010,ProdSingRedoBetween,2021.2.3,59.92351363774908,
,,,,112,0,112,0,,,,,,,,,,,,,,,,,,,,,,1314.5319975999882,None,,,,,,,,,,,,,,,,,write,146,113,aloud,new,null,1309.4479154999717,None,1309.4479154999717,None,1,3.7531478999881074,1309.4479154999717,None,3.7531478999881074,1313.239853999985,None,1313.7461517999764,None,1313.7461517999764,None,n,0.7588800999801606,1313.7461517999764,None,0.7588800999801606,,,8Aloud,001,2022_Aug_02_1010,ProdSingRedoBetween,2021.2.3,59.92351363774908,
,,,,113,0,113,0,,,,,,,,,,,,,,,,,,,,,,1319.9524027999723,None,,,,,,,,,,,,,,,,,count,81,114,aloud,old,red,1315.0567898000008,None,1315.0567898000008,None,5,3.176321299979463,1315.0567898000008,None,3.176321299979463,1318.2720411999617,None,1318.7864044999587,None,1318.7864044999587,None,f,1.1427710999851115,1318.7864044999587,None,1.1427710999851115,,,8Aloud,001,2022_Aug_02_1010,ProdSingRedoBetween,2021.2.3,59.92351363774908,
,,,,114,0,114,0,,,,,,,,,,,,,,,,,,,,,,1323.6990355000016,None,,,,,,,,,,,,,,,,,design,170,115,aloud,new,null,1320.4762583999545,None,1320.4762583999545,None,1,2.2287589000188746,1320.4762583999545,None,2.2287589000188746,1322.739146399952,None,1323.248737899994,None,1323.248737899994,None,n,0.40820619999431074,1323.248737899994,None,0.40820619999431074,,,8Aloud,001,2022_Aug_02_1010,ProdSingRedoBetween,2021.2.3,59.92351363774908,
,,,,115,0,115,0,,,,,,,,,,,,,,,,,,,,,,1327.606888899987,None,,,,,,,,,,,,,,,,,article,18,116,aloud,old,yellow,1324.1996440999792,None,1324.1996440999792,None,1,1.8571592000080273,1324.1996440999792,None,1.8571592000080273,1326.085773299972,None,1326.6024562999955,None,1326.6024562999955,None,n,0.9824440000229515,1326.6024562999955,None,0.9824440000229515,,,8Aloud,001,2022_Aug_02_1010,ProdSingRedoBetween,2021.2.3,59.92351363774908,
,,,,116,0,116,0,,,,,,,,,,,,,,,,,,,,,,1331.7648205999867,None,,,,,,,,,,,,,,,,,swift,5,117,aloud,old,yellow,1328.136515399965,None,1328.136515399965,None,6,1.7605358999571763,1328.136515399965,None,1.7605358999571763,1329.9396756999777,None,1330.4483263999573,None,1330.4483263999573,None,r,1.288752000022214,1330.4483263999573,None,1.288752000022214,,,8Aloud,001,2022_Aug_02_1010,ProdSingRedoBetween,2021.2.3,59.92351363774908,
,,,,117,0,117,0,,,,,,,,,,,,,,,,,,,,,,1335.8149792999611,None,,,,,,,,,,,,,,,,,tennis,14,118,aloud,old,yellow,1332.287546699983,None,1332.287546699983,None,6,1.5931922000017948,1332.287546699983,None,1.5931922000017948,1333.9129894999787,None,1334.437049500004,None,1334.437049500004,None,r,1.3557882999884896,1334.437049500004,None,1.3557882999884896,,,8Aloud,001,2022_Aug_02_1010,ProdSingRedoBetween,2021.2.3,59.92351363774908,
,,,,118,0,118,0,,,,,,,,,,,,,,,,,,,,,,1339.9700146999676,None,,,,,,,,,,,,,,,,,general,98,119,aloud,new,null,1336.3420643999707,None,1336.3420643999707,None,3,2.0189979000133462,1336.3420643999707,None,2.0189979000133462,1338.3964460999705,None,1338.9049875999917,None,1338.9049875999917,None,f,1.0321279999916442,1338.9049875999917,None,1.0321279999916442,,,8Aloud,001,2022_Aug_02_1010,ProdSingRedoBetween,2021.2.3,59.92351363774908,
,,,,119,0,119,0,,,,,,,,,,,,,,,,,,,,,,1350.3066007999587,None,,,,,,,,,,,,,,,,,discussion,73,120,aloud,old,red,1340.501244199986,None,1340.501244199986,None,3,7.54776500002481,1340.501244199986,None,7.54776500002481,1348.0912870999891,None,1348.5995430999901,None,1348.5995430999901,None,f,1.6654820999829099,1348.5995430999901,None,1.6654820999829099,,,8Aloud,001,2022_Aug_02_1010,ProdSingRedoBetween,2021.2.3,59.92351363774908,
,,,,120,0,120,0,,,,,,,,,,,,,,,,,,,,,,1354.5391565999598,None,,,,,,,,,,,,,,,,,literature,134,121,aloud,new,null,1350.8210640999605,None,1350.8210640999605,None,1,2.652009499957785,1350.8210640999605,None,2.652009499957785,1353.5122571999673,None,1354.020403500006,None,1354.020403500006,None,n,0.484618499991484,1354.020403500006,None,0.484618499991484,,,8Aloud,001,2022_Aug_02_1010,ProdSingRedoBetween,2021.2.3,59.92351363774908,
,,,,121,0,121,0,,,,,,,,,,,,,,,,,,,,,,1359.2592724999995,None,,,,,,,,,,,,,,,,,payment,3,122,aloud,old,yellow,1355.0654585000011,None,1355.0654585000011,None,6,2.023493300017435,1355.0654585000011,None,2.023493300017435,1357.1278228999581,None,1357.6406896999688,None,1357.6406896999688,None,r,1.5842911000363529,1357.6406896999688,None,1.5842911000363529,,,8Aloud,001,2022_Aug_02_1010,ProdSingRedoBetween,2021.2.3,59.92351363774908,
,,,,122,0,122,0,,,,,,,,,,,,,,,,,,,,,,1362.339654099953,None,,,,,,,,,,,,,,,,,thick,176,123,aloud,new,null,1359.7797924999613,None,1359.7797924999613,None,1,1.6293015999835916,1359.7797924999613,None,1.6293015999835916,1361.4501325999736,None,1361.9648106999812,None,1361.9648106999812,None,n,0.34814230003394186,1361.9648106999812,None,0.34814230003394186,,,8Aloud,001,2022_Aug_02_1010,ProdSingRedoBetween,2021.2.3,59.92351363774908,
,,,,123,0,123,0,,,,,,,,,,,,,,,,,,,,,,1365.9953640999738,None,,,,,,,,,,,,,,,,,point,48,124,aloud,old,blue,1362.8667014999664,None,1362.8667014999664,None,6,1.6863302999990992,1362.8667014999664,None,1.6863302999990992,1364.5819939000066,None,1365.0994953999761,None,1365.0994953999761,None,r,0.861447400006,1365.0994953999761,None,0.861447400006,,,8Aloud,001,2022_Aug_02_1010,ProdSingRedoBetween,2021.2.3,59.92351363774908,
,,,,124,0,124,0,,,,,,,,,,,,,,,,,,,,,,1372.1681331999716,None,,,,,,,,,,,,,,,,,private,150,125,aloud,new,null,1366.5268258999567,None,1366.5268258999567,None,3,4.1540883999550715,1366.5268258999567,None,4.1540883999550715,1370.707770899986,None,1371.2231824999908,None,1371.2231824999908,None,f,0.9217771999537945,1371.2231824999908,None,0.9217771999537945,,,8Aloud,001,2022_Aug_02_1010,ProdSingRedoBetween,2021.2.3,59.92351363774908,
,,,,125,0,125,0,,,,,,,,,,,,,,,,,,,,,,1376.6433169000084,None,,,,,,,,,,,,,,,,,whole,44,126,aloud,old,blue,1372.6981382999802,None,1372.6981382999802,None,6,1.5508670000126585,1372.6981382999802,None,1.5508670000126585,1374.2822510999977,None,1374.7930898999912,None,1374.7930898999912,None,r,1.815904800023418,1374.7930898999912,None,1.815904800023418,,,8Aloud,001,2022_Aug_02_1010,ProdSingRedoBetween,2021.2.3,59.92351363774908,
,,,,126,0,126,0,,,,,,,,,,,,,,,,,,,,,,1381.858750699961,None,,,,,,,,,,,,,,,,,evidence,64,127,aloud,old,red,1377.1648617999745,None,1377.1648617999745,None,1,3.7320978000061586,1377.1648617999745,None,3.7320978000061586,1380.9299098000047,None,1381.4490341999917,None,1381.4490341999917,None,n,0.3919158999924548,1381.4490341999917,None,0.3919158999924548,,,8Aloud,001,2022_Aug_02_1010,ProdSingRedoBetween,2021.2.3,59.92351363774908,
,,,,127,0,127,0,,,,,,,,,,,,,,,,,,,,,,1393.7522058999748,None,,,,,,,,,,,,,,,,,search,10,128,aloud,old,yellow,1382.3726098999614,None,1382.3726098999614,None,2,6.716069099958986,1382.3726098999614,None,6.716069099958986,1389.116534199973,None,1389.6344811999588,None,1389.6344811999588,None,f,4.0941993000451475,1389.6344811999588,None,4.0941993000451475,,,8Aloud,001,2022_Aug_02_1010,ProdSingRedoBetween,2021.2.3,59.92351363774908,
,,,,128,0,128,0,,,,,,,,,,,,,,,,,,,,,,1397.3812951999716,None,,,,,,,,,,,,,,,,,bureau,82,129,aloud,old,red,1394.2677298999624,None,1394.2677298999624,None,6,1.8613161999965087,1394.2677298999624,None,1.8613161999965087,1396.171357299958,None,1396.677228799963,None,1396.677228799963,None,r,0.6677469999995083,1396.677228799963,None,0.6677469999995083,,,8Aloud,001,2022_Aug_02_1010,ProdSingRedoBetween,2021.2.3,59.92351363774908,
,,,,129,0,129,0,,,,,,,,,,,,,,,,,,,,,,1401.9858546999749,None,,,,,,,,,,,,,,,,,scene,120,130,aloud,new,null,1397.9036568999873,None,1397.9036568999873,None,1,2.51331750000827,1397.9036568999873,None,2.51331750000827,1400.451226699981,None,1400.9676784999901,None,1400.9676784999901,None,n,0.9934136999654584,1400.9676784999901,None,0.9934136999654584,,,8Aloud,001,2022_Aug_02_1010,ProdSingRedoBetween,2021.2.3,59.92351363774908,
,,,,130,0,130,0,,,,,,,,,,,,,,,,,,,,,,1408.572569299955,None,,,,,,,,,,,,,,,,,notice,54,131,aloud,old,blue,1402.5080510999542,None,1402.5080510999542,None,4,2.7569657000130974,1402.5080510999542,None,2.7569657000130974,1405.2966757999966,None,1405.8025732999668,None,1405.8025732999668,None,f,2.7344343999866396,1405.8025732999668,None,2.7344343999866396,,,8Aloud,001,2022_Aug_02_1010,ProdSingRedoBetween,2021.2.3,59.92351363774908,
,,,,131,0,131,0,,,,,,,,,,,,,,,,,,,,,,1414.7637653999845,None,,,,,,,,,,,,,,,,,turkey,36,132,aloud,old,blue,1409.1012984999688,None,1409.1012984999688,None,6,1.5395897999987938,1409.1012984999688,None,1.5395897999987938,1410.6769016999751,None,1411.1971077999915,None,1411.1971077999915,None,r,3.5318560999585316,1411.1971077999915,None,3.5318560999585316,,,8Aloud,001,2022_Aug_02_1010,ProdSingRedoBetween,2021.2.3,59.92351363774908,
,,,,132,0,132,0,,,,,,,,,,,,,,,,,,,,,,1421.352113300003,None,,,,,,,,,,,,,,,,,review,21,133,aloud,old,yellow,1415.2882532000076,None,1415.2882532000076,None,5,4.825007400009781,1415.2882532000076,None,4.825007400009781,1420.1490362999612,None,1420.677940399968,None,1420.677940399968,None,f,0.6509433999890462,1420.677940399968,None,0.6509433999890462,,,8Aloud,001,2022_Aug_02_1010,ProdSingRedoBetween,2021.2.3,59.92351363774908,
,,,,133,0,133,0,,,,,,,,,,,,,,,,,,,,,,1427.5607511999551,None,,,,,,,,,,,,,,,,,resistance,20,134,aloud,old,yellow,1421.8770754999714,None,1421.8770754999714,None,5,4.667867199983448,1421.8770754999714,None,4.667867199983448,1426.5791617999785,None,1427.0947216000059,None,1427.0947216000059,None,f,0.43427570001222193,1427.0947216000059,None,0.43427570001222193,,,8Aloud,001,2022_Aug_02_1010,ProdSingRedoBetween,2021.2.3,59.92351363774908,
,,,,134,0,134,0,,,,,,,,,,,,,,,,,,,,,,1430.8059545999859,None,,,,,,,,,,,,,,,,,oxygen,11,135,aloud,old,yellow,1428.0850026999833,None,1428.0850026999833,None,6,1.412162700027693,1428.0850026999833,None,1.412162700027693,1429.539247299952,None,1430.049151299987,None,1430.049151299987,None,r,0.7356950000394136,1430.049151299987,None,0.7356950000394136,,,8Aloud,001,2022_Aug_02_1010,ProdSingRedoBetween,2021.2.3,59.92351363774908,
,,,,135,0,135,0,,,,,,,,,,,,,,,,,,,,,,1433.9835867999936,None,,,,,,,,,,,,,,,,,growth,40,136,aloud,old,blue,1431.3223471000092,None,1431.3223471000092,None,6,1.5028276999946684,1431.3223471000092,None,1.5028276999946684,1432.860219199967,None,1433.3674807999632,None,1433.3674807999632,None,r,0.59351679997053,1433.3674807999632,None,0.59351679997053,,,8Aloud,001,2022_Aug_02_1010,ProdSingRedoBetween,2021.2.3,59.92351363774908,
,,,,136,0,136,0,,,,,,,,,,,,,,,,,,,,,,1438.8658211999573,None,,,,,,,,,,,,,,,,,state,129,137,aloud,new,null,1434.509324499988,None,1434.509324499988,None,6,1.6595816999906674,1434.509324499988,None,1.6595816999906674,1436.2053836999694,None,1436.7184501999873,None,1436.7184501999873,None,f,2.1224149000481702,1436.7184501999873,None,2.1224149000481702,,,8Aloud,001,2022_Aug_02_1010,ProdSingRedoBetween,2021.2.3,59.92351363774908,
,,,,137,0,137,0,,,,,,,,,,,,,,,,,,,,,,1451.2348090999876,None,,,,,,,,,,,,,,,,,height,149,138,aloud,new,null,1439.3912016999675,None,1439.3912016999675,None,4,10.265512000012677,1439.3912016999675,None,10.265512000012677,1449.6890151999542,None,1450.2000242999638,None,1450.2000242999638,None,f,1.0008950000046752,1450.2000242999638,None,1.0008950000046752,,,8Aloud,001,2022_Aug_02_1010,ProdSingRedoBetween,2021.2.3,59.92351363774908,
,,,,138,0,138,0,,,,,,,,,,,,,,,,,,,,,,1455.4639003999764,None,,,,,,,,,,,,,,,,,curve,47,139,aloud,old,blue,1451.7576629999676,None,1451.7576629999676,None,6,1.707012900034897,1451.7576629999676,None,1.707012900034897,1453.4951826999895,None,1453.9957587999525,None,1453.9957587999525,None,r,1.4529773999820463,1453.9957587999525,None,1.4529773999820463,,,8Aloud,001,2022_Aug_02_1010,ProdSingRedoBetween,2021.2.3,59.92351363774908,
,,,,139,0,139,0,,,,,,,,,,,,,,,,,,,,,,1458.8452313999878,None,,,,,,,,,,,,,,,,,birth,126,140,aloud,new,null,1455.9811637999956,None,1455.9811637999956,None,1,1.7077997000305913,1455.9811637999956,None,1.7077997000305913,1457.7338897999725,None,1458.244440199982,None,1458.244440199982,None,n,0.5725153000093997,1458.244440199982,None,0.5725153000093997,,,8Aloud,001,2022_Aug_02_1010,ProdSingRedoBetween,2021.2.3,59.92351363774908,
,,,,140,0,140,0,,,,,,,,,,,,,,,,,,,,,,1466.0824886999908,None,,,,,,,,,,,,,,,,,employment,122,141,aloud,new,null,1459.3657501999987,None,1459.3657501999987,None,3,4.947219599969685,1459.3657501999987,None,4.947219599969685,1464.3506780999596,None,1464.8651636999566,None,1464.8651636999566,None,f,1.1916623000288382,1464.8651636999566,None,1.1916623000288382,,,8Aloud,001,2022_Aug_02_1010,ProdSingRedoBetween,2021.2.3,59.92351363774908,
,,,,141,0,141,0,,,,,,,,,,,,,,,,,,,,,,1472.2889855999965,None,,,,,,,,,,,,,,,,,safety,80,142,aloud,old,red,1466.6070736999973,None,1466.6070736999973,None,2,3.713861000025645,1466.6070736999973,None,3.713861000025645,1470.3626425999682,None,1470.8707130999537,None,1470.8707130999537,None,n,1.3943448000354692,1470.8707130999537,None,1.3943448000354692,,,8Aloud,001,2022_Aug_02_1010,ProdSingRedoBetween,2021.2.3,59.92351363774908,
,,,,142,0,142,0,,,,,,,,,,,,,,,,,,,,,,1475.5252237999812,None,,,,,,,,,,,,,,,,,drove,169,143,aloud,new,null,1472.8091873999801,None,1472.8091873999801,None,1,1.815743500017561,1472.8091873999801,None,1.815743500017561,1474.667083599954,None,1475.1770959999994,None,1475.1770959999994,None,n,0.3198692000005394,1475.1770959999994,None,0.3198692000005394,,,8Aloud,001,2022_Aug_02_1010,ProdSingRedoBetween,2021.2.3,59.92351363774908,
,,,,143,0,143,0,,,,,,,,,,,,,,,,,,,,,,1491.2912234999822,None,,,,,,,,,,,,,,,,,sweet,154,144,aloud,new,null,1476.0470418999903,None,1476.0470418999903,None,3,13.906102899985854,1476.0470418999903,None,13.906102899985854,1489.9997107999516,None,1490.5067869999912,None,1490.5067869999912,None,f,0.7502194999833591,1490.5067869999912,None,0.7502194999833591,,,8Aloud,001,2022_Aug_02_1010,ProdSingRedoBetween,2021.2.3,59.92351363774908,
,,,,144,0,144,0,,,,,,,,,,,,,,,,,,,,,,1497.931332899956,None,,,,,,,,,,,,,,,,,course,46,145,aloud,old,blue,1491.8024646999547,None,1491.8024646999547,None,5,2.198409900011029,1491.8024646999547,None,2.198409900011029,1494.0381607000018,None,1494.545669199957,None,1494.545669199957,None,f,3.3590413000201806,1494.545669199957,None,3.3590413000201806,,,8Aloud,001,2022_Aug_02_1010,ProdSingRedoBetween,2021.2.3,59.92351363774908,
,,,,145,0,145,0,,,,,,,,,,,,,,,,,,,,,,1511.7091304999776,None,,,,,,,,,,,,,,,,,audience,57,146,aloud,old,blue,1498.4491298999637,None,1498.4491298999637,None,3,4.023882900015451,1498.4491298999637,None,4.023882900015451,1502.5057228999794,None,1503.0171843999997,None,1503.0171843999997,None,f,8.655720499984454,1503.0171843999997,None,8.655720499984454,,,8Aloud,001,2022_Aug_02_1010,ProdSingRedoBetween,2021.2.3,59.92351363774908,
,,,,146,0,146,0,,,,,,,,,,,,,,,,,,,,,,1515.732157499995,None,,,,,,,,,,,,,,,,,threat,52,147,aloud,old,blue,1512.232150900003,None,1512.232150900003,None,6,1.968765199999325,1512.232150900003,None,1.968765199999325,1514.2340960999718,None,1514.7480948999873,None,1514.7480948999873,None,r,0.9487617000122555,1514.7480948999873,None,0.9487617000122555,,,8Aloud,001,2022_Aug_02_1010,ProdSingRedoBetween,2021.2.3,59.92351363774908,
,,,,147,0,147,0,,,,,,,,,,,,,,,,,,,,,,1519.043897799973,None,,,,,,,,,,,,,,,,,broke,91,148,aloud,new,null,1516.2411981999758,None,1516.2411981999758,None,2,1.7196239000186324,1516.2411981999758,None,1.7196239000186324,1518.0058907999774,None,1518.51038469997,None,1518.51038469997,None,n,0.5142297999700531,1518.51038469997,None,0.5142297999700531,,,8Aloud,001,2022_Aug_02_1010,ProdSingRedoBetween,2021.2.3,59.92351363774908,
,,,,148,0,148,0,,,,,,,,,,,,,,,,,,,,,,1527.6613928999868,None,,,,,,,,,,,,,,,,,cover,58,149,aloud,old,blue,1519.5697847999982,None,1519.5697847999982,None,6,5.983159700001124,1519.5697847999982,None,5.983159700001124,1525.599715099961,None,1526.1088216999779,None,1526.1088216999779,None,f,1.524160299974028,1526.1088216999779,None,1.524160299974028,,,8Aloud,001,2022_Aug_02_1010,ProdSingRedoBetween,2021.2.3,59.92351363774908,
,,,,149,0,149,0,,,,,,,,,,,,,,,,,,,,,,1533.0603654999868,None,,,,,,,,,,,,,,,,,problem,86,150,aloud,old,red,1528.1823597999755,None,1528.1823597999755,None,6,3.554529300017748,1528.1823597999755,None,3.554529300017748,1531.7764883000054,None,1532.2813828999642,None,1532.2813828999642,None,r,0.7517469999729656,1532.2813828999642,None,0.7517469999729656,,,8Aloud,001,2022_Aug_02_1010,ProdSingRedoBetween,2021.2.3,59.92351363774908,
,,,,150,0,150,0,,,,,,,,,,,,,,,,,,,,,,1536.604628000001,None,,,,,,,,,,,,,,,,,trial,151,151,aloud,new,null,1533.5851626999793,None,1533.5851626999793,None,1,1.7597727000247687,1533.5851626999793,None,1.7597727000247687,1535.3779958999949,None,1535.885150599992,None,1535.885150599992,None,n,0.6917290999554098,1535.885150599992,None,0.6917290999554098,,,8Aloud,001,2022_Aug_02_1010,ProdSingRedoBetween,2021.2.3,59.92351363774908,
,,,,151,0,151,0,,,,,,,,,,,,,,,,,,,,,,1540.1326380999526,None,,,,,,,,,,,,,,,,,guide,179,152,aloud,new,null,1537.125085699954,None,1537.125085699954,None,1,2.1238352000364102,1537.125085699954,None,2.1238352000364102,1539.2811893000035,None,1539.7867428999743,None,1539.7867428999743,None,n,0.326112299982924,1539.7867428999743,None,0.326112299982924,,,8Aloud,001,2022_Aug_02_1010,ProdSingRedoBetween,2021.2.3,59.92351363774908,
,,,,152,0,152,0,,,,,,,,,,,,,,,,,,,,,,1549.1421574999695,None,,,,,,,,,,,,,,,,,history,49,153,aloud,old,blue,1540.6499378999579,None,1540.6499378999579,None,2,7.70300129998941,1540.6499378999579,None,7.70300129998941,1548.3921888999757,None,1548.8982535999967,None,1548.8982535999967,None,n,0.2225223999703303,1548.8982535999967,None,0.2225223999703303,,,8Aloud,001,2022_Aug_02_1010,ProdSingRedoBetween,2021.2.3,59.92351363774908,
,,,,153,0,153,0,,,,,,,,,,,,,,,,,,,,,,1560.109886899998,None,,,,,,,,,,,,,,,,,produce,42,154,aloud,old,blue,1549.6581878999714,None,1549.6581878999714,None,3,9.646823399991263,1549.6581878999714,None,9.646823399991263,1559.350843399996,None,1559.8607522000093,None,1559.8607522000093,None,f,0.21230150002520531,1559.8607522000093,None,0.21230150002520531,,,8Aloud,001,2022_Aug_02_1010,ProdSingRedoBetween,2021.2.3,59.92351363774908,
,,,,154,0,154,0,,,,,,,,,,,,,,,,,,,,,,1563.1133076999686,None,,,,,,,,,,,,,,,,,portion,135,155,aloud,new,null,1560.6306602999684,None,1560.6306602999684,None,1,1.6182214000145905,1560.6306602999684,None,1.6182214000145905,1562.2884176999796,None,1562.7954090999556,None,1562.7954090999556,None,n,0.28545870003290474,1562.7954090999556,None,0.28545870003290474,,,8Aloud,001,2022_Aug_02_1010,ProdSingRedoBetween,2021.2.3,59.92351363774908,
,,,,155,0,155,0,,,,,,,,,,,,,,,,,,,,,,1568.2958620999707,None,,,,,,,,,,,,,,,,,split,61,156,aloud,old,red,1563.6345277999644,None,1563.6345277999644,None,6,2.2704335000016727,1563.6345277999644,None,2.2704335000016727,1565.9431893999572,None,1566.4498345999746,None,1566.4498345999746,None,f,1.8150091000134125,1566.4498345999746,None,1.8150091000134125,,,8Aloud,001,2022_Aug_02_1010,ProdSingRedoBetween,2021.2.3,59.92351363774908,
,,,,156,0,156,0,,,,,,,,,,,,,,,,,,,,,,1572.700564800005,None,,,,,,,,,,,,,,,,,place,19,157,aloud,old,yellow,1568.8253283000086,None,1568.8253283000086,None,1,2.679583700024523,1568.8253283000086,None,2.679583700024523,1571.548211699992,None,1572.0532397999777,None,1572.0532397999777,None,n,0.6274903999874368,1572.0532397999777,None,0.6274903999874368,,,8Aloud,001,2022_Aug_02_1010,ProdSingRedoBetween,2021.2.3,59.92351363774908,
,,,,157,0,157,0,,,,,,,,,,,,,,,,,,,,,,1576.3359321999596,None,,,,,,,,,,,,,,,,,estate,38,158,aloud,old,blue,1573.216212600004,None,1573.216212600004,None,6,1.47273330000462,1573.216212600004,None,1.47273330000462,1574.7253633000073,None,1575.2435379999806,None,1575.2435379999806,None,f,1.0693727000034414,1575.2435379999806,None,1.0693727000034414,,,8Aloud,001,2022_Aug_02_1010,ProdSingRedoBetween,2021.2.3,59.92351363774908,
,,,,158,0,158,0,,,,,,,,,,,,,,,,,,,,,,1597.5811935999664,None,,,,,,,,,,,,,,,,,touch,100,159,aloud,new,null,1576.8502653999603,None,1576.8502653999603,None,3,19.73462289996678,1576.8502653999603,None,19.73462289996678,1596.6214115999755,None,1597.1277057999978,None,1597.1277057999978,None,f,0.42548910004552454,1597.1277057999978,None,0.42548910004552454,,,8Aloud,001,2022_Aug_02_1010,ProdSingRedoBetween,2021.2.3,59.92351363774908,
,,,,159,0,159,0,,,,,,,,,,,,,,,,,,,,,,1601.1678280999768,None,,,,,,,,,,,,,,,,,style,178,160,aloud,new,null,1598.1038443999714,None,1598.1038443999714,None,1,2.2329586999840103,1598.1038443999714,None,2.2329586999840103,1600.3709230999812,None,1600.8859758999897,None,1600.8859758999897,None,n,0.24292980000609532,1600.8859758999897,None,0.24292980000609532,,,8Aloud,001,2022_Aug_02_1010,ProdSingRedoBetween,2021.2.3,59.92351363774908,
,,,,160,0,160,0,,,,,,,,,,,,,,,,,,,,,,1608.67496699997,None,,,,,,,,,,,,,,,,,report,13,161,aloud,old,yellow,1601.6926391999586,None,1601.6926391999586,None,2,6.0444305000128224,1601.6926391999586,None,6.0444305000128224,1607.7834546999657,None,1608.2919530000072,None,1608.2919530000072,None,n,0.35685010004090145,1608.2919530000072,None,0.35685010004090145,,,8Aloud,001,2022_Aug_02_1010,ProdSingRedoBetween,2021.2.3,59.92351363774908,
,,,,161,0,161,0,,,,,,,,,,,,,,,,,,,,,,1612.6873552000034,None,,,,,,,,,,,,,,,,,track,26,162,aloud,old,yellow,1609.199336999969,None,1609.199336999969,None,5,2.0655773999751545,1609.199336999969,None,2.0655773999751545,1611.304701999994,None,1611.8290033999947,None,1611.8290033999947,None,f,0.8355583000229672,1611.8290033999947,None,0.8355583000229672,,,8Aloud,001,2022_Aug_02_1010,ProdSingRedoBetween,2021.2.3,59.92351363774908,
,,,,162,0,162,0,,,,,,,,,,,,,,,,,,,,,,1623.3853426999995,None,,,,,,,,,,,,,,,,,under,75,163,aloud,old,red,1613.1898852000013,None,1613.1898852000013,None,2,8.515011200041045,1613.1898852000013,None,8.515011200041045,1621.7505853999755,None,1622.2723678000038,None,1622.2723678000038,None,n,1.0884433999890462,1622.2723678000038,None,1.0884433999890462,,,8Aloud,001,2022_Aug_02_1010,ProdSingRedoBetween,2021.2.3,59.92351363774908,
,,,,163,0,163,0,,,,,,,,,,,,,,,,,,,,,,1628.143275099981,None,,,,,,,,,,,,,,,,,death,2,164,aloud,old,yellow,1623.9092185999616,None,1623.9092185999616,None,6,2.8357097000116482,1623.9092185999616,None,2.8357097000116482,1626.7836425999994,None,1627.2935316999792,None,1627.2935316999792,None,f,0.8193885000073351,1627.2935316999792,None,0.8193885000073351,,,8Aloud,001,2022_Aug_02_1010,ProdSingRedoBetween,2021.2.3,59.92351363774908,
,,,,164,0,164,0,,,,,,,,,,,,,,,,,,,,,,1631.7757173999562,None,,,,,,,,,,,,,,,,,expansion,124,165,aloud,new,null,1628.6565240999917,None,1628.6565240999917,None,1,1.904296799970325,1628.6565240999917,None,1.904296799970325,1630.6013430999592,None,1631.1082862999756,None,1631.1082862999756,None,n,0.6365225000190549,1631.1082862999756,None,0.6365225000190549,,,8Aloud,001,2022_Aug_02_1010,ProdSingRedoBetween,2021.2.3,59.92351363774908,
,,,,165,0,165,0,,,,,,,,,,,,,,,,,,,,,,1655.4396751999739,None,,,,,,,,,,,,,,,,,crisis,139,166,aloud,new,null,1632.3064419999719,None,1632.3064419999719,None,3,21.070166699995752,1632.3064419999719,None,21.070166699995752,1653.3948586999904,None,1653.895579999953,None,1653.895579999953,None,f,1.5053086999687366,1653.895579999953,None,1.5053086999687366,,,8Aloud,001,2022_Aug_02_1010,ProdSingRedoBetween,2021.2.3,59.92351363774908,
,,,,166,0,166,0,,,,,,,,,,,,,,,,,,,,,,1661.1386488999706,None,,,,,,,,,,,,,,,,,fight,30,167,aloud,old,blue,1655.9637485999847,None,1655.9637485999847,None,4,4.396927100024186,1655.9637485999847,None,4.396927100024186,1660.3923714999692,None,1660.9046713999705,None,1660.9046713999705,None,f,0.20810410002013668,1660.9046713999705,None,0.20810410002013668,,,8Aloud,001,2022_Aug_02_1010,ProdSingRedoBetween,2021.2.3,59.92351363774908,
,,,,167,0,167,0,,,,,,,,,,,,,,,,,,,,,,1664.305928399961,None,,,,,,,,,,,,,,,,,store,111,168,aloud,new,null,1661.6684643999906,None,1661.6684643999906,None,1,1.6760420000064187,1661.6684643999906,None,1.6760420000064187,1663.3784909999813,None,1663.8887555999681,None,1663.8887555999681,None,n,0.39991579996421933,1663.8887555999681,None,0.39991579996421933,,,8Aloud,001,2022_Aug_02_1010,ProdSingRedoBetween,2021.2.3,59.92351363774908,
,,,,168,0,168,0,,,,,,,,,,,,,,,,,,,,,,1667.575695300009,None,,,,,,,,,,,,,,,,,recall,115,169,aloud,new,null,1664.8062756999861,None,1664.8062756999861,None,1,1.8265344999963418,1664.8062756999861,None,1.8265344999963418,1666.6701377999852,None,1667.1754805999808,None,1667.1754805999808,None,n,0.36913500004447997,1667.1754805999808,None,0.36913500004447997,,,8Aloud,001,2022_Aug_02_1010,ProdSingRedoBetween,2021.2.3,59.92351363774908,
,,,,169,0,169,0,,,,,,,,,,,,,,,,,,,,,,1671.8967225999804,None,,,,,,,,,,,,,,,,,drama,66,170,aloud,old,red,1668.0762969999923,None,1668.0762969999923,None,6,1.8605700000189245,1668.0762969999923,None,1.8605700000189245,1669.9771232999628,None,1670.4865031999652,None,1670.4865031999652,None,f,1.3780905999592505,1670.4865031999652,None,1.3780905999592505,,,8Aloud,001,2022_Aug_02_1010,ProdSingRedoBetween,2021.2.3,59.92351363774908,
,,,,170,0,170,0,,,,,,,,,,,,,,,,,,,,,,1677.176349199959,None,,,,,,,,,,,,,,,,,story,95,171,aloud,new,null,1672.403565799992,None,1672.403565799992,None,4,3.805014999990817,1672.403565799992,None,3.805014999990817,1676.238176499959,None,1676.7609611999942,None,1676.7609611999942,None,f,0.38394279999192804,1676.7609611999942,None,0.38394279999192804,,,8Aloud,001,2022_Aug_02_1010,ProdSingRedoBetween,2021.2.3,59.92351363774908,
,,,,171,0,171,0,,,,,,,,,,,,,,,,,,,,,,1680.2632144999807,None,,,,,,,,,,,,,,,,,minute,72,172,aloud,old,red,1677.6995828999789,None,1677.6995828999789,None,1,1.5252701999852434,1677.6995828999789,None,1.5252701999852434,1679.2611079000053,None,1679.7766607999802,None,1679.7766607999802,None,n,0.4482814999646507,1679.7766607999802,None,0.4482814999646507,,,8Aloud,001,2022_Aug_02_1010,ProdSingRedoBetween,2021.2.3,59.92351363774908,
,,,,172,0,172,0,,,,,,,,,,,,,,,,,,,,,,1693.1741754999966,None,,,,,,,,,,,,,,,,,relation,161,173,aloud,new,null,1680.7828657999635,None,1680.7828657999635,None,2,11.514050199999474,1680.7828657999635,None,11.514050199999474,1692.3346199999796,None,1692.840381499962,None,1692.840381499962,None,n,0.304508600034751,1692.840381499962,None,0.304508600034751,,,8Aloud,001,2022_Aug_02_1010,ProdSingRedoBetween,2021.2.3,59.92351363774908,
,,,,173,0,173,0,,,,,,,,,,,,,,,,,,,,,,1697.8140768999583,None,,,,,,,,,,,,,,,,,session,70,174,aloud,old,red,1693.6858528999728,None,1693.6858528999728,None,4,2.858699299977161,1693.6858528999728,None,2.858699299977161,1696.5712594999932,None,1697.0835426999838,None,1697.0835426999838,None,f,0.6932368000270799,1697.0835426999838,None,0.6932368000270799,,,8Aloud,001,2022_Aug_02_1010,ProdSingRedoBetween,2021.2.3,59.92351363774908,
,,,,174,0,174,0,,,,,,,,,,,,,,,,,,,,,,1703.314088299987,None,,,,,,,,,,,,,,,,,shear,107,175,aloud,new,null,1698.3383974999888,None,1698.3383974999888,None,1,3.7422397999907844,1698.3383974999888,None,3.7422397999907844,1702.1101613999926,None,1702.6118657999905,None,1702.6118657999905,None,n,0.6768212000024505,1702.6118657999905,None,0.6768212000024505,,,8Aloud,001,2022_Aug_02_1010,ProdSingRedoBetween,2021.2.3,59.92351363774908,
,,,,175,0,175,0,,,,,,,,,,,,,,,,,,,,,,1720.0014258999727,None,,,,,,,,,,,,,,,,,block,60,176,aloud,old,red,1703.8442838999908,None,1703.8442838999908,None,4,4.324587500013877,1703.8442838999908,None,4.324587500013877,1708.2140836999752,None,1708.720523099997,None,1708.720523099997,None,f,11.25635629997123,1708.720523099997,None,11.25635629997123,,,8Aloud,001,2022_Aug_02_1010,ProdSingRedoBetween,2021.2.3,59.92351363774908,
,,,,176,0,176,0,,,,,,,,,,,,,,,,,,,,,,1728.4783834999544,None,,,,,,,,,,,,,,,,,rough,133,177,aloud,new,null,1720.5229861999978,None,1720.5229861999978,None,1,6.9417507000034675,1720.5229861999978,None,6.9417507000034675,1727.491263200005,None,1728.0084842999931,None,1728.0084842999931,None,n,0.43249789997935295,1728.0084842999931,None,0.43249789997935295,,,8Aloud,001,2022_Aug_02_1010,ProdSingRedoBetween,2021.2.3,59.92351363774908,
,,,,177,0,177,0,,,,,,,,,,,,,,,,,,,,,,1734.6812642999575,None,,,,,,,,,,,,,,,,,personnel,164,178,aloud,new,null,1729.0005933999782,None,1729.0005933999782,None,1,4.704306100029498,1729.0005933999782,None,4.704306100029498,1733.7429663999937,None,1734.2494091999833,None,1734.2494091999833,None,n,0.39924379996955395,1734.2494091999833,None,0.39924379996955395,,,8Aloud,001,2022_Aug_02_1010,ProdSingRedoBetween,2021.2.3,59.92351363774908,
