StudyLoop.thisRepN,StudyLoop.thisTrialN,StudyLoop.thisN,StudyLoop.thisIndex,TestLoop.thisRepN,TestLoop.thisTrialN,TestLoop.thisN,TestLoop.thisIndex,textCondition.started,textCondition.stopped,keyCondition.keys,keyCondition.rt,keyCondition.started,keyCondition.stopped,Condition,textWelcome.started,textWelcome.stopped,keyWelcome.keys,keyWelcome.rt,keyWelcome.started,keyWelcome.stopped,textAloud.started,textAloud.stopped,textSilent.started,textSilent.stopped,textSing.started,textSing.stopped,conditional_text.started,conditional_text.stopped,textBlank500.started,textBlank500.stopped,study_word,study_num,study_order,study_type,word_color,textStudy.started,textStudy.stopped,keyStudy.keys,keyStudy.rt,keyStudy.started,keyStudy.stopped,textTestInstructions.started,textTestInstructions.stopped,key_resp_3.keys,key_resp_3.rt,key_resp_3.started,key_resp_3.stopped,test_word,test_num,test_order,test_condition,old_new_test,test_word_original_color,textConf.started,textConf.stopped,textConfScale.started,textConfScale.stopped,keyConf.keys,keyConf.rt,keyConf.started,keyConf.stopped,confidence response time,textTestBlank.started,textTestBlank.stopped,textRKN.started,textRKN.stopped,textRKNScale.started,textRKNScale.stopped,keyRKN.keys,keyRKN.rt,keyRKN.started,keyRKN.stopped,rkn response time,textEnd.started,textEnd.stopped,participant,session,date,expName,psychopyVersion,frameRate,
,,,,,,,,34.516627999953926,None,c,1.7409585993736982,34.516627999953926,None,,,,,,,,,,,,,,,,,,,,,,,,,,,,,,,,,,,,,,,,,,,,,,,,,,,,,,,,,,,,,,,90sing,001,2022_Nov_21_1032,ProdSingRedoBetween,2021.2.3,60.03600969109067,
,,,,,,,,,,,,,,SingTest,36.319923900067806,None,space,616.3843060992658,36.319923900067806,None,,,,,,,,,,,,,,,,,,,,,,,,,,,,,,,,,,,,,,,,,,,,,,,,,,,,,,,,90sing,001,2022_Nov_21_1032,ProdSingRedoBetween,2021.2.3,60.03600969109067,
0,0,0,0,,,,,,,,,,,,,,,,,,36.319923900067806,None,36.319923900067806,None,36.319923900067806,None,36.319923900067806,None,655.2510551000014,None,mechanical,15,1,sing,yellow,653.2380064995959,None,space,1.7544937999919057,653.2380064995959,None,,,,,,,,,,,,,,,,,,,,,,,,,,,,,,,,,,,90sing,001,2022_Nov_21_1032,ProdSingRedoBetween,2021.2.3,60.03600969109067,
1,0,1,0,,,,,,,,,,,,,,,,,,,,,,,,,,657.7686241995543,None,beginning,55,2,sing,blue,655.7540103998035,None,space,1.8224836001172662,655.7540103998035,None,,,,,,,,,,,,,,,,,,,,,,,,,,,,,,,,,,,90sing,001,2022_Nov_21_1032,ProdSingRedoBetween,2021.2.3,60.03600969109067,
2,0,2,0,,,,,,,,,,,,,,,,,,,,,,,,,,660.2866561999545,None,worker,89,3,sing,red,658.2790663000196,None,None,,658.2790663000196,None,,,,,,,,,,,,,,,,,,,,,,,,,,,,,,,,,,,90sing,001,2022_Nov_21_1032,ProdSingRedoBetween,2021.2.3,60.03600969109067,
3,0,3,0,,,,,,,,,,,,,,,,,,,,,,,,,,662.7899284996092,None,still,77,4,sing,red,660.7886272994801,None,None,,660.7886272994801,None,,,,,,,,,,,,,,,,,,,,,,,,,,,,,,,,,,,90sing,001,2022_Nov_21_1032,ProdSingRedoBetween,2021.2.3,60.03600969109067,
4,0,4,0,,,,,,,,,,,,,,,,,,,,,,,,,,665.2922462001443,None,rural,9,5,sing,yellow,663.293040400371,None,None,,663.293040400371,None,,,,,,,,,,,,,,,,,,,,,,,,,,,,,,,,,,,90sing,001,2022_Nov_21_1032,ProdSingRedoBetween,2021.2.3,60.03600969109067,
5,0,5,0,,,,,,,,,,,,,,,,,,,,,,,,,,667.8114692997187,None,discussion,66,6,sing,red,665.7965435003862,None,None,,665.7965435003862,None,,,,,,,,,,,,,,,,,,,,,,,,,,,,,,,,,,,90sing,001,2022_Nov_21_1032,ProdSingRedoBetween,2021.2.3,60.03600969109067,
6,0,6,0,,,,,,,,,,,,,,,,,,,,,,,,,,670.3135337997228,None,burden,76,7,sing,red,668.3121290998533,None,None,,668.3121290998533,None,,,,,,,,,,,,,,,,,,,,,,,,,,,,,,,,,,,90sing,001,2022_Nov_21_1032,ProdSingRedoBetween,2021.2.3,60.03600969109067,
7,0,7,0,,,,,,,,,,,,,,,,,,,,,,,,,,672.8161928998306,None,plane,45,8,sing,blue,670.8165108999237,None,None,,670.8165108999237,None,,,,,,,,,,,,,,,,,,,,,,,,,,,,,,,,,,,90sing,001,2022_Nov_21_1032,ProdSingRedoBetween,2021.2.3,60.03600969109067,
8,0,8,0,,,,,,,,,,,,,,,,,,,,,,,,,,675.3187467996031,None,nation,48,9,sing,blue,673.3193928999826,None,None,,673.3193928999826,None,,,,,,,,,,,,,,,,,,,,,,,,,,,,,,,,,,,90sing,001,2022_Nov_21_1032,ProdSingRedoBetween,2021.2.3,60.03600969109067,
9,0,9,0,,,,,,,,,,,,,,,,,,,,,,,,,,677.8381942994893,None,speech,82,10,sing,red,675.8245377000421,None,None,,675.8245377000421,None,,,,,,,,,,,,,,,,,,,,,,,,,,,,,,,,,,,90sing,001,2022_Nov_21_1032,ProdSingRedoBetween,2021.2.3,60.03600969109067,
10,0,10,0,,,,,,,,,,,,,,,,,,,,,,,,,,680.3408046001568,None,capital,40,11,sing,blue,678.3405782999471,None,None,,678.3405782999471,None,,,,,,,,,,,,,,,,,,,,,,,,,,,,,,,,,,,90sing,001,2022_Nov_21_1032,ProdSingRedoBetween,2021.2.3,60.03600969109067,
11,0,11,0,,,,,,,,,,,,,,,,,,,,,,,,,,682.8433026997373,None,volume,14,12,sing,yellow,680.8432893995196,None,None,,680.8432893995196,None,,,,,,,,,,,,,,,,,,,,,,,,,,,,,,,,,,,90sing,001,2022_Nov_21_1032,ProdSingRedoBetween,2021.2.3,60.03600969109067,
12,0,12,0,,,,,,,,,,,,,,,,,,,,,,,,,,685.3620100002736,None,patient,25,13,sing,yellow,683.3471954995766,None,None,,683.3471954995766,None,,,,,,,,,,,,,,,,,,,,,,,,,,,,,,,,,,,90sing,001,2022_Nov_21_1032,ProdSingRedoBetween,2021.2.3,60.03600969109067,
13,0,13,0,,,,,,,,,,,,,,,,,,,,,,,,,,687.86541269999,None,religion,19,14,sing,yellow,685.8631718996912,None,None,,685.8631718996912,None,,,,,,,,,,,,,,,,,,,,,,,,,,,,,,,,,,,90sing,001,2022_Nov_21_1032,ProdSingRedoBetween,2021.2.3,60.03600969109067,
14,0,14,0,,,,,,,,,,,,,,,,,,,,,,,,,,690.3678153995425,None,career,3,15,sing,yellow,688.3679953003302,None,None,,688.3679953003302,None,,,,,,,,,,,,,,,,,,,,,,,,,,,,,,,,,,,90sing,001,2022_Nov_21_1032,ProdSingRedoBetween,2021.2.3,60.03600969109067,
15,0,15,0,,,,,,,,,,,,,,,,,,,,,,,,,,692.8697921996936,None,candidate,85,16,sing,red,690.8695542998612,None,None,,690.8695542998612,None,,,,,,,,,,,,,,,,,,,,,,,,,,,,,,,,,,,90sing,001,2022_Nov_21_1032,ProdSingRedoBetween,2021.2.3,60.03600969109067,
16,0,16,0,,,,,,,,,,,,,,,,,,,,,,,,,,695.3909285003319,None,generation,21,17,sing,yellow,693.3748038001359,None,None,,693.3748038001359,None,,,,,,,,,,,,,,,,,,,,,,,,,,,,,,,,,,,90sing,001,2022_Nov_21_1032,ProdSingRedoBetween,2021.2.3,60.03600969109067,
17,0,17,0,,,,,,,,,,,,,,,,,,,,,,,,,,697.8914743000641,None,escape,73,18,sing,red,695.8902310002595,None,None,,695.8902310002595,None,,,,,,,,,,,,,,,,,,,,,,,,,,,,,,,,,,,90sing,001,2022_Nov_21_1032,ProdSingRedoBetween,2021.2.3,60.03600969109067,
18,0,18,0,,,,,,,,,,,,,,,,,,,,,,,,,,700.3943259995431,None,minute,5,19,sing,yellow,698.3942360002548,None,None,,698.3942360002548,None,,,,,,,,,,,,,,,,,,,,,,,,,,,,,,,,,,,90sing,001,2022_Nov_21_1032,ProdSingRedoBetween,2021.2.3,60.03600969109067,
19,0,19,0,,,,,,,,,,,,,,,,,,,,,,,,,,702.8970587002113,None,length,61,20,sing,red,700.8963096002117,None,None,,700.8963096002117,None,,,,,,,,,,,,,,,,,,,,,,,,,,,,,,,,,,,90sing,001,2022_Nov_21_1032,ProdSingRedoBetween,2021.2.3,60.03600969109067,
20,0,20,0,,,,,,,,,,,,,,,,,,,,,,,,,,705.399051499553,None,answer,56,21,sing,blue,703.3988541997969,None,None,,703.3988541997969,None,,,,,,,,,,,,,,,,,,,,,,,,,,,,,,,,,,,90sing,001,2022_Nov_21_1032,ProdSingRedoBetween,2021.2.3,60.03600969109067,
21,0,21,0,,,,,,,,,,,,,,,,,,,,,,,,,,707.9182569002733,None,treatment,81,22,sing,red,705.9046641997993,None,None,,705.9046641997993,None,,,,,,,,,,,,,,,,,,,,,,,,,,,,,,,,,,,90sing,001,2022_Nov_21_1032,ProdSingRedoBetween,2021.2.3,60.03600969109067,
22,0,22,0,,,,,,,,,,,,,,,,,,,,,,,,,,710.4373071994632,None,dozen,31,23,sing,blue,708.4266435001045,None,None,,708.4266435001045,None,,,,,,,,,,,,,,,,,,,,,,,,,,,,,,,,,,,90sing,001,2022_Nov_21_1032,ProdSingRedoBetween,2021.2.3,60.03600969109067,
23,0,23,0,,,,,,,,,,,,,,,,,,,,,,,,,,712.9563990002498,None,blind,28,24,sing,yellow,710.9434743002057,None,None,,710.9434743002057,None,,,,,,,,,,,,,,,,,,,,,,,,,,,,,,,,,,,90sing,001,2022_Nov_21_1032,ProdSingRedoBetween,2021.2.3,60.03600969109067,
24,0,24,0,,,,,,,,,,,,,,,,,,,,,,,,,,715.4592401003465,None,attack,54,25,sing,blue,713.4591899998486,None,None,,713.4591899998486,None,,,,,,,,,,,,,,,,,,,,,,,,,,,,,,,,,,,90sing,001,2022_Nov_21_1032,ProdSingRedoBetween,2021.2.3,60.03600969109067,
25,0,25,0,,,,,,,,,,,,,,,,,,,,,,,,,,717.9783359998837,None,corner,78,26,sing,red,715.9626085003838,None,None,,715.9626085003838,None,,,,,,,,,,,,,,,,,,,,,,,,,,,,,,,,,,,90sing,001,2022_Nov_21_1032,ProdSingRedoBetween,2021.2.3,60.03600969109067,
26,0,26,0,,,,,,,,,,,,,,,,,,,,,,,,,,720.4807813996449,None,running,6,27,sing,yellow,718.4808555003256,None,None,,718.4808555003256,None,,,,,,,,,,,,,,,,,,,,,,,,,,,,,,,,,,,90sing,001,2022_Nov_21_1032,ProdSingRedoBetween,2021.2.3,60.03600969109067,
27,0,27,0,,,,,,,,,,,,,,,,,,,,,,,,,,722.9997263001278,None,tennis,80,28,sing,red,720.9862069003284,None,None,,720.9862069003284,None,,,,,,,,,,,,,,,,,,,,,,,,,,,,,,,,,,,90sing,001,2022_Nov_21_1032,ProdSingRedoBetween,2021.2.3,60.03600969109067,
28,0,28,0,,,,,,,,,,,,,,,,,,,,,,,,,,725.5025885002688,None,session,47,29,sing,blue,723.5007050996646,None,None,,723.5007050996646,None,,,,,,,,,,,,,,,,,,,,,,,,,,,,,,,,,,,90sing,001,2022_Nov_21_1032,ProdSingRedoBetween,2021.2.3,60.03600969109067,
29,0,29,0,,,,,,,,,,,,,,,,,,,,,,,,,,728.0217730998993,None,broke,2,30,sing,yellow,726.0062279002741,None,None,,726.0062279002741,None,,,,,,,,,,,,,,,,,,,,,,,,,,,,,,,,,,,90sing,001,2022_Nov_21_1032,ProdSingRedoBetween,2021.2.3,60.03600969109067,
30,0,30,0,,,,,,,,,,,,,,,,,,,,,,,,,,730.5235775001347,None,range,43,31,sing,blue,728.5227837003767,None,None,,728.5227837003767,None,,,,,,,,,,,,,,,,,,,,,,,,,,,,,,,,,,,90sing,001,2022_Nov_21_1032,ProdSingRedoBetween,2021.2.3,60.03600969109067,
31,0,31,0,,,,,,,,,,,,,,,,,,,,,,,,,,733.0271717002615,None,article,8,32,sing,yellow,731.0264644995332,None,None,,731.0264644995332,None,,,,,,,,,,,,,,,,,,,,,,,,,,,,,,,,,,,90sing,001,2022_Nov_21_1032,ProdSingRedoBetween,2021.2.3,60.03600969109067,
32,0,32,0,,,,,,,,,,,,,,,,,,,,,,,,,,735.5456325002015,None,quick,50,33,sing,blue,733.5325384996831,None,None,,733.5325384996831,None,,,,,,,,,,,,,,,,,,,,,,,,,,,,,,,,,,,90sing,001,2022_Nov_21_1032,ProdSingRedoBetween,2021.2.3,60.03600969109067,
33,0,33,0,,,,,,,,,,,,,,,,,,,,,,,,,,738.0646925996989,None,employment,51,34,sing,blue,736.0494894003496,None,None,,736.0494894003496,None,,,,,,,,,,,,,,,,,,,,,,,,,,,,,,,,,,,90sing,001,2022_Nov_21_1032,ProdSingRedoBetween,2021.2.3,60.03600969109067,
34,0,34,0,,,,,,,,,,,,,,,,,,,,,,,,,,740.5842439997941,None,carry,41,35,sing,blue,738.5794834997505,None,None,,738.5794834997505,None,,,,,,,,,,,,,,,,,,,,,,,,,,,,,,,,,,,90sing,001,2022_Nov_21_1032,ProdSingRedoBetween,2021.2.3,60.03600969109067,
35,0,35,0,,,,,,,,,,,,,,,,,,,,,,,,,,743.1031171996146,None,expansion,79,36,sing,red,741.095936300233,None,None,,741.095936300233,None,,,,,,,,,,,,,,,,,,,,,,,,,,,,,,,,,,,90sing,001,2022_Nov_21_1032,ProdSingRedoBetween,2021.2.3,60.03600969109067,
36,0,36,0,,,,,,,,,,,,,,,,,,,,,,,,,,745.6224627997726,None,clean,68,37,sing,red,743.6096011996269,None,None,,743.6096011996269,None,,,,,,,,,,,,,,,,,,,,,,,,,,,,,,,,,,,90sing,001,2022_Nov_21_1032,ProdSingRedoBetween,2021.2.3,60.03600969109067,
37,0,37,0,,,,,,,,,,,,,,,,,,,,,,,,,,748.1247773999348,None,throw,36,38,sing,blue,746.1231343997642,None,None,,746.1231343997642,None,,,,,,,,,,,,,,,,,,,,,,,,,,,,,,,,,,,90sing,001,2022_Nov_21_1032,ProdSingRedoBetween,2021.2.3,60.03600969109067,
38,0,38,0,,,,,,,,,,,,,,,,,,,,,,,,,,750.6439958997071,None,fight,4,39,sing,yellow,748.628556699492,None,None,,748.628556699492,None,,,,,,,,,,,,,,,,,,,,,,,,,,,,,,,,,,,90sing,001,2022_Nov_21_1032,ProdSingRedoBetween,2021.2.3,60.03600969109067,
39,0,39,0,,,,,,,,,,,,,,,,,,,,,,,,,,753.1463574003428,None,instrument,30,40,sing,blue,751.1468412000686,None,None,,751.1468412000686,None,,,,,,,,,,,,,,,,,,,,,,,,,,,,,,,,,,,90sing,001,2022_Nov_21_1032,ProdSingRedoBetween,2021.2.3,60.03600969109067,
40,0,40,0,,,,,,,,,,,,,,,,,,,,,,,,,,755.6653434997424,None,shock,24,41,sing,yellow,753.651473599486,None,None,,753.651473599486,None,,,,,,,,,,,,,,,,,,,,,,,,,,,,,,,,,,,90sing,001,2022_Nov_21_1032,ProdSingRedoBetween,2021.2.3,60.03600969109067,
41,0,41,0,,,,,,,,,,,,,,,,,,,,,,,,,,758.1678537996486,None,voice,71,42,sing,red,756.166632999666,None,None,,756.166632999666,None,,,,,,,,,,,,,,,,,,,,,,,,,,,,,,,,,,,90sing,001,2022_Nov_21_1032,ProdSingRedoBetween,2021.2.3,60.03600969109067,
42,0,42,0,,,,,,,,,,,,,,,,,,,,,,,,,,760.6876280996948,None,commercial,1,43,sing,yellow,758.6739063998684,None,None,,758.6739063998684,None,,,,,,,,,,,,,,,,,,,,,,,,,,,,,,,,,,,90sing,001,2022_Nov_21_1032,ProdSingRedoBetween,2021.2.3,60.03600969109067,
43,0,43,0,,,,,,,,,,,,,,,,,,,,,,,,,,763.1897967001423,None,story,57,44,sing,blue,761.189107099548,None,None,,761.189107099548,None,,,,,,,,,,,,,,,,,,,,,,,,,,,,,,,,,,,90sing,001,2022_Nov_21_1032,ProdSingRedoBetween,2021.2.3,60.03600969109067,
44,0,44,0,,,,,,,,,,,,,,,,,,,,,,,,,,765.6925772996619,None,straight,65,45,sing,red,763.6927736997604,None,None,,763.6927736997604,None,,,,,,,,,,,,,,,,,,,,,,,,,,,,,,,,,,,90sing,001,2022_Nov_21_1032,ProdSingRedoBetween,2021.2.3,60.03600969109067,
45,0,45,0,,,,,,,,,,,,,,,,,,,,,,,,,,768.2113324003294,None,dream,67,46,sing,red,766.1964034996927,None,None,,766.1964034996927,None,,,,,,,,,,,,,,,,,,,,,,,,,,,,,,,,,,,90sing,001,2022_Nov_21_1032,ProdSingRedoBetween,2021.2.3,60.03600969109067,
46,0,46,0,,,,,,,,,,,,,,,,,,,,,,,,,,770.7145544001833,None,colonel,86,47,sing,red,768.7140715997666,None,None,,768.7140715997666,None,,,,,,,,,,,,,,,,,,,,,,,,,,,,,,,,,,,90sing,001,2022_Nov_21_1032,ProdSingRedoBetween,2021.2.3,60.03600969109067,
47,0,47,0,,,,,,,,,,,,,,,,,,,,,,,,,,773.2166922995821,None,master,88,48,sing,red,771.2172077000141,None,None,,771.2172077000141,None,,,,,,,,,,,,,,,,,,,,,,,,,,,,,,,,,,,90sing,001,2022_Nov_21_1032,ProdSingRedoBetween,2021.2.3,60.03600969109067,
48,0,48,0,,,,,,,,,,,,,,,,,,,,,,,,,,775.7358373999596,None,reach,26,49,sing,yellow,773.7204299001023,None,None,,773.7204299001023,None,,,,,,,,,,,,,,,,,,,,,,,,,,,,,,,,,,,90sing,001,2022_Nov_21_1032,ProdSingRedoBetween,2021.2.3,60.03600969109067,
49,0,49,0,,,,,,,,,,,,,,,,,,,,,,,,,,778.2560861995444,None,committee,69,50,sing,red,776.2395272003487,None,None,,776.2395272003487,None,,,,,,,,,,,,,,,,,,,,,,,,,,,,,,,,,,,90sing,001,2022_Nov_21_1032,ProdSingRedoBetween,2021.2.3,60.03600969109067,
50,0,50,0,,,,,,,,,,,,,,,,,,,,,,,,,,780.7577991001308,None,command,10,51,sing,yellow,778.7578227994964,None,None,,778.7578227994964,None,,,,,,,,,,,,,,,,,,,,,,,,,,,,,,,,,,,90sing,001,2022_Nov_21_1032,ProdSingRedoBetween,2021.2.3,60.03600969109067,
51,0,51,0,,,,,,,,,,,,,,,,,,,,,,,,,,783.276477499865,None,century,74,52,sing,red,781.2638648999855,None,None,,781.2638648999855,None,,,,,,,,,,,,,,,,,,,,,,,,,,,,,,,,,,,90sing,001,2022_Nov_21_1032,ProdSingRedoBetween,2021.2.3,60.03600969109067,
52,0,52,0,,,,,,,,,,,,,,,,,,,,,,,,,,785.7790022995323,None,grade,22,53,sing,yellow,783.7776565998793,None,None,,783.7776565998793,None,,,,,,,,,,,,,,,,,,,,,,,,,,,,,,,,,,,90sing,001,2022_Nov_21_1032,ProdSingRedoBetween,2021.2.3,60.03600969109067,
53,0,53,0,,,,,,,,,,,,,,,,,,,,,,,,,,788.2981867995113,None,south,87,54,sing,red,786.2938943002373,None,None,,786.2938943002373,None,,,,,,,,,,,,,,,,,,,,,,,,,,,,,,,,,,,90sing,001,2022_Nov_21_1032,ProdSingRedoBetween,2021.2.3,60.03600969109067,
54,0,54,0,,,,,,,,,,,,,,,,,,,,,,,,,,790.8004596000537,None,suggestion,38,55,sing,blue,788.7994844997302,None,None,,788.7994844997302,None,,,,,,,,,,,,,,,,,,,,,,,,,,,,,,,,,,,90sing,001,2022_Nov_21_1032,ProdSingRedoBetween,2021.2.3,60.03600969109067,
55,0,55,0,,,,,,,,,,,,,,,,,,,,,,,,,,793.3199089998379,None,payment,49,56,sing,blue,791.3045471003279,None,None,,791.3045471003279,None,,,,,,,,,,,,,,,,,,,,,,,,,,,,,,,,,,,90sing,001,2022_Nov_21_1032,ProdSingRedoBetween,2021.2.3,60.03600969109067,
56,0,56,0,,,,,,,,,,,,,,,,,,,,,,,,,,795.8222589995712,None,health,72,57,sing,red,793.8228014996275,None,None,,793.8228014996275,None,,,,,,,,,,,,,,,,,,,,,,,,,,,,,,,,,,,90sing,001,2022_Nov_21_1032,ProdSingRedoBetween,2021.2.3,60.03600969109067,
57,0,57,0,,,,,,,,,,,,,,,,,,,,,,,,,,798.3248982997611,None,community,42,58,sing,blue,796.3256195997819,None,None,,796.3256195997819,None,,,,,,,,,,,,,,,,,,,,,,,,,,,,,,,,,,,90sing,001,2022_Nov_21_1032,ProdSingRedoBetween,2021.2.3,60.03600969109067,
58,0,58,0,,,,,,,,,,,,,,,,,,,,,,,,,,800.844208500348,None,search,13,59,sing,yellow,798.8400493999943,None,None,,798.8400493999943,None,,,,,,,,,,,,,,,,,,,,,,,,,,,,,,,,,,,90sing,001,2022_Nov_21_1032,ProdSingRedoBetween,2021.2.3,60.03600969109067,
59,0,59,0,,,,,,,,,,,,,,,,,,,,,,,,,,803.3465929999948,None,election,29,60,sing,blue,801.3445554999635,None,None,,801.3445554999635,None,,,,,,,,,,,,,,,,,,,,,,,,,,,,,,,,,,,90sing,001,2022_Nov_21_1032,ProdSingRedoBetween,2021.2.3,60.03600969109067,
60,0,60,0,,,,,,,,,,,,,,,,,,,,,,,,,,805.8490316998214,None,pattern,16,61,sing,yellow,803.8495894996449,None,None,,803.8495894996449,None,,,,,,,,,,,,,,,,,,,,,,,,,,,,,,,,,,,90sing,001,2022_Nov_21_1032,ProdSingRedoBetween,2021.2.3,60.03600969109067,
61,0,61,0,,,,,,,,,,,,,,,,,,,,,,,,,,808.3517901003361,None,sight,17,62,sing,yellow,806.3509665997699,None,None,,806.3509665997699,None,,,,,,,,,,,,,,,,,,,,,,,,,,,,,,,,,,,90sing,001,2022_Nov_21_1032,ProdSingRedoBetween,2021.2.3,60.03600969109067,
62,0,62,0,,,,,,,,,,,,,,,,,,,,,,,,,,810.8710230998695,None,pressure,44,63,sing,blue,808.8563129995018,None,None,,808.8563129995018,None,,,,,,,,,,,,,,,,,,,,,,,,,,,,,,,,,,,90sing,001,2022_Nov_21_1032,ProdSingRedoBetween,2021.2.3,60.03600969109067,
63,0,63,0,,,,,,,,,,,,,,,,,,,,,,,,,,813.3901963997632,None,emergency,34,64,sing,blue,811.3854580996558,None,None,,811.3854580996558,None,,,,,,,,,,,,,,,,,,,,,,,,,,,,,,,,,,,90sing,001,2022_Nov_21_1032,ProdSingRedoBetween,2021.2.3,60.03600969109067,
64,0,64,0,,,,,,,,,,,,,,,,,,,,,,,,,,815.8924674000591,None,present,75,65,sing,red,813.8923760000616,None,None,,813.8923760000616,None,,,,,,,,,,,,,,,,,,,,,,,,,,,,,,,,,,,90sing,001,2022_Nov_21_1032,ProdSingRedoBetween,2021.2.3,60.03600969109067,
65,0,65,0,,,,,,,,,,,,,,,,,,,,,,,,,,818.394905500114,None,goose,20,66,sing,yellow,816.3956252001226,None,None,,816.3956252001226,None,,,,,,,,,,,,,,,,,,,,,,,,,,,,,,,,,,,90sing,001,2022_Nov_21_1032,ProdSingRedoBetween,2021.2.3,60.03600969109067,
66,0,66,0,,,,,,,,,,,,,,,,,,,,,,,,,,820.897422099486,None,court,32,67,sing,blue,818.8970120996237,None,None,,818.8970120996237,None,,,,,,,,,,,,,,,,,,,,,,,,,,,,,,,,,,,90sing,001,2022_Nov_21_1032,ProdSingRedoBetween,2021.2.3,60.03600969109067,
67,0,67,0,,,,,,,,,,,,,,,,,,,,,,,,,,823.4000263996422,None,state,27,68,sing,yellow,821.4007302997634,None,None,,821.4007302997634,None,,,,,,,,,,,,,,,,,,,,,,,,,,,,,,,,,,,90sing,001,2022_Nov_21_1032,ProdSingRedoBetween,2021.2.3,60.03600969109067,
68,0,68,0,,,,,,,,,,,,,,,,,,,,,,,,,,825.9188323998824,None,curve,39,69,sing,blue,823.9038976999,None,None,,823.9038976999,None,,,,,,,,,,,,,,,,,,,,,,,,,,,,,,,,,,,90sing,001,2022_Nov_21_1032,ProdSingRedoBetween,2021.2.3,60.03600969109067,
69,0,69,0,,,,,,,,,,,,,,,,,,,,,,,,,,828.4217529995367,None,concern,35,70,sing,blue,826.4199398998171,None,None,,826.4199398998171,None,,,,,,,,,,,,,,,,,,,,,,,,,,,,,,,,,,,90sing,001,2022_Nov_21_1032,ProdSingRedoBetween,2021.2.3,60.03600969109067,
70,0,70,0,,,,,,,,,,,,,,,,,,,,,,,,,,830.9404453001916,None,bureau,37,71,sing,blue,828.9249427998438,None,None,,828.9249427998438,None,,,,,,,,,,,,,,,,,,,,,,,,,,,,,,,,,,,90sing,001,2022_Nov_21_1032,ProdSingRedoBetween,2021.2.3,60.03600969109067,
71,0,71,0,,,,,,,,,,,,,,,,,,,,,,,,,,833.459898499772,None,cover,12,72,sing,yellow,831.4457436995581,None,None,,831.4457436995581,None,,,,,,,,,,,,,,,,,,,,,,,,,,,,,,,,,,,90sing,001,2022_Nov_21_1032,ProdSingRedoBetween,2021.2.3,60.03600969109067,
72,0,72,0,,,,,,,,,,,,,,,,,,,,,,,,,,835.962661399506,None,comedy,53,73,sing,blue,833.9631316997111,None,None,,833.9631316997111,None,,,,,,,,,,,,,,,,,,,,,,,,,,,,,,,,,,,90sing,001,2022_Nov_21_1032,ProdSingRedoBetween,2021.2.3,60.03600969109067,
73,0,73,0,,,,,,,,,,,,,,,,,,,,,,,,,,838.4814510997385,None,question,59,74,sing,yellow,836.4664527997375,None,None,,836.4664527997375,None,,,,,,,,,,,,,,,,,,,,,,,,,,,,,,,,,,,90sing,001,2022_Nov_21_1032,ProdSingRedoBetween,2021.2.3,60.03600969109067,
74,0,74,0,,,,,,,,,,,,,,,,,,,,,,,,,,840.9845752995461,None,turkey,63,75,sing,red,838.9838570002466,None,None,,838.9838570002466,None,,,,,,,,,,,,,,,,,,,,,,,,,,,,,,,,,,,90sing,001,2022_Nov_21_1032,ProdSingRedoBetween,2021.2.3,60.03600969109067,
75,0,75,0,,,,,,,,,,,,,,,,,,,,,,,,,,843.4867275999859,None,addition,52,76,sing,blue,841.4845190001652,None,None,,841.4845190001652,None,,,,,,,,,,,,,,,,,,,,,,,,,,,,,,,,,,,90sing,001,2022_Nov_21_1032,ProdSingRedoBetween,2021.2.3,60.03600969109067,
76,0,76,0,,,,,,,,,,,,,,,,,,,,,,,,,,845.9894084995613,None,figure,0,77,sing,yellow,843.9895083000883,None,None,,843.9895083000883,None,,,,,,,,,,,,,,,,,,,,,,,,,,,,,,,,,,,90sing,001,2022_Nov_21_1032,ProdSingRedoBetween,2021.2.3,60.03600969109067,
77,0,77,0,,,,,,,,,,,,,,,,,,,,,,,,,,848.5082708997652,None,weather,58,78,sing,blue,846.4940031999722,None,None,,846.4940031999722,None,,,,,,,,,,,,,,,,,,,,,,,,,,,,,,,,,,,90sing,001,2022_Nov_21_1032,ProdSingRedoBetween,2021.2.3,60.03600969109067,
78,0,78,0,,,,,,,,,,,,,,,,,,,,,,,,,,851.011025399901,None,congress,60,79,sing,red,849.0093326000497,None,None,,849.0093326000497,None,,,,,,,,,,,,,,,,,,,,,,,,,,,,,,,,,,,90sing,001,2022_Nov_21_1032,ProdSingRedoBetween,2021.2.3,60.03600969109067,
79,0,79,0,,,,,,,,,,,,,,,,,,,,,,,,,,853.5131540000439,None,swift,64,80,sing,red,851.5131999999285,None,None,,851.5131999999285,None,,,,,,,,,,,,,,,,,,,,,,,,,,,,,,,,,,,90sing,001,2022_Nov_21_1032,ProdSingRedoBetween,2021.2.3,60.03600969109067,
80,0,80,0,,,,,,,,,,,,,,,,,,,,,,,,,,856.0323160998523,None,broad,62,81,sing,red,854.0201498996466,None,None,,854.0201498996466,None,,,,,,,,,,,,,,,,,,,,,,,,,,,,,,,,,,,90sing,001,2022_Nov_21_1032,ProdSingRedoBetween,2021.2.3,60.03600969109067,
81,0,81,0,,,,,,,,,,,,,,,,,,,,,,,,,,858.5520938001573,None,theme,83,82,sing,red,856.5385243995115,None,None,,856.5385243995115,None,,,,,,,,,,,,,,,,,,,,,,,,,,,,,,,,,,,90sing,001,2022_Nov_21_1032,ProdSingRedoBetween,2021.2.3,60.03600969109067,
82,0,82,0,,,,,,,,,,,,,,,,,,,,,,,,,,861.0541394995525,None,narrow,11,83,sing,yellow,859.0541236996651,None,None,,859.0541236996651,None,,,,,,,,,,,,,,,,,,,,,,,,,,,,,,,,,,,90sing,001,2022_Nov_21_1032,ProdSingRedoBetween,2021.2.3,60.03600969109067,
83,0,83,0,,,,,,,,,,,,,,,,,,,,,,,,,,863.5732319001108,None,close,46,84,sing,blue,861.5576639994979,None,None,,861.5576639994979,None,,,,,,,,,,,,,,,,,,,,,,,,,,,,,,,,,,,90sing,001,2022_Nov_21_1032,ProdSingRedoBetween,2021.2.3,60.03600969109067,
84,0,84,0,,,,,,,,,,,,,,,,,,,,,,,,,,866.0760562000796,None,industry,84,85,sing,red,864.074840400368,None,None,,864.074840400368,None,,,,,,,,,,,,,,,,,,,,,,,,,,,,,,,,,,,90sing,001,2022_Nov_21_1032,ProdSingRedoBetween,2021.2.3,60.03600969109067,
85,0,85,0,,,,,,,,,,,,,,,,,,,,,,,,,,868.5948446998373,None,quantity,18,86,sing,yellow,866.5797541998327,None,None,,866.5797541998327,None,,,,,,,,,,,,,,,,,,,,,,,,,,,,,,,,,,,90sing,001,2022_Nov_21_1032,ProdSingRedoBetween,2021.2.3,60.03600969109067,
86,0,86,0,,,,,,,,,,,,,,,,,,,,,,,,,,871.1143966997042,None,reading,33,87,sing,blue,869.0990583002567,None,None,,869.0990583002567,None,,,,,,,,,,,,,,,,,,,,,,,,,,,,,,,,,,,90sing,001,2022_Nov_21_1032,ProdSingRedoBetween,2021.2.3,60.03600969109067,
87,0,87,0,,,,,,,,,,,,,,,,,,,,,,,,,,873.6334790997207,None,scale,23,88,sing,yellow,871.6258872002363,None,None,,871.6258872002363,None,,,,,,,,,,,,,,,,,,,,,,,,,,,,,,,,,,,90sing,001,2022_Nov_21_1032,ProdSingRedoBetween,2021.2.3,60.03600969109067,
88,0,88,0,,,,,,,,,,,,,,,,,,,,,,,,,,876.1527816997841,None,science,7,89,sing,yellow,874.1426929002628,None,None,,874.1426929002628,None,,,,,,,,,,,,,,,,,,,,,,,,,,,,,,,,,,,90sing,001,2022_Nov_21_1032,ProdSingRedoBetween,2021.2.3,60.03600969109067,
89,0,89,0,,,,,,,,,,,,,,,,,,,,,,,,,,878.6552106998861,None,split,70,90,sing,red,876.6534692998976,None,None,,876.6534692998976,None,,,,,,,,,,,,,,,,,,,,,,,,,,,,,,,,,,,90sing,001,2022_Nov_21_1032,ProdSingRedoBetween,2021.2.3,60.03600969109067,
,,,,,,,,,,,,,,,,,,,,,,,,,,,,,,,,,,,,,,,,,,879.1557395001873,None,k,55.92408480029553,879.1557395001873,None,,,,,,,,,,,,,,,,,,,,,,,,,,,,,90sing,001,2022_Nov_21_1032,ProdSingRedoBetween,2021.2.3,60.03600969109067,
,,,,0,0,0,0,,,,,,,,,,,,,,,,,,,,,,951.5793498996645,None,,,,,,,,,,,,,,,,,,career,3,1,sing,old,yellow,935.6248682998121,None,935.6248682998121,None,6,3.8229544991627336,935.6248682998121,None,3.8229544991627336,939.4693053998053,None,939.983735400252,None,939.983735400252,None,r,11.567929499782622,939.983735400252,None,11.567929499782622,,,90sing,001,2022_Nov_21_1032,ProdSingRedoBetween,2021.2.3,60.03600969109067,
,,,,1,0,1,0,,,,,,,,,,,,,,,,,,,,,,962.7245771000162,None,,,,,,,,,,,,,,,,,,property,153,2,sing,new,null,952.095835399814,None,952.095835399814,None,3,8.359937899746,952.095835399814,None,8.359937899746,960.4898755000904,None,961.0082591995597,None,961.0082591995597,None,n,1.6955925999209285,961.0082591995597,None,1.6955925999209285,,,90sing,001,2022_Nov_21_1032,ProdSingRedoBetween,2021.2.3,60.03600969109067,
,,,,2,0,2,0,,,,,,,,,,,,,,,,,,,,,,968.9273862000555,None,,,,,,,,,,,,,,,,,,piece,151,3,sing,new,null,963.2427219003439,None,963.2427219003439,None,2,4.26100719999522,963.2427219003439,None,4.26100719999522,967.5274444995448,None,968.0310091003776,None,968.0310091003776,None,n,0.8727313000708818,968.0310091003776,None,0.8727313000708818,,,90sing,001,2022_Nov_21_1032,ProdSingRedoBetween,2021.2.3,60.03600969109067,
,,,,3,0,3,0,,,,,,,,,,,,,,,,,,,,,,973.1330423997715,None,,,,,,,,,,,,,,,,,,mankind,145,4,sing,new,null,969.431623599492,None,969.431623599492,None,2,3.096084900200367,969.431623599492,None,3.096084900200367,972.5492703001946,None,973.0550156999379,None,973.0550156999379,None,n,0.04876710008829832,973.0550156999379,None,0.04876710008829832,,,90sing,001,2022_Nov_21_1032,ProdSingRedoBetween,2021.2.3,60.03600969109067,
,,,,4,0,4,0,,,,,,,,,,,,,,,,,,,,,,977.002023499459,None,,,,,,,,,,,,,,,,,,goose,20,5,sing,old,yellow,973.6505961995572,None,973.6505961995572,None,6,1.7972558997571468,973.6505961995572,None,1.7972558997571468,975.4711079997942,None,975.9905514996499,None,975.9905514996499,None,r,0.9851200003176928,975.9905514996499,None,0.9851200003176928,,,90sing,001,2022_Nov_21_1032,ProdSingRedoBetween,2021.2.3,60.03600969109067,
,,,,5,0,5,0,,,,,,,,,,,,,,,,,,,,,,1000.4102932997048,None,,,,,,,,,,,,,,,,,,escape,73,6,sing,old,red,977.5029518995434,None,977.5029518995434,None,6,5.5527517991140485,977.5029518995434,None,5.5527517991140485,983.0764982998371,None,983.5804739994928,None,983.5804739994928,None,f,16.803312100470066,983.5804739994928,None,16.803312100470066,,,90sing,001,2022_Nov_21_1032,ProdSingRedoBetween,2021.2.3,60.03600969109067,
,,,,6,0,6,0,,,,,,,,,,,,,,,,,,,,,,1006.6985304001719,None,,,,,,,,,,,,,,,,,,master,88,7,sing,old,red,1000.9137447001413,None,1000.9137447001413,None,2,4.165932799689472,1000.9137447001413,None,4.165932799689472,1005.0970125002787,None,1005.6032434999943,None,1005.6032434999943,None,n,1.0684601999819279,1005.6032434999943,None,1.0684601999819279,,,90sing,001,2022_Nov_21_1032,ProdSingRedoBetween,2021.2.3,60.03600969109067,
,,,,7,0,7,0,,,,,,,,,,,,,,,,,,,,,,1018.6771328002214,None,,,,,,,,,,,,,,,,,,broke,2,8,sing,old,yellow,1007.2057844996452,None,1007.2057844996452,None,4,7.817999799735844,1007.2057844996452,None,7.817999799735844,1015.0425055995584,None,1015.5613403003663,None,1015.5613403003663,None,n,3.0862894002348185,1015.5613403003663,None,3.0862894002348185,,,90sing,001,2022_Nov_21_1032,ProdSingRedoBetween,2021.2.3,60.03600969109067,
,,,,8,0,8,0,,,,,,,,,,,,,,,,,,,,,,1026.7016382999718,None,,,,,,,,,,,,,,,,,,reading,33,9,sing,old,blue,1019.1868254002184,None,1019.1868254002184,None,5,5.716832499951124,1019.1868254002184,None,5.716832499951124,1024.9375911997631,None,1025.450548400171,None,1025.450548400171,None,n,1.229089600034058,1025.450548400171,None,1.229089600034058,,,90sing,001,2022_Nov_21_1032,ProdSingRedoBetween,2021.2.3,60.03600969109067,
,,,,9,0,9,0,,,,,,,,,,,,,,,,,,,,,,1030.5732937995344,None,,,,,,,,,,,,,,,,,,state,27,10,sing,old,yellow,1027.2048349995166,None,1027.2048349995166,None,6,2.2827841993421316,1027.2048349995166,None,2.2827841993421316,1029.5061619002372,None,1030.006993100047,None,1030.006993100047,None,r,0.5446632001549006,1030.006993100047,None,0.5446632001549006,,,90sing,001,2022_Nov_21_1032,ProdSingRedoBetween,2021.2.3,60.03600969109067,
,,,,10,0,10,0,,,,,,,,,,,,,,,,,,,,,,1035.695480399765,None,,,,,,,,,,,,,,,,,,court,32,11,sing,old,blue,1031.0732271997258,None,1031.0732271997258,None,5,3.0143967997282743,1031.0732271997258,None,3.0143967997282743,1034.1101751001552,None,1034.6095177996904,None,1034.6095177996904,None,f,1.0622858004644513,1034.6095177996904,None,1.0622858004644513,,,90sing,001,2022_Nov_21_1032,ProdSingRedoBetween,2021.2.3,60.03600969109067,
,,,,11,0,11,0,,,,,,,,,,,,,,,,,,,,,,1041.7999569000676,None,,,,,,,,,,,,,,,,,,contract,105,12,sing,new,null,1036.2036691000685,None,1036.2036691000685,None,2,4.355987200513482,1036.2036691000685,None,4.355987200513482,1040.584058799781,None,1041.0995773002505,None,1041.0995773002505,None,n,0.6841099001467228,1041.0995773002505,None,0.6841099001467228,,,90sing,001,2022_Nov_21_1032,ProdSingRedoBetween,2021.2.3,60.03600969109067,
,,,,12,0,12,0,,,,,,,,,,,,,,,,,,,,,,1052.8280461002141,None,,,,,,,,,,,,,,,,,,angle,140,13,sing,new,null,1042.3006953001022,None,1042.3006953001022,None,4,8.090875600464642,1042.3006953001022,None,8.090875600464642,1050.410684700124,None,1050.9344811998308,None,1050.9344811998308,None,f,1.873101300559938,1050.9344811998308,None,1.873101300559938,,,90sing,001,2022_Nov_21_1032,ProdSingRedoBetween,2021.2.3,60.03600969109067,
,,,,13,0,13,0,,,,,,,,,,,,,,,,,,,,,,1059.2676221998408,None,,,,,,,,,,,,,,,,,,century,74,14,sing,old,red,1053.3369440995157,None,1053.3369440995157,None,3,5.230644900351763,1053.3369440995157,None,5.230644900351763,1058.5899815000594,None,1059.1049739997834,None,1059.1049739997834,None,n,0.13457619957625866,1059.1049739997834,None,0.13457619957625866,,,90sing,001,2022_Nov_21_1032,ProdSingRedoBetween,2021.2.3,60.03600969109067,
,,,,14,0,14,0,,,,,,,,,,,,,,,,,,,,,,1067.9427159996703,None,,,,,,,,,,,,,,,,,,season,91,15,sing,new,null,1059.7791304001585,None,1059.7791304001585,None,3,5.5323366997763515,1059.7791304001585,None,5.5323366997763515,1065.3415117999539,None,1065.8500320995227,None,1065.8500320995227,None,n,2.0695299999788404,1065.8500320995227,None,2.0695299999788404,,,90sing,001,2022_Nov_21_1032,ProdSingRedoBetween,2021.2.3,60.03600969109067,
,,,,15,0,15,0,,,,,,,,,,,,,,,,,,,,,,1071.879744200036,None,,,,,,,,,,,,,,,,,,salary,134,16,sing,new,null,1068.4545101998374,None,1068.4545101998374,None,2,2.1690271999686956,1068.4545101998374,None,2.1690271999686956,1070.6471876995638,None,1071.1652130000293,None,1071.1652130000293,None,n,0.6903052004054189,1071.1652130000293,None,0.6903052004054189,,,90sing,001,2022_Nov_21_1032,ProdSingRedoBetween,2021.2.3,60.03600969109067,
,,,,16,0,16,0,,,,,,,,,,,,,,,,,,,,,,1082.6573874996975,None,,,,,,,,,,,,,,,,,,throw,36,17,sing,old,blue,1072.3877889001742,None,1072.3877889001742,None,4,7.483761199750006,1072.3877889001742,None,7.483761199750006,1079.8893144000322,None,1080.3922894997522,None,1080.3922894997522,None,f,2.247211399488151,1080.3922894997522,None,2.247211399488151,,,90sing,001,2022_Nov_21_1032,ProdSingRedoBetween,2021.2.3,60.03600969109067,
,,,,17,0,17,0,,,,,,,,,,,,,,,,,,,,,,1087.1117780003697,None,,,,,,,,,,,,,,,,,,waste,143,18,sing,new,null,1083.1658402001485,None,1083.1658402001485,None,2,2.3616300001740456,1083.1658402001485,None,2.3616300001740456,1085.5449435999617,None,1086.0501097999513,None,1086.0501097999513,None,n,1.0454466994851828,1086.0501097999513,None,1.0454466994851828,,,90sing,001,2022_Nov_21_1032,ProdSingRedoBetween,2021.2.3,60.03600969109067,
,,,,18,0,18,0,,,,,,,,,,,,,,,,,,,,,,1097.2890130002052,None,,,,,,,,,,,,,,,,,,clean,68,19,sing,old,red,1087.6304839001969,None,1087.6304839001969,None,4,8.745182199403644,1087.6304839001969,None,8.745182199403644,1096.4088228996843,None,1096.9219482997432,None,1096.9219482997432,None,f,0.3497261004522443,1096.9219482997432,None,0.3497261004522443,,,90sing,001,2022_Nov_21_1032,ProdSingRedoBetween,2021.2.3,60.03600969109067,
,,,,19,0,19,0,,,,,,,,,,,,,,,,,,,,,,1102.477369999513,None,,,,,,,,,,,,,,,,,,quick,50,20,sing,old,blue,1097.7987703997642,None,1097.7987703997642,None,6,2.648656200617552,1097.7987703997642,None,2.648656200617552,1100.4765437003225,None,1100.976023499854,None,1100.976023499854,None,r,1.4714558003470302,1100.976023499854,None,1.4714558003470302,,,90sing,001,2022_Nov_21_1032,ProdSingRedoBetween,2021.2.3,60.03600969109067,
,,,,20,0,20,0,,,,,,,,,,,,,,,,,,,,,,1107.0509901000187,None,,,,,,,,,,,,,,,,,,title,163,21,sing,new,null,1102.9839666001499,None,1102.9839666001499,None,5,3.30349459964782,1102.9839666001499,None,3.30349459964782,1106.3171900995076,None,1106.8329456998035,None,1106.8329456998035,None,f,0.19066870026290417,1106.8329456998035,None,0.19066870026290417,,,90sing,001,2022_Nov_21_1032,ProdSingRedoBetween,2021.2.3,60.03600969109067,
,,,,21,0,21,0,,,,,,,,,,,,,,,,,,,,,,1112.8544146995991,None,,,,,,,,,,,,,,,,,,rough,99,22,sing,new,null,1107.565793699585,None,1107.565793699585,None,3,4.641757799312472,1107.565793699585,None,4.641757799312472,1112.24110809993,None,1112.7560245003551,None,1112.7560245003551,None,n,0.06740230042487383,1112.7560245003551,None,0.06740230042487383,,,90sing,001,2022_Nov_21_1032,ProdSingRedoBetween,2021.2.3,60.03600969109067,
,,,,22,0,22,0,,,,,,,,,,,,,,,,,,,,,,1123.2814774997532,None,,,,,,,,,,,,,,,,,,territory,101,23,sing,new,null,1113.366690799594,None,1113.366690799594,None,3,8.976709200069308,1113.366690799594,None,8.976709200069308,1122.367195200175,None,1122.887882899493,None,1122.887882899493,None,n,0.36758540011942387,1122.887882899493,None,0.36758540011942387,,,90sing,001,2022_Nov_21_1032,ProdSingRedoBetween,2021.2.3,60.03600969109067,
,,,,23,0,23,0,,,,,,,,,,,,,,,,,,,,,,1128.453286900185,None,,,,,,,,,,,,,,,,,,point,177,24,sing,new,null,1123.7868395000696,None,1123.7868395000696,None,5,3.1887467997148633,1123.7868395000696,None,3.1887467997148633,1127.0029873996973,None,1127.502462499775,None,1127.502462499775,None,f,0.9291003998368979,1127.502462499775,None,0.9291003998368979,,,90sing,001,2022_Nov_21_1032,ProdSingRedoBetween,2021.2.3,60.03600969109067,
,,,,24,0,24,0,,,,,,,,,,,,,,,,,,,,,,1132.507315499708,None,,,,,,,,,,,,,,,,,,treatment,81,25,sing,old,red,1128.9565783003345,None,1128.9565783003345,None,6,1.9948790995404124,1128.9565783003345,None,1.9948790995404124,1130.9736909996718,None,1131.4794455999509,None,1131.4794455999509,None,r,0.9999134000390768,1131.4794455999509,None,0.9999134000390768,,,90sing,001,2022_Nov_21_1032,ProdSingRedoBetween,2021.2.3,60.03600969109067,
,,,,25,0,25,0,,,,,,,,,,,,,,,,,,,,,,1138.630072100088,None,,,,,,,,,,,,,,,,,,company,154,26,sing,new,null,1133.0179540999234,None,1133.0179540999234,None,5,3.42143930029124,1133.0179540999234,None,3.42143930029124,1136.4667469002306,None,1136.9785498995334,None,1136.9785498995334,None,f,1.6208812007680535,1136.9785498995334,None,1.6208812007680535,,,90sing,001,2022_Nov_21_1032,ProdSingRedoBetween,2021.2.3,60.03600969109067,
,,,,26,0,26,0,,,,,,,,,,,,,,,,,,,,,,1144.5359857995063,None,,,,,,,,,,,,,,,,,,skill,172,27,sing,new,null,1139.1413634000346,None,1139.1413634000346,None,3,4.2260402999818325,1139.1413634000346,None,4.2260402999818325,1143.3867803001776,None,1143.9065603995696,None,1143.9065603995696,None,n,0.6048949006944895,1143.9065603995696,None,0.6048949006944895,,,90sing,001,2022_Nov_21_1032,ProdSingRedoBetween,2021.2.3,60.03600969109067,
,,,,27,0,27,0,,,,,,,,,,,,,,,,,,,,,,1148.6067142002285,None,,,,,,,,,,,,,,,,,,pressure,44,28,sing,old,blue,1145.0389972999692,None,1145.0389972999692,None,6,2.0565291000530124,1145.0389972999692,None,2.0565291000530124,1147.1285589002073,None,1147.6392406001687,None,1147.6392406001687,None,r,0.9441886004060507,1147.6392406001687,None,0.9441886004060507,,,90sing,001,2022_Nov_21_1032,ProdSingRedoBetween,2021.2.3,60.03600969109067,
,,,,28,0,28,0,,,,,,,,,,,,,,,,,,,,,,1153.177977499552,None,,,,,,,,,,,,,,,,,,fellow,132,29,sing,new,null,1149.1181443994865,None,1149.1181443994865,None,3,3.1692685997113585,1149.1181443994865,None,3.1692685997113585,1152.3121116003022,None,1152.8305294001475,None,1152.8305294001475,None,n,0.3210070999339223,1152.8305294001475,None,0.3210070999339223,,,90sing,001,2022_Nov_21_1032,ProdSingRedoBetween,2021.2.3,60.03600969109067,
,,,,29,0,29,0,,,,,,,,,,,,,,,,,,,,,,1161.6030775997788,None,,,,,,,,,,,,,,,,,,beginning,55,30,sing,old,blue,1153.6851867996156,None,1153.6851867996156,None,3,6.962421800009906,1153.6851867996156,None,6.962421800009906,1160.6797748003155,None,1161.1860721996054,None,1161.1860721996054,None,n,0.3893128000199795,1161.1860721996054,None,0.3893128000199795,,,90sing,001,2022_Nov_21_1032,ProdSingRedoBetween,2021.2.3,60.03600969109067,
,,,,30,0,30,0,,,,,,,,,,,,,,,,,,,,,,1167.0251784995198,None,,,,,,,,,,,,,,,,,,concern,35,31,sing,old,blue,1162.113536699675,None,1162.113536699675,None,5,4.221861300058663,1162.113536699675,None,4.221861300058663,1166.362560399808,None,1166.8751119999215,None,1166.8751119999215,None,f,0.13226130045950413,1166.8751119999215,None,0.13226130045950413,,,90sing,001,2022_Nov_21_1032,ProdSingRedoBetween,2021.2.3,60.03600969109067,
,,,,31,0,31,0,,,,,,,,,,,,,,,,,,,,,,1173.2312867995352,None,,,,,,,,,,,,,,,,,,husband,171,32,sing,new,null,1167.5277557997033,None,1167.5277557997033,None,3,4.551613500341773,1167.5277557997033,None,4.551613500341773,1172.0980300996453,None,1172.6018420998007,None,1172.6018420998007,None,n,0.6055434998124838,1172.6018420998007,None,0.6055434998124838,,,90sing,001,2022_Nov_21_1032,ProdSingRedoBetween,2021.2.3,60.03600969109067,
,,,,32,0,32,0,,,,,,,,,,,,,,,,,,,,,,1179.7208668999374,None,,,,,,,,,,,,,,,,,,ground,107,33,sing,new,null,1173.733610900119,None,1173.733610900119,None,3,4.889738200232387,1173.733610900119,None,4.889738200232387,1178.654914099723,None,1179.1707012001425,None,1179.1707012001425,None,n,0.5246855998411775,1179.1707012001425,None,0.5246855998411775,,,90sing,001,2022_Nov_21_1032,ProdSingRedoBetween,2021.2.3,60.03600969109067,
,,,,33,0,33,0,,,,,,,,,,,,,,,,,,,,,,1183.6270147999749,None,,,,,,,,,,,,,,,,,,narrow,11,34,sing,old,yellow,1180.2341117998585,None,1180.2341117998585,None,5,2.277342900633812,1180.2341117998585,None,2.277342900633812,1182.5418320000172,None,1183.045991900377,None,1183.045991900377,None,f,0.5613526003435254,1183.045991900377,None,0.5613526003435254,,,90sing,001,2022_Nov_21_1032,ProdSingRedoBetween,2021.2.3,60.03600969109067,
,,,,34,0,34,0,,,,,,,,,,,,,,,,,,,,,,1187.628951699473,None,,,,,,,,,,,,,,,,,,partner,106,35,sing,new,null,1184.1497141998261,None,1184.1497141998261,None,2,2.5855652997270226,1184.1497141998261,None,2.5855652997270226,1186.762583900243,None,1187.2650649994612,None,1187.2650649994612,None,n,0.3423351002857089,1187.2650649994612,None,0.3423351002857089,,,90sing,001,2022_Nov_21_1032,ProdSingRedoBetween,2021.2.3,60.03600969109067,
,,,,35,0,35,0,,,,,,,,,,,,,,,,,,,,,,1192.9173352001235,None,,,,,,,,,,,,,,,,,,agency,179,36,sing,new,null,1188.1363057997078,None,1188.1363057997078,None,1,3.2869696002453566,1188.1363057997078,None,3.2869696002453566,1191.4507900001481,None,1191.9563200995326,None,1191.9563200995326,None,n,0.9390781996771693,1191.9563200995326,None,0.9390781996771693,,,90sing,001,2022_Nov_21_1032,ProdSingRedoBetween,2021.2.3,60.03600969109067,
,,,,36,0,36,0,,,,,,,,,,,,,,,,,,,,,,1198.6112876003608,None,,,,,,,,,,,,,,,,,,quantity,18,37,sing,old,yellow,1193.425010100007,None,1193.425010100007,None,6,3.9743060003966093,1193.425010100007,None,3.9743060003966093,1197.4349386999384,None,1197.9459800003096,None,1197.9459800003096,None,r,0.6294764997437596,1197.9459800003096,None,0.6294764997437596,,,90sing,001,2022_Nov_21_1032,ProdSingRedoBetween,2021.2.3,60.03600969109067,
,,,,37,0,37,0,,,,,,,,,,,,,,,,,,,,,,1202.4454971002415,None,,,,,,,,,,,,,,,,,,clear,96,38,sing,new,null,1199.1239069998264,None,1199.1239069998264,None,6,2.0673962999135256,1199.1239069998264,None,2.0673962999135256,1201.2116187997162,None,1201.732968499884,None,1201.732968499884,None,r,0.6902561001479626,1201.732968499884,None,0.6902561001479626,,,90sing,001,2022_Nov_21_1032,ProdSingRedoBetween,2021.2.3,60.03600969109067,
,,,,38,0,38,0,,,,,,,,,,,,,,,,,,,,,,1205.6302496995777,None,,,,,,,,,,,,,,,,,,light,108,39,sing,new,null,1202.9658846994862,None,1202.9658846994862,None,3,1.8256943002343178,1202.9658846994862,None,1.8256943002343178,1204.817367900163,None,1205.3301133997738,None,1205.3301133997738,None,n,0.2692029997706413,1205.3301133997738,None,0.2692029997706413,,,90sing,001,2022_Nov_21_1032,ProdSingRedoBetween,2021.2.3,60.03600969109067,
,,,,39,0,39,0,,,,,,,,,,,,,,,,,,,,,,1211.7029684996232,None,,,,,,,,,,,,,,,,,,close,46,40,sing,old,blue,1206.1390273999423,None,1206.1390273999423,None,4,4.676508699543774,1206.1390273999423,None,4.676508699543774,1210.8444555997849,None,1211.352805200033,None,1211.352805200033,None,f,0.33439920004457235,1211.352805200033,None,0.33439920004457235,,,90sing,001,2022_Nov_21_1032,ProdSingRedoBetween,2021.2.3,60.03600969109067,
,,,,40,0,40,0,,,,,,,,,,,,,,,,,,,,,,1216.5745481001213,None,,,,,,,,,,,,,,,,,,rural,9,41,sing,old,yellow,1212.209834699519,None,1212.209834699519,None,6,2.4294534996151924,1212.209834699519,None,2.4294534996151924,1214.658528899774,None,1215.1731308996677,None,1215.1731308996677,None,r,1.37022399995476,1215.1731308996677,None,1.37022399995476,,,90sing,001,2022_Nov_21_1032,ProdSingRedoBetween,2021.2.3,60.03600969109067,
,,,,41,0,41,0,,,,,,,,,,,,,,,,,,,,,,1220.6952627999708,None,,,,,,,,,,,,,,,,,,bitter,173,42,sing,new,null,1217.0789446001872,None,1217.0789446001872,None,1,2.752506799995899,1217.0789446001872,None,2.752506799995899,1219.864157400094,None,1220.3790816003457,None,1220.3790816003457,None,n,0.2922654999420047,1220.3790816003457,None,0.2922654999420047,,,90sing,001,2022_Nov_21_1032,ProdSingRedoBetween,2021.2.3,60.03600969109067,
,,,,42,0,42,0,,,,,,,,,,,,,,,,,,,,,,1225.7357997000217,None,,,,,,,,,,,,,,,,,,material,170,43,sing,new,null,1221.1961997998878,None,1221.1961997998878,None,5,3.515097100287676,1221.1961997998878,None,3.515097100287676,1224.7343017999083,None,1225.2511416999623,None,1225.2511416999623,None,f,0.4522775998339057,1225.2511416999623,None,0.4522775998339057,,,90sing,001,2022_Nov_21_1032,ProdSingRedoBetween,2021.2.3,60.03600969109067,
,,,,43,0,43,0,,,,,,,,,,,,,,,,,,,,,,1229.4540475998074,None,,,,,,,,,,,,,,,,,,split,70,44,sing,old,red,1226.2625527000055,None,1226.2625527000055,None,6,2.4406842002645135,1226.2625527000055,None,2.4406842002645135,1228.7214815001935,None,1229.2372869998217,None,1229.2372869998217,None,r,0.18592659942805767,1229.2372869998217,None,0.18592659942805767,,,90sing,001,2022_Nov_21_1032,ProdSingRedoBetween,2021.2.3,60.03600969109067,
,,,,44,0,44,0,,,,,,,,,,,,,,,,,,,,,,1233.9582494003698,None,,,,,,,,,,,,,,,,,,attack,54,45,sing,old,blue,1229.9639499001205,None,1229.9639499001205,None,6,3.1474159993231297,1229.9639499001205,None,3.1474159993231297,1233.1417734995484,None,1233.6454723998904,None,1233.6454723998904,None,r,0.2978317001834512,1233.6454723998904,None,0.2978317001834512,,,90sing,001,2022_Nov_21_1032,ProdSingRedoBetween,2021.2.3,60.03600969109067,
,,,,45,0,45,0,,,,,,,,,,,,,,,,,,,,,,1237.5464894995093,None,,,,,,,,,,,,,,,,,,expansion,79,46,sing,old,red,1234.4709483003244,None,1234.4709483003244,None,2,2.152502699755132,1234.4709483003244,None,2.152502699755132,1236.6478538997471,None,1237.161833900027,None,1237.161833900027,None,n,0.36549700051546097,1237.161833900027,None,0.36549700051546097,,,90sing,001,2022_Nov_21_1032,ProdSingRedoBetween,2021.2.3,60.03600969109067,
,,,,46,0,46,0,,,,,,,,,,,,,,,,,,,,,,1245.7535793995485,None,,,,,,,,,,,,,,,,,,report,114,47,sing,new,null,1238.0481474995613,None,1238.0481474995613,None,3,6.759072799235582,1238.0481474995613,None,6.759072799235582,1244.8403287995607,None,1245.3533269995824,None,1245.3533269995824,None,n,0.37390249967575073,1245.3533269995824,None,0.37390249967575073,,,90sing,001,2022_Nov_21_1032,ProdSingRedoBetween,2021.2.3,60.03600969109067,
,,,,47,0,47,0,,,,,,,,,,,,,,,,,,,,,,1248.9734078003094,None,,,,,,,,,,,,,,,,,,audience,123,48,sing,new,null,1246.2624051002786,None,1246.2624051002786,None,2,1.976800300180912,1246.2624051002786,None,1.976800300180912,1248.2592441998422,None,1248.7732328996062,None,1248.7732328996062,None,n,0.17831759992986917,1248.7732328996062,None,0.17831759992986917,,,90sing,001,2022_Nov_21_1032,ProdSingRedoBetween,2021.2.3,60.03600969109067,
,,,,48,0,48,0,,,,,,,,,,,,,,,,,,,,,,1253.594715300016,None,,,,,,,,,,,,,,,,,,primary,162,49,sing,new,null,1249.4836401995271,None,1249.4836401995271,None,4,3.2755538001656532,1249.4836401995271,None,3.2755538001656532,1252.778512599878,None,1253.2776859002188,None,1253.2776859002188,None,f,0.2975925002247095,1253.2776859002188,None,0.2975925002247095,,,90sing,001,2022_Nov_21_1032,ProdSingRedoBetween,2021.2.3,60.03600969109067,
,,,,49,0,49,0,,,,,,,,,,,,,,,,,,,,,,1257.516953899525,None,,,,,,,,,,,,,,,,,,height,144,50,sing,new,null,1254.1006778003648,None,1254.1006778003648,None,5,2.522538000717759,1254.1006778003648,None,2.522538000717759,1256.6490096999332,None,1257.1555434996262,None,1257.1555434996262,None,f,0.3317603999748826,1257.1555434996262,None,0.3317603999748826,,,90sing,001,2022_Nov_21_1032,ProdSingRedoBetween,2021.2.3,60.03600969109067,
,,,,50,0,50,0,,,,,,,,,,,,,,,,,,,,,,1263.6712761996314,None,,,,,,,,,,,,,,,,,,impact,150,51,sing,new,null,1258.0375886997208,None,1258.0375886997208,None,3,4.64955069962889,1258.0375886997208,None,4.64955069962889,1262.713282899931,None,1263.2211248995736,None,1263.2211248995736,None,n,0.43422550056129694,1263.2211248995736,None,0.43422550056129694,,,90sing,001,2022_Nov_21_1032,ProdSingRedoBetween,2021.2.3,60.03600969109067,
,,,,51,0,51,0,,,,,,,,,,,,,,,,,,,,,,1269.6652996996418,None,,,,,,,,,,,,,,,,,,cover,12,52,sing,old,yellow,1264.1754379998893,None,1264.1754379998893,None,4,3.743833800777793,1264.1754379998893,None,3.743833800777793,1267.9488391000777,None,1268.461387399584,None,1268.461387399584,None,f,1.1778949005529284,1268.461387399584,None,1.1778949005529284,,,90sing,001,2022_Nov_21_1032,ProdSingRedoBetween,2021.2.3,60.03600969109067,
,,,,52,0,52,0,,,,,,,,,,,,,,,,,,,,,,1273.598021400161,None,,,,,,,,,,,,,,,,,,guest,167,53,sing,new,null,1270.1781206000596,None,1270.1781206000596,None,6,2.301068900153041,1270.1781206000596,None,2.301068900153041,1272.498837100342,None,1273.014191299677,None,1273.014191299677,None,r,0.5610314998775721,1273.014191299677,None,0.5610314998775721,,,90sing,001,2022_Nov_21_1032,ProdSingRedoBetween,2021.2.3,60.03600969109067,
,,,,53,0,53,0,,,,,,,,,,,,,,,,,,,,,,1276.922024300322,None,,,,,,,,,,,,,,,,,,tragedy,160,54,sing,new,null,1274.106562900357,None,1274.106562900357,None,3,1.9966176999732852,1274.106562900357,None,1.9966176999732852,1276.1351586002856,None,1276.6394563997164,None,1276.6394563997164,None,n,0.2560013001784682,1276.6394563997164,None,0.2560013001784682,,,90sing,001,2022_Nov_21_1032,ProdSingRedoBetween,2021.2.3,60.03600969109067,
,,,,54,0,54,0,,,,,,,,,,,,,,,,,,,,,,1281.3057188997045,None,,,,,,,,,,,,,,,,,,reach,26,55,sing,old,yellow,1277.4427747996524,None,1277.4427747996524,None,5,3.22844519931823,1277.4427747996524,None,3.22844519931823,1280.695135800168,None,1281.2055946001783,None,1281.2055946001783,None,f,0.0737306997179985,1281.2055946001783,None,0.0737306997179985,,,90sing,001,2022_Nov_21_1032,ProdSingRedoBetween,2021.2.3,60.03600969109067,
,,,,55,0,55,0,,,,,,,,,,,,,,,,,,,,,,1286.494201200083,None,,,,,,,,,,,,,,,,,,health,72,56,sing,old,red,1281.8180793002248,None,1281.8180793002248,None,5,2.8451680997386575,1281.8180793002248,None,2.8451680997386575,1284.6938800001517,None,1285.196948999539,None,1285.196948999539,None,f,1.2822364000603557,1285.196948999539,None,1.2822364000603557,,,90sing,001,2022_Nov_21_1032,ProdSingRedoBetween,2021.2.3,60.03600969109067,
,,,,56,0,56,0,,,,,,,,,,,,,,,,,,,,,,1290.4648615997285,None,,,,,,,,,,,,,,,,,,pattern,16,57,sing,old,yellow,1286.9981530997902,None,1286.9981530997902,None,5,2.36903109960258,1286.9981530997902,None,2.36903109960258,1289.3981579001993,None,1289.901739999652,None,1289.901739999652,None,f,0.5454105995595455,1289.901739999652,None,0.5454105995595455,,,90sing,001,2022_Nov_21_1032,ProdSingRedoBetween,2021.2.3,60.03600969109067,
,,,,57,0,57,0,,,,,,,,,,,,,,,,,,,,,,1293.7848754003644,None,,,,,,,,,,,,,,,,,,length,61,58,sing,old,red,1290.9743547001854,None,1290.9743547001854,None,6,2.1048577995970845,1290.9743547001854,None,2.1048577995970845,1293.10198580008,None,1293.6041505998,None,1293.6041505998,None,r,0.15500069968402386,1293.6041505998,None,0.15500069968402386,,,90sing,001,2022_Nov_21_1032,ProdSingRedoBetween,2021.2.3,60.03600969109067,
,,,,58,0,58,0,,,,,,,,,,,,,,,,,,,,,,1299.5404570996761,None,,,,,,,,,,,,,,,,,,committee,69,59,sing,old,red,1294.2874651998281,None,1294.2874651998281,None,4,4.591663700528443,1294.2874651998281,None,4.591663700528443,1298.9072564998642,None,1299.411464200355,None,1299.411464200355,None,f,0.09978039935231209,1299.411464200355,None,0.09978039935231209,,,90sing,001,2022_Nov_21_1032,ProdSingRedoBetween,2021.2.3,60.03600969109067,
,,,,59,0,59,0,,,,,,,,,,,,,,,,,,,,,,1303.1147902999073,None,,,,,,,,,,,,,,,,,,dozen,31,60,sing,old,blue,1300.045895899646,None,1300.045895899646,None,6,2.193263099528849,1300.045895899646,None,2.193263099528849,1302.2620959002525,None,1302.782728199847,None,1302.782728199847,None,r,0.30446899961680174,1302.782728199847,None,0.30446899961680174,,,90sing,001,2022_Nov_21_1032,ProdSingRedoBetween,2021.2.3,60.03600969109067,
,,,,60,0,60,0,,,,,,,,,,,,,,,,,,,,,,1308.2998713999987,None,,,,,,,,,,,,,,,,,,union,156,61,sing,new,null,1303.628644099459,None,1303.628644099459,None,5,4.098518900573254,1303.628644099459,None,4.098518900573254,1307.7505606003106,None,1308.266017800197,None,1308.266017800197,None,f,0.0053206998854875565,1308.266017800197,None,0.0053206998854875565,,,90sing,001,2022_Nov_21_1032,ProdSingRedoBetween,2021.2.3,60.03600969109067,
,,,,61,0,61,0,,,,,,,,,,,,,,,,,,,,,,1311.1020651003346,None,,,,,,,,,,,,,,,,,,community,42,62,sing,old,blue,1308.807470000349,None,1308.807470000349,None,6,1.487665799446404,1308.807470000349,None,1.487665799446404,1310.3214408000931,None,1310.835219499655,None,1310.835219499655,None,r,0.23590500000864267,1310.835219499655,None,0.23590500000864267,,,90sing,001,2022_Nov_21_1032,ProdSingRedoBetween,2021.2.3,60.03600969109067,
,,,,62,0,62,0,,,,,,,,,,,,,,,,,,,,,,1314.77248840034,None,,,,,,,,,,,,,,,,,,error,118,63,sing,new,null,1311.6096505001187,None,1311.6096505001187,None,6,1.7816506000235677,1311.6096505001187,None,1.7816506000235677,1313.4208605997264,None,1313.9216988002881,None,1313.9216988002881,None,r,0.8294607000425458,1313.9216988002881,None,0.8294607000425458,,,90sing,001,2022_Nov_21_1032,ProdSingRedoBetween,2021.2.3,60.03600969109067,
,,,,63,0,63,0,,,,,,,,,,,,,,,,,,,,,,1321.6971632996574,None,,,,,,,,,,,,,,,,,,substance,159,64,sing,new,null,1315.28259850014,None,1315.28259850014,None,5,5.044666199944913,1315.28259850014,None,5.044666199944913,1320.3543659001589,None,1320.8620322998613,None,1320.8620322998613,None,f,0.8092000000178814,1320.8620322998613,None,0.8092000000178814,,,90sing,001,2022_Nov_21_1032,ProdSingRedoBetween,2021.2.3,60.03600969109067,
,,,,64,0,64,0,,,,,,,,,,,,,,,,,,,,,,1325.8680231999606,None,,,,,,,,,,,,,,,,,,election,29,65,sing,old,blue,1322.1994738001376,None,1322.1994738001376,None,6,2.207642899826169,1322.1994738001376,None,2.207642899826169,1324.433473000303,None,1324.9353008996695,None,1324.9353008996695,None,r,0.911892400123179,1324.9353008996695,None,0.911892400123179,,,90sing,001,2022_Nov_21_1032,ProdSingRedoBetween,2021.2.3,60.03600969109067,
,,,,65,0,65,0,,,,,,,,,,,,,,,,,,,,,,1329.8874882999808,None,,,,,,,,,,,,,,,,,,signal,130,66,sing,new,null,1326.3729445002973,None,1326.3729445002973,None,5,2.722350500524044,1326.3729445002973,None,2.722350500524044,1329.1204276997596,None,1329.6248388001695,None,1329.6248388001695,None,f,0.246225300244987,1329.6248388001695,None,0.246225300244987,,,90sing,001,2022_Nov_21_1032,ProdSingRedoBetween,2021.2.3,60.03600969109067,
,,,,66,0,66,0,,,,,,,,,,,,,,,,,,,,,,1333.3075598999858,None,,,,,,,,,,,,,,,,,,figure,0,67,sing,old,yellow,1330.3919438999146,None,1330.3919438999146,None,6,1.4791689002886415,1330.3919438999146,None,1.4791689002886415,1331.8950343001634,None,1332.4132350003347,None,1332.4132350003347,None,r,0.8738770000636578,1332.4132350003347,None,0.8738770000636578,,,90sing,001,2022_Nov_21_1032,ProdSingRedoBetween,2021.2.3,60.03600969109067,
,,,,67,0,67,0,,,,,,,,,,,,,,,,,,,,,,1336.477464299649,None,,,,,,,,,,,,,,,,,,dream,67,68,sing,old,red,1333.810424500145,None,1333.810424500145,None,5,1.8606774006038904,1333.810424500145,None,1.8606774006038904,1335.6930496003479,None,1336.1938378000632,None,1336.1938378000632,None,f,0.25326160062104464,1336.1938378000632,None,0.25326160062104464,,,90sing,001,2022_Nov_21_1032,ProdSingRedoBetween,2021.2.3,60.03600969109067,
,,,,68,0,68,0,,,,,,,,,,,,,,,,,,,,,,1340.4159909998998,None,,,,,,,,,,,,,,,,,,raise,155,69,sing,new,null,1336.9816258996725,None,1336.9816258996725,None,4,2.6415595998987556,1336.9816258996725,None,2.6415595998987556,1339.6485057994723,None,1340.1523575000465,None,1340.1523575000465,None,f,0.24682889971882105,1340.1523575000465,None,0.24682889971882105,,,90sing,001,2022_Nov_21_1032,ProdSingRedoBetween,2021.2.3,60.03600969109067,
,,,,69,0,69,0,,,,,,,,,,,,,,,,,,,,,,1343.9211834995076,None,,,,,,,,,,,,,,,,,,instrument,30,70,sing,old,blue,1340.9208621997386,None,1340.9208621997386,None,6,1.9422589000314474,1340.9208621997386,None,1.9422589000314474,1342.8892029998824,None,1343.4117968995124,None,1343.4117968995124,None,r,0.4755028001964092,1343.4117968995124,None,0.4755028001964092,,,90sing,001,2022_Nov_21_1032,ProdSingRedoBetween,2021.2.3,60.03600969109067,
,,,,70,0,70,0,,,,,,,,,,,,,,,,,,,,,,1347.3549301000312,None,,,,,,,,,,,,,,,,,,mechanical,15,71,sing,old,yellow,1344.4493108997121,None,1344.4493108997121,None,6,2.053731099702418,1344.4493108997121,None,2.053731099702418,1346.5220373999327,None,1347.0272407000884,None,1347.0272407000884,None,r,0.29987099952995777,1347.0272407000884,None,0.29987099952995777,,,90sing,001,2022_Nov_21_1032,ProdSingRedoBetween,2021.2.3,60.03600969109067,
,,,,71,0,71,0,,,,,,,,,,,,,,,,,,,,,,1350.6579671995714,None,,,,,,,,,,,,,,,,,,force,117,72,sing,new,null,1347.8642042996362,None,1347.8642042996362,None,5,2.0231461003422737,1347.8642042996362,None,2.0231461003422737,1349.9139700001106,None,1350.431632200256,None,1350.431632200256,None,f,0.19947780016809702,1350.431632200256,None,0.19947780016809702,,,90sing,001,2022_Nov_21_1032,ProdSingRedoBetween,2021.2.3,60.03600969109067,
,,,,72,0,72,0,,,,,,,,,,,,,,,,,,,,,,1355.0312729002908,None,,,,,,,,,,,,,,,,,,worker,89,73,sing,old,red,1351.1651355000213,None,1351.1651355000213,None,6,3.1780091002583504,1351.1651355000213,None,3.1780091002583504,1354.3637736001983,None,1354.8792321998626,None,1354.8792321998626,None,f,0.12801709957420826,1354.8792321998626,None,0.12801709957420826,,,90sing,001,2022_Nov_21_1032,ProdSingRedoBetween,2021.2.3,60.03600969109067,
,,,,73,0,73,0,,,,,,,,,,,,,,,,,,,,,,1361.1853804001585,None,,,,,,,,,,,,,,,,,,bureau,37,74,sing,old,blue,1355.5467245001346,None,1355.5467245001346,None,6,4.844261500053108,1355.5467245001346,None,4.844261500053108,1360.4202018994838,None,1360.9363436000422,None,1360.9363436000422,None,r,0.23072800040245056,1360.9363436000422,None,0.23072800040245056,,,90sing,001,2022_Nov_21_1032,ProdSingRedoBetween,2021.2.3,60.03600969109067,
,,,,74,0,74,0,,,,,,,,,,,,,,,,,,,,,,1363.7377279996872,None,,,,,,,,,,,,,,,,,,commercial,1,75,sing,old,yellow,1361.7004273002967,None,1361.7004273002967,None,6,1.3546356000006199,1361.7004273002967,None,1.3546356000006199,1363.076303199865,None,1363.5953348996118,None,1363.5953348996118,None,r,0.11574219912290573,1363.5953348996118,None,0.11574219912290573,,,90sing,001,2022_Nov_21_1032,ProdSingRedoBetween,2021.2.3,60.03600969109067,
,,,,75,0,75,0,,,,,,,,,,,,,,,,,,,,,,1368.2592345997691,None,,,,,,,,,,,,,,,,,,finish,90,76,sing,new,null,1364.2493594000116,None,1364.2493594000116,None,5,3.365631800144911,1364.2493594000116,None,3.365631800144911,1367.6434311997145,None,1368.1590526001528,None,1368.1590526001528,None,f,0.08015920035541058,1368.1590526001528,None,0.08015920035541058,,,90sing,001,2022_Nov_21_1032,ProdSingRedoBetween,2021.2.3,60.03600969109067,
,,,,76,0,76,0,,,,,,,,,,,,,,,,,,,,,,1370.6785706002265,None,,,,,,,,,,,,,,,,,,still,77,77,sing,old,red,1368.766282999888,None,1368.766282999888,None,5,1.336821999400854,1368.766282999888,None,1.336821999400854,1370.1319313999265,None,1370.6510397996753,None,1370.6510397996753,None,f,0.012071399949491024,1370.6510397996753,None,0.012071399949491024,,,90sing,001,2022_Nov_21_1032,ProdSingRedoBetween,2021.2.3,60.03600969109067,
,,,,77,0,77,0,,,,,,,,,,,,,,,,,,,,,,1374.3652873001993,None,,,,,,,,,,,,,,,,,,relation,104,78,sing,new,null,1371.1896863998845,None,1371.1896863998845,None,5,2.3374354001134634,1371.1896863998845,None,2.3374354001134634,1373.5534562999383,None,1374.0685283998027,None,1374.0685283998027,None,f,0.26646840013563633,1374.0685283998027,None,0.26646840013563633,,,90sing,001,2022_Nov_21_1032,ProdSingRedoBetween,2021.2.3,60.03600969109067,
,,,,78,0,78,0,,,,,,,,,,,,,,,,,,,,,,1376.9541421001777,None,,,,,,,,,,,,,,,,,,straight,65,79,sing,old,red,1374.8763095997274,None,1374.8763095997274,None,6,1.1707539996132255,1374.8763095997274,None,1.1707539996132255,1376.0719013996422,None,1376.588344800286,None,1376.588344800286,None,r,0.3390020001679659,1376.588344800286,None,0.3390020001679659,,,90sing,001,2022_Nov_21_1032,ProdSingRedoBetween,2021.2.3,60.03600969109067,
,,,,79,0,79,0,,,,,,,,,,,,,,,,,,,,,,1381.9064943995327,None,,,,,,,,,,,,,,,,,,generation,21,80,sing,old,yellow,1377.4745752001181,None,1377.4745752001181,None,6,3.1964136995375156,1377.4745752001181,None,3.1964136995375156,1380.68938970007,None,1381.1886401996017,None,1381.1886401996017,None,r,0.6984283998608589,1381.1886401996017,None,0.6984283998608589,,,90sing,001,2022_Nov_21_1032,ProdSingRedoBetween,2021.2.3,60.03600969109067,
,,,,80,0,80,0,,,,,,,,,,,,,,,,,,,,,,1384.628113400191,None,,,,,,,,,,,,,,,,,,judge,115,81,sing,new,null,1382.4148333994672,None,1382.4148333994672,None,6,1.2801781995221972,1382.4148333994672,None,1.2801781995221972,1383.7317361999303,None,1384.2440994000062,None,1384.2440994000062,None,r,0.3630434004589915,1384.2440994000062,None,0.3630434004589915,,,90sing,001,2022_Nov_21_1032,ProdSingRedoBetween,2021.2.3,60.03600969109067,
,,,,81,0,81,0,,,,,,,,,,,,,,,,,,,,,,1389.4302644999698,None,,,,,,,,,,,,,,,,,,charter,136,82,sing,new,null,1385.1485435003415,None,1385.1485435003415,None,4,3.5624066004529595,1385.1485435003415,None,3.5624066004529595,1388.7305792998523,None,1389.2335778996348,None,1389.2335778996348,None,f,0.17341590020805597,1389.2335778996348,None,0.17341590020805597,,,90sing,001,2022_Nov_21_1032,ProdSingRedoBetween,2021.2.3,60.03600969109067,
,,,,82,0,82,0,,,,,,,,,,,,,,,,,,,,,,1392.833674799651,None,,,,,,,,,,,,,,,,,,fight,4,83,sing,old,yellow,1389.9416496995836,None,1389.9416496995836,None,6,2.1693476997315884,1389.9416496995836,None,2.1693476997315884,1392.134234099649,None,1392.6360063999891,None,1392.6360063999891,None,r,0.16298289969563484,1392.6360063999891,None,0.16298289969563484,,,90sing,001,2022_Nov_21_1032,ProdSingRedoBetween,2021.2.3,60.03600969109067,
,,,,83,0,83,0,,,,,,,,,,,,,,,,,,,,,,1395.452872599475,None,,,,,,,,,,,,,,,,,,swift,64,84,sing,old,red,1393.3570066997781,None,1393.3570066997781,None,6,1.3378803003579378,1393.3570066997781,None,1.3378803003579378,1394.7200474999845,None,1395.2192498994991,None,1395.2192498994991,None,r,0.21173140034079552,1395.2192498994991,None,0.21173140034079552,,,90sing,001,2022_Nov_21_1032,ProdSingRedoBetween,2021.2.3,60.03600969109067,
,,,,84,0,84,0,,,,,,,,,,,,,,,,,,,,,,1397.5549429999664,None,,,,,,,,,,,,,,,,,,curve,39,85,sing,old,blue,1395.9680059999228,None,1395.9680059999228,None,6,0.950942600145936,1395.9680059999228,None,0.950942600145936,1396.9408296002075,None,1397.4549393001944,None,1397.4549393001944,None,r,0.0802172003313899,1397.4549393001944,None,0.0802172003313899,,,90sing,001,2022_Nov_21_1032,ProdSingRedoBetween,2021.2.3,60.03600969109067,
,,,,85,0,85,0,,,,,,,,,,,,,,,,,,,,,,1400.207700200379,None,,,,,,,,,,,,,,,,,,growth,119,86,sing,new,null,1398.0650319000706,None,1398.0650319000706,None,6,0.8539720000699162,1398.0650319000706,None,0.8539720000699162,1398.9420344000682,None,1399.457042899914,None,1399.457042899914,None,r,0.7339607998728752,1399.457042899914,None,0.7339607998728752,,,90sing,001,2022_Nov_21_1032,ProdSingRedoBetween,2021.2.3,60.03600969109067,
,,,,86,0,86,0,,,,,,,,,,,,,,,,,,,,,,1402.4432846996933,None,,,,,,,,,,,,,,,,,,patient,25,87,sing,old,yellow,1400.7157156001776,None,1400.7157156001776,None,6,0.8593349000439048,1400.7157156001776,None,0.8593349000439048,1401.5988550996408,None,1402.1133730001748,None,1402.1133730001748,None,r,0.30961460061371326,1402.1133730001748,None,0.30961460061371326,,,90sing,001,2022_Nov_21_1032,ProdSingRedoBetween,2021.2.3,60.03600969109067,
,,,,87,0,87,0,,,,,,,,,,,,,,,,,,,,,,1405.9300771001726,None,,,,,,,,,,,,,,,,,,broad,62,88,sing,old,red,1402.9525643996894,None,1402.9525643996894,None,3,2.222399899736047,1402.9525643996894,None,2.222399899736047,1405.1959395995364,None,1405.6995991999283,None,1405.6995991999283,None,n,0.2114655002951622,1405.6995991999283,None,0.2114655002951622,,,90sing,001,2022_Nov_21_1032,ProdSingRedoBetween,2021.2.3,60.03600969109067,
,,,,88,0,88,0,,,,,,,,,,,,,,,,,,,,,,1410.0840520001948,None,,,,,,,,,,,,,,,,,,republic,100,89,sing,new,null,1406.441642199643,None,1406.441642199643,None,2,2.8056322997435927,1406.441642199643,None,2.8056322997435927,1409.2763435002416,None,1409.78389829956,None,1409.78389829956,None,n,0.2711499994620681,1409.78389829956,None,0.2711499994620681,,,90sing,001,2022_Nov_21_1032,ProdSingRedoBetween,2021.2.3,60.03600969109067,
,,,,89,0,89,0,,,,,,,,,,,,,,,,,,,,,,1413.637695999816,None,,,,,,,,,,,,,,,,,,meeting,157,90,sing,new,null,1410.5952498000115,None,1410.5952498000115,None,6,1.8037144001573324,1410.5952498000115,None,1.8037144001573324,1412.4208054002374,None,1412.925723399967,None,1412.925723399967,None,r,0.6892487993463874,1412.925723399967,None,0.6892487993463874,,,90sing,001,2022_Nov_21_1032,ProdSingRedoBetween,2021.2.3,60.03600969109067,
,,,,90,0,90,0,,,,,,,,,,,,,,,,,,,,,,1417.3748140996322,None,,,,,,,,,,,,,,,,,,payment,49,91,sing,old,blue,1414.150912599638,None,1414.150912599638,None,6,2.1680479999631643,1414.150912599638,None,2.1680479999631643,1416.3423523996025,None,1416.8576940000057,None,1416.8576940000057,None,r,0.49331949930638075,1416.8576940000057,None,0.49331949930638075,,,90sing,001,2022_Nov_21_1032,ProdSingRedoBetween,2021.2.3,60.03600969109067,
,,,,91,0,91,0,,,,,,,,,,,,,,,,,,,,,,1420.344365700148,None,,,,,,,,,,,,,,,,,,weather,58,92,sing,old,blue,1417.888979099691,None,1417.888979099691,None,6,1.558194600045681,1417.888979099691,None,1.558194600045681,1419.4852307001129,None,1419.9941959995776,None,1419.9941959995776,None,r,0.32484199944883585,1419.9941959995776,None,0.32484199944883585,,,90sing,001,2022_Nov_21_1032,ProdSingRedoBetween,2021.2.3,60.03600969109067,
,,,,92,0,92,0,,,,,,,,,,,,,,,,,,,,,,1423.013739200309,None,,,,,,,,,,,,,,,,,,strength,175,93,sing,new,null,1420.8507770001888,None,1420.8507770001888,None,6,1.2441724995151162,1420.8507770001888,None,1.2441724995151162,1422.116112199612,None,1422.6343098003417,None,1422.6343098003417,None,r,0.3646342996507883,1422.6343098003417,None,0.3646342996507883,,,90sing,001,2022_Nov_21_1032,ProdSingRedoBetween,2021.2.3,60.03600969109067,
,,,,93,0,93,0,,,,,,,,,,,,,,,,,,,,,,1425.716471100226,None,,,,,,,,,,,,,,,,,,speech,82,94,sing,old,red,1423.5203970996663,None,1423.5203970996663,None,6,1.4225377002730966,1423.5203970996663,None,1.4225377002730966,1424.9691321998835,None,1425.4829548997805,None,1425.4829548997805,None,r,0.20399369951337576,1425.4829548997805,None,0.20399369951337576,,,90sing,001,2022_Nov_21_1032,ProdSingRedoBetween,2021.2.3,60.03600969109067,
,,,,94,0,94,0,,,,,,,,,,,,,,,,,,,,,,1429.9373111994937,None,,,,,,,,,,,,,,,,,,capital,40,95,sing,old,blue,1426.227549799718,None,1426.227549799718,None,5,3.0833281008526683,1426.227549799718,None,3.0833281008526683,1429.3396362997591,None,1429.853930999525,None,1429.853930999525,None,f,0.057029600255191326,1429.853930999525,None,0.057029600255191326,,,90sing,001,2022_Nov_21_1032,ProdSingRedoBetween,2021.2.3,60.03600969109067,
,,,,95,0,95,0,,,,,,,,,,,,,,,,,,,,,,1434.742052800022,None,,,,,,,,,,,,,,,,,,personnel,93,96,sing,new,null,1430.4407719001174,None,1430.4407719001174,None,2,3.382055399939418,1430.4407719001174,None,3.382055399939418,1433.842884699814,None,1434.3622000003234,None,1434.3622000003234,None,n,0.3487893994897604,1434.3622000003234,None,0.3487893994897604,,,90sing,001,2022_Nov_21_1032,ProdSingRedoBetween,2021.2.3,60.03600969109067,
,,,,96,0,96,0,,,,,,,,,,,,,,,,,,,,,,1439.2966181999072,None,,,,,,,,,,,,,,,,,,crisis,152,97,sing,new,null,1435.247561399825,None,1435.247561399825,None,2,3.239376500248909,1435.247561399825,None,3.239376500248909,1438.514876600355,None,1439.0326127000153,None,1439.0326127000153,None,n,0.24630759935826063,1439.0326127000153,None,0.24630759935826063,,,90sing,001,2022_Nov_21_1032,ProdSingRedoBetween,2021.2.3,60.03600969109067,
,,,,97,0,97,0,,,,,,,,,,,,,,,,,,,,,,1445.035750899464,None,,,,,,,,,,,,,,,,,,suggestion,38,98,sing,old,blue,1439.8065734999254,None,1439.8065734999254,None,3,4.256350800395012,1439.8065734999254,None,4.256350800395012,1444.086226399988,None,1444.5910510001704,None,1444.5910510001704,None,n,0.41588309966027737,1444.5910510001704,None,0.41588309966027737,,,90sing,001,2022_Nov_21_1032,ProdSingRedoBetween,2021.2.3,60.03600969109067,
,,,,98,0,98,0,,,,,,,,,,,,,,,,,,,,,,1452.0261126998812,None,,,,,,,,,,,,,,,,,,nation,48,99,sing,old,blue,1445.5451937997714,None,1445.5451937997714,None,4,3.2856630999594927,1445.5451937997714,None,3.2856630999594927,1448.858070800081,None,1449.3734476994723,None,1449.3734476994723,None,n,2.6253925003111362,1449.3734476994723,None,2.6253925003111362,,,90sing,001,2022_Nov_21_1032,ProdSingRedoBetween,2021.2.3,60.03600969109067,
,,,,99,0,99,0,,,,,,,,,,,,,,,,,,,,,,1459.0495432000607,None,,,,,,,,,,,,,,,,,,session,47,100,sing,old,blue,1452.530831599608,None,1452.530831599608,None,5,5.860091099515557,1452.530831599608,None,5.860091099515557,1458.417956199497,None,1458.9328929996118,None,1458.9328929996118,None,f,0.08996670041233301,1458.9328929996118,None,0.08996670041233301,,,90sing,001,2022_Nov_21_1032,ProdSingRedoBetween,2021.2.3,60.03600969109067,
,,,,100,0,100,0,,,,,,,,,,,,,,,,,,,,,,1462.2028356995434,None,,,,,,,,,,,,,,,,,,colonel,86,101,sing,old,red,1459.5571023002267,None,1459.5571023002267,None,6,1.473778000101447,1459.5571023002267,None,1.473778000101447,1461.0527937998995,None,1461.5553085999563,None,1461.5553085999563,None,r,0.6275826999917626,1461.5553085999563,None,0.6275826999917626,,,90sing,001,2022_Nov_21_1032,ProdSingRedoBetween,2021.2.3,60.03600969109067,
,,,,101,0,101,0,,,,,,,,,,,,,,,,,,,,,,1465.0222327001393,None,,,,,,,,,,,,,,,,,,corner,78,102,sing,old,red,1462.7130174003541,None,1462.7130174003541,None,6,1.5978532005101442,1462.7130174003541,None,1.5978532005101442,1464.3383563999087,None,1464.8430300001055,None,1464.8430300001055,None,r,0.15585949923843145,1464.8430300001055,None,0.15585949923843145,,,90sing,001,2022_Nov_21_1032,ProdSingRedoBetween,2021.2.3,60.03600969109067,
,,,,102,0,102,0,,,,,,,,,,,,,,,,,,,,,,1468.5424683000892,None,,,,,,,,,,,,,,,,,,shear,142,103,sing,new,null,1465.5254017999396,None,1465.5254017999396,None,3,2.2334026992321014,1465.5254017999396,None,2.2334026992321014,1467.7762714996934,None,1468.2793416995555,None,1468.2793416995555,None,n,0.23953399993479252,1468.2793416995555,None,0.23953399993479252,,,90sing,001,2022_Nov_21_1032,ProdSingRedoBetween,2021.2.3,60.03600969109067,
,,,,103,0,103,0,,,,,,,,,,,,,,,,,,,,,,1471.5807910999283,None,,,,,,,,,,,,,,,,,,weight,98,104,sing,new,null,1469.0463167000562,None,1469.0463167000562,None,6,1.8965897001326084,1469.0463167000562,None,1.8965897001326084,1470.9746027998626,None,1471.4845970002934,None,1471.4845970002934,None,r,0.07468979991972446,1471.4845970002934,None,0.07468979991972446,,,90sing,001,2022_Nov_21_1032,ProdSingRedoBetween,2021.2.3,60.03600969109067,
,,,,104,0,104,0,,,,,,,,,,,,,,,,,,,,,,1474.9169226000085,None,,,,,,,,,,,,,,,,,,youth,138,105,sing,new,null,1472.0979209998623,None,1472.0979209998623,None,3,1.6529916003346443,1472.0979209998623,None,1.6529916003346443,1473.781737299636,None,1474.2866072999313,None,1474.2866072999313,None,n,0.6003205999732018,1474.2866072999313,None,0.6003205999732018,,,90sing,001,2022_Nov_21_1032,ProdSingRedoBetween,2021.2.3,60.03600969109067,
,,,,105,0,105,0,,,,,,,,,,,,,,,,,,,,,,1479.286454799585,None,,,,,,,,,,,,,,,,,,shape,126,106,sing,new,null,1475.4184641996399,None,1475.4184641996399,None,5,2.172416999936104,1475.4184641996399,None,2.172416999936104,1477.621754899621,None,1478.1355299996212,None,1478.1355299996212,None,f,1.1273162001743913,1478.1355299996212,None,1.1273162001743913,,,90sing,001,2022_Nov_21_1032,ProdSingRedoBetween,2021.2.3,60.03600969109067,
,,,,106,0,106,0,,,,,,,,,,,,,,,,,,,,,,1482.6114485003054,None,,,,,,,,,,,,,,,,,,congress,60,107,sing,old,red,1479.7979445997626,None,1479.7979445997626,None,6,1.944903800264001,1479.7979445997626,None,1.944903800264001,1481.774330499582,None,1482.2948235999793,None,1482.2948235999793,None,r,0.28810929972678423,1482.2948235999793,None,0.28810929972678423,,,90sing,001,2022_Nov_21_1032,ProdSingRedoBetween,2021.2.3,60.03600969109067,
,,,,107,0,107,0,,,,,,,,,,,,,,,,,,,,,,1486.2768224002793,None,,,,,,,,,,,,,,,,,,childhood,124,108,sing,new,null,1483.1282575996593,None,1483.1282575996593,None,5,2.4545440999791026,1483.1282575996593,None,2.4545440999791026,1485.6118163997307,None,1486.1311218999326,None,1486.1311218999326,None,f,0.1157511007040739,1486.1311218999326,None,0.1157511007040739,,,90sing,001,2022_Nov_21_1032,ProdSingRedoBetween,2021.2.3,60.03600969109067,
,,,,108,0,108,0,,,,,,,,,,,,,,,,,,,,,,1489.9819086994976,None,,,,,,,,,,,,,,,,,,minute,5,109,sing,old,yellow,1486.785460099578,None,1486.785460099578,None,4,2.5496070003136992,1486.785460099578,None,2.5496070003136992,1489.3709298996255,None,1489.8803957002237,None,1489.8803957002237,None,f,0.07853149995207787,1489.8803957002237,None,0.07853149995207787,,,90sing,001,2022_Nov_21_1032,ProdSingRedoBetween,2021.2.3,60.03600969109067,
,,,,109,0,109,0,,,,,,,,,,,,,,,,,,,,,,1493.289099900052,None,,,,,,,,,,,,,,,,,,range,43,110,sing,old,blue,1490.487188000232,None,1490.487188000232,None,6,1.8876628000289202,1490.487188000232,None,1.8876628000289202,1492.404598100111,None,1492.9215786997229,None,1492.9215786997229,None,r,0.3415198000147939,1492.9215786997229,None,0.3415198000147939,,,90sing,001,2022_Nov_21_1032,ProdSingRedoBetween,2021.2.3,60.03600969109067,
,,,,110,0,110,0,,,,,,,,,,,,,,,,,,,,,,1496.9707265002653,None,,,,,,,,,,,,,,,,,,orchestra,129,111,sing,new,null,1493.8074610996991,None,1493.8074610996991,None,1,1.9675114005804062,1493.8074610996991,None,1.9675114005804062,1495.811398900114,None,1496.3202919997275,None,1496.3202919997275,None,n,0.6225319998338819,1496.3202919997275,None,0.6225319998338819,,,90sing,001,2022_Nov_21_1032,ProdSingRedoBetween,2021.2.3,60.03600969109067,
,,,,111,0,111,0,,,,,,,,,,,,,,,,,,,,,,1500.958532399498,None,,,,,,,,,,,,,,,,,,voice,71,112,sing,old,red,1497.489763200283,None,1497.489763200283,None,4,2.7810328006744385,1497.489763200283,None,2.7810328006744385,1500.2923718998209,None,1500.814286899753,None,1500.814286899753,None,f,0.11279659997671843,1500.814286899753,None,0.11279659997671843,,,90sing,001,2022_Nov_21_1032,ProdSingRedoBetween,2021.2.3,60.03600969109067,
,,,,112,0,112,0,,,,,,,,,,,,,,,,,,,,,,1504.244663800113,None,,,,,,,,,,,,,,,,,,emergency,34,113,sing,old,blue,1501.462198799476,None,1501.462198799476,None,6,1.8005882995203137,1501.462198799476,None,1.8005882995203137,1503.2965502999723,None,1503.8109438996762,None,1503.8109438996762,None,r,0.41201679967343807,1503.8109438996762,None,0.41201679967343807,,,90sing,001,2022_Nov_21_1032,ProdSingRedoBetween,2021.2.3,60.03600969109067,
,,,,113,0,113,0,,,,,,,,,,,,,,,,,,,,,,1507.898346199654,None,,,,,,,,,,,,,,,,,,second,111,114,sing,new,null,1504.754578200169,None,1504.754578200169,None,5,2.476229500025511,1504.754578200169,None,2.476229500025511,1507.2506860001013,None,1507.7647973997518,None,1507.7647973997518,None,f,0.10604740027338266,1507.7647973997518,None,0.10604740027338266,,,90sing,001,2022_Nov_21_1032,ProdSingRedoBetween,2021.2.3,60.03600969109067,
,,,,114,0,114,0,,,,,,,,,,,,,,,,,,,,,,1512.8365850001574,None,,,,,,,,,,,,,,,,,,individual,158,115,sing,new,null,1508.4033739995211,None,1508.4033739995211,None,3,3.627358299680054,1508.4033739995211,None,3.627358299680054,1512.0624938001856,None,1512.5697892000899,None,1512.5697892000899,None,n,0.23702549934387207,1512.5697892000899,None,0.23702549934387207,,,90sing,001,2022_Nov_21_1032,ProdSingRedoBetween,2021.2.3,60.03600969109067,
,,,,115,0,115,0,,,,,,,,,,,,,,,,,,,,,,1519.109555900097,None,,,,,,,,,,,,,,,,,,trail,147,116,sing,new,null,1513.349093399942,None,1513.349093399942,None,3,5.001754900440574,1513.349093399942,None,5.001754900440574,1518.3843360003084,None,1518.892803600058,None,1518.892803600058,None,n,0.19417709950357676,1518.892803600058,None,0.19417709950357676,,,90sing,001,2022_Nov_21_1032,ProdSingRedoBetween,2021.2.3,60.03600969109067,
,,,,116,0,116,0,,,,,,,,,,,,,,,,,,,,,,1523.230366700329,None,,,,,,,,,,,,,,,,,,thick,97,117,sing,new,null,1519.6159474002197,None,1519.6159474002197,None,4,2.4307786002755165,1519.6159474002197,None,2.4307786002755165,1522.0655030002818,None,1522.5798346996307,None,1522.5798346996307,None,f,0.6269592996686697,1522.5798346996307,None,0.6269592996686697,,,90sing,001,2022_Nov_21_1032,ProdSingRedoBetween,2021.2.3,60.03600969109067,
,,,,117,0,117,0,,,,,,,,,,,,,,,,,,,,,,1526.7171130999923,None,,,,,,,,,,,,,,,,,,vision,121,118,sing,new,null,1523.7428808994591,None,1523.7428808994591,None,6,2.11988199967891,1523.7428808994591,None,2.11988199967891,1525.8857321003452,None,1526.4038701001555,None,1526.4038701001555,None,r,0.2908941004425287,1526.4038701001555,None,0.2908941004425287,,,90sing,001,2022_Nov_21_1032,ProdSingRedoBetween,2021.2.3,60.03600969109067,
,,,,118,0,118,0,,,,,,,,,,,,,,,,,,,,,,1531.022499599494,None,,,,,,,,,,,,,,,,,,watch,122,119,sing,new,null,1527.2257366003469,None,1527.2257366003469,None,3,2.5810834001749754,1527.2257366003469,None,2.5810834001749754,1529.8419412998483,None,1530.3595525994897,None,1530.3595525994897,None,n,0.6392529001459479,1530.3595525994897,None,0.6392529001459479,,,90sing,001,2022_Nov_21_1032,ProdSingRedoBetween,2021.2.3,60.03600969109067,
,,,,119,0,119,0,,,,,,,,,,,,,,,,,,,,,,1534.626125300303,None,,,,,,,,,,,,,,,,,,grade,22,120,sing,old,yellow,1531.524022700265,None,1531.524022700265,None,4,2.4187369998544455,1531.524022700265,None,2.4187369998544455,1533.9587284997106,None,1534.4643700001761,None,1534.4643700001761,None,f,0.13442850019782782,1534.4643700001761,None,0.13442850019782782,,,90sing,001,2022_Nov_21_1032,ProdSingRedoBetween,2021.2.3,60.03600969109067,
,,,,120,0,120,0,,,,,,,,,,,,,,,,,,,,,,1539.479870500043,None,,,,,,,,,,,,,,,,,,present,75,121,sing,old,red,1535.1312135001644,None,1535.1312135001644,None,4,3.6515373000875115,1535.1312135001644,None,3.6515373000875115,1538.815245599486,None,1539.335194800049,None,1539.335194800049,None,f,0.1196272000670433,1539.335194800049,None,0.1196272000670433,,,90sing,001,2022_Nov_21_1032,ProdSingRedoBetween,2021.2.3,60.03600969109067,
,,,,121,0,121,0,,,,,,,,,,,,,,,,,,,,,,1543.3348946003243,None,,,,,,,,,,,,,,,,,,prime,148,122,sing,new,null,1539.9887148002163,None,1539.9887148002163,None,1,2.194043000228703,1539.9887148002163,None,2.194043000228703,1542.2004653001204,None,1542.7006740998477,None,1542.7006740998477,None,n,0.61813909932971,1542.7006740998477,None,0.61813909932971,,,90sing,001,2022_Nov_21_1032,ProdSingRedoBetween,2021.2.3,60.03600969109067,
,,,,122,0,122,0,,,,,,,,,,,,,,,,,,,,,,1546.960586199537,None,,,,,,,,,,,,,,,,,,engineer,120,123,sing,new,null,1543.8362371996045,None,1543.8362371996045,None,6,2.3864985993131995,1543.8362371996045,None,2.3864985993131995,1546.2546920999885,None,1546.7593636997044,None,1546.7593636997044,None,r,0.17544469982385635,1546.7593636997044,None,0.17544469982385635,,,90sing,001,2022_Nov_21_1032,ProdSingRedoBetween,2021.2.3,60.03600969109067,
,,,,123,0,123,0,,,,,,,,,,,,,,,,,,,,,,1550.2239955998957,None,,,,,,,,,,,,,,,,,,south,87,124,sing,old,red,1547.4786727000028,None,1547.4786727000028,None,2,1.9840158997103572,1547.4786727000028,None,1.9840158997103572,1549.491772999987,None,1550.0133971003816,None,1550.0133971003816,None,n,0.1933208992704749,1550.0133971003816,None,0.1933208992704749,,,90sing,001,2022_Nov_21_1032,ProdSingRedoBetween,2021.2.3,60.03600969109067,
,,,,124,0,124,0,,,,,,,,,,,,,,,,,,,,,,1554.9953731000423,None,,,,,,,,,,,,,,,,,,birth,174,125,sing,new,null,1550.7270860001445,None,1550.7270860001445,None,4,3.5039098002016544,1550.7270860001445,None,3.5039098002016544,1554.2684581996873,None,1554.7784030996263,None,1554.7784030996263,None,f,0.1963182995095849,1554.7784030996263,None,0.1963182995095849,,,90sing,001,2022_Nov_21_1032,ProdSingRedoBetween,2021.2.3,60.03600969109067,
,,,,125,0,125,0,,,,,,,,,,,,,,,,,,,,,,1558.1484831999987,None,,,,,,,,,,,,,,,,,,shock,24,126,sing,old,yellow,1555.5072950003669,None,1555.5072950003669,None,5,2.0115320002660155,1555.5072950003669,None,2.0115320002660155,1557.5545030003414,None,1558.0678872000426,None,1558.0678872000426,None,f,0.05890549998730421,1558.0678872000426,None,0.05890549998730421,,,90sing,001,2022_Nov_21_1032,ProdSingRedoBetween,2021.2.3,60.03600969109067,
,,,,126,0,126,0,,,,,,,,,,,,,,,,,,,,,,1561.169170100242,None,,,,,,,,,,,,,,,,,,position,161,127,sing,new,null,1558.6597873996943,None,1558.6597873996943,None,5,1.8109409995377064,1558.6597873996943,None,1.8109409995377064,1560.5026791999117,None,1561.0315127000213,None,1561.0315127000213,None,f,0.11128740012645721,1561.0315127000213,None,0.11128740012645721,,,90sing,001,2022_Nov_21_1032,ProdSingRedoBetween,2021.2.3,60.03600969109067,
,,,,127,0,127,0,,,,,,,,,,,,,,,,,,,,,,1564.3213112000376,None,,,,,,,,,,,,,,,,,,candidate,85,128,sing,old,red,1561.6737590003759,None,1561.6737590003759,None,6,1.6850522002205253,1561.6737590003759,None,1.6850522002205253,1563.3925519995391,None,1563.9040075000376,None,1563.9040075000376,None,r,0.3906771996989846,1563.9040075000376,None,0.3906771996989846,,,90sing,001,2022_Nov_21_1032,ProdSingRedoBetween,2021.2.3,60.03600969109067,
,,,,128,0,128,0,,,,,,,,,,,,,,,,,,,,,,1566.9596199002117,None,,,,,,,,,,,,,,,,,,sight,17,129,sing,old,yellow,1564.8377331001684,None,1564.8377331001684,None,6,1.4409938994795084,1564.8377331001684,None,1.4409938994795084,1566.310755699873,None,1566.8293524999171,None,1566.8293524999171,None,r,0.09756340086460114,1566.8293524999171,None,0.09756340086460114,,,90sing,001,2022_Nov_21_1032,ProdSingRedoBetween,2021.2.3,60.03600969109067,
,,,,129,0,129,0,,,,,,,,,,,,,,,,,,,,,,1570.6610396001488,None,,,,,,,,,,,,,,,,,,style,149,130,sing,new,null,1567.4809181997553,None,1567.4809181997553,None,5,2.549835200421512,1567.4809181997553,None,2.549835200421512,1570.066619399935,None,1570.5813180003315,None,1570.5813180003315,None,f,0.057397499680519104,1570.5813180003315,None,0.057397499680519104,,,90sing,001,2022_Nov_21_1032,ProdSingRedoBetween,2021.2.3,60.03600969109067,
,,,,130,0,130,0,,,,,,,,,,,,,,,,,,,,,,1574.3427681997418,None,,,,,,,,,,,,,,,,,,burden,76,131,sing,old,red,1571.1616275999695,None,1571.1616275999695,None,5,2.244982300326228,1571.1616275999695,None,2.244982300326228,1573.4312509000301,None,1573.9307004995644,None,1573.9307004995644,None,f,0.3799037002027035,1573.9307004995644,None,0.3799037002027035,,,90sing,001,2022_Nov_21_1032,ProdSingRedoBetween,2021.2.3,60.03600969109067,
,,,,131,0,131,0,,,,,,,,,,,,,,,,,,,,,,1576.900485499762,None,,,,,,,,,,,,,,,,,,turkey,63,132,sing,old,red,1574.848463700153,None,1574.848463700153,None,6,1.2942160004749894,1574.848463700153,None,1.2942160004749894,1576.169260200113,None,1576.689878899604,None,1576.689878899604,None,r,0.18076290003955364,1576.689878899604,None,0.18076290003955364,,,90sing,001,2022_Nov_21_1032,ProdSingRedoBetween,2021.2.3,60.03600969109067,
,,,,132,0,132,0,,,,,,,,,,,,,,,,,,,,,,1580.438659899868,None,,,,,,,,,,,,,,,,,,brief,116,133,sing,new,null,1577.4170500999317,None,1577.4170500999317,None,6,2.397624099627137,1577.4170500999317,None,2.397624099627137,1579.8380346000195,None,1580.3462795997038,None,1580.3462795997038,None,r,0.0684409998357296,1580.3462795997038,None,0.0684409998357296,,,90sing,001,2022_Nov_21_1032,ProdSingRedoBetween,2021.2.3,60.03600969109067,
,,,,133,0,133,0,,,,,,,,,,,,,,,,,,,,,,1583.5571317998692,None,,,,,,,,,,,,,,,,,,color,103,134,sing,new,null,1580.9393456000835,None,1580.9393456000835,None,4,1.843380399979651,1580.9393456000835,None,1.843380399979651,1582.8127061994746,None,1583.3236916996539,None,1583.3236916996539,None,f,0.21104020066559315,1583.3236916996539,None,0.21104020066559315,,,90sing,001,2022_Nov_21_1032,ProdSingRedoBetween,2021.2.3,60.03600969109067,
,,,,134,0,134,0,,,,,,,,,,,,,,,,,,,,,,1587.4276497000828,None,,,,,,,,,,,,,,,,,,atmosphere,135,135,sing,new,null,1584.0607779994607,None,1584.0607779994607,None,1,2.0578994005918503,1584.0607779994607,None,2.0578994005918503,1586.1445674998686,None,1586.6605626000091,None,1586.6605626000091,None,n,0.7381766997277737,1586.6605626000091,None,0.7381766997277737,,,90sing,001,2022_Nov_21_1032,ProdSingRedoBetween,2021.2.3,60.03600969109067,
,,,,135,0,135,0,,,,,,,,,,,,,,,,,,,,,,1591.7819783994928,None,,,,,,,,,,,,,,,,,,religion,19,136,sing,old,yellow,1587.9308848995715,None,1587.9308848995715,None,4,3.0997434994205832,1587.9308848995715,None,3.0997434994205832,1591.0491156000644,None,1591.5486399997026,None,1591.5486399997026,None,f,0.21013139933347702,1591.5486399997026,None,0.21013139933347702,,,90sing,001,2022_Nov_21_1032,ProdSingRedoBetween,2021.2.3,60.03600969109067,
,,,,136,0,136,0,,,,,,,,,,,,,,,,,,,,,,1596.0529023995623,None,,,,,,,,,,,,,,,,,,balance,127,137,sing,new,null,1592.2965011000633,None,1592.2965011000633,None,5,2.286228100769222,1592.2965011000633,None,2.286228100769222,1594.6013577003032,None,1595.107035299763,None,1595.107035299763,None,f,0.9236410995945334,1595.107035299763,None,0.9236410995945334,,,90sing,001,2022_Nov_21_1032,ProdSingRedoBetween,2021.2.3,60.03600969109067,
,,,,137,0,137,0,,,,,,,,,,,,,,,,,,,,,,1600.7910601003096,None,,,,,,,,,,,,,,,,,,citizen,164,138,sing,new,null,1596.5637408997864,None,1596.5637408997864,None,3,3.3950364999473095,1596.5637408997864,None,3.3950364999473095,1599.9984865002334,None,1600.5093217995018,None,1600.5093217995018,None,n,0.2573218997567892,1600.5093217995018,None,0.2573218997567892,,,90sing,001,2022_Nov_21_1032,ProdSingRedoBetween,2021.2.3,60.03600969109067,
,,,,138,0,138,0,,,,,,,,,,,,,,,,,,,,,,1605.6027713995427,None,,,,,,,,,,,,,,,,,,history,128,139,sing,new,null,1601.2975962003693,None,1601.2975962003693,None,4,3.716953200288117,1601.2975962003693,None,3.716953200288117,1605.0506218001246,None,1605.5625395001844,None,1605.5625395001844,None,f,0.012243499979376793,1605.5625395001844,None,0.012243499979376793,,,90sing,001,2022_Nov_21_1032,ProdSingRedoBetween,2021.2.3,60.03600969109067,
,,,,139,0,139,0,,,,,,,,,,,,,,,,,,,,,,1608.8990420000628,None,,,,,,,,,,,,,,,,,,plane,45,140,sing,old,blue,1606.1130620995536,None,1606.1130620995536,None,6,1.8856950998306274,1606.1130620995536,None,1.8856950998306274,1608.0200634002686,None,1608.5319349998608,None,1608.5319349998608,None,r,0.33872990030795336,1608.5319349998608,None,0.33872990030795336,,,90sing,001,2022_Nov_21_1032,ProdSingRedoBetween,2021.2.3,60.03600969109067,
,,,,140,0,140,0,,,,,,,,,,,,,,,,,,,,,,1613.0883253999054,None,,,,,,,,,,,,,,,,,,drama,112,141,sing,new,null,1609.404490900226,None,1609.404490900226,None,3,2.9943332001566887,1609.404490900226,None,2.9943332001566887,1612.4242120003328,None,1612.940977299586,None,1612.940977299586,None,n,0.12181080039590597,1612.940977299586,None,0.12181080039590597,,,90sing,001,2022_Nov_21_1032,ProdSingRedoBetween,2021.2.3,60.03600969109067,
,,,,141,0,141,0,,,,,,,,,,,,,,,,,,,,,,1616.4065760998055,None,,,,,,,,,,,,,,,,,,provision,176,142,sing,new,null,1613.6151540996507,None,1613.6151540996507,None,1,1.831444799900055,1613.6151540996507,None,1.831444799900055,1615.4753262000158,None,1615.9896265994757,None,1615.9896265994757,None,n,0.4008924998342991,1615.9896265994757,None,0.4008924998342991,,,90sing,001,2022_Nov_21_1032,ProdSingRedoBetween,2021.2.3,60.03600969109067,
,,,,142,0,142,0,,,,,,,,,,,,,,,,,,,,,,1620.3604715000838,None,,,,,,,,,,,,,,,,,,running,6,143,sing,old,yellow,1616.9071540003642,None,1616.9071540003642,None,6,1.3474789997562766,1616.9071540003642,None,1.3474789997562766,1618.2751658996567,None,1618.7805584995076,None,1618.7805584995076,None,r,1.5540013993158937,1618.7805584995076,None,1.5540013993158937,,,90sing,001,2022_Nov_21_1032,ProdSingRedoBetween,2021.2.3,60.03600969109067,
,,,,143,0,143,0,,,,,,,,,,,,,,,,,,,,,,1624.9482076000422,None,,,,,,,,,,,,,,,,,,discussion,66,144,sing,old,red,1620.8731832001358,None,1620.8731832001358,None,5,2.5334067000076175,1620.8731832001358,None,2.5334067000076175,1623.4317862000316,None,1623.9383352994919,None,1623.9383352994919,None,f,0.9882476003840566,1623.9383352994919,None,0.9882476003840566,,,90sing,001,2022_Nov_21_1032,ProdSingRedoBetween,2021.2.3,60.03600969109067,
,,,,144,0,144,0,,,,,,,,,,,,,,,,,,,,,,1630.1703155003488,None,,,,,,,,,,,,,,,,,,interior,131,145,sing,new,null,1625.4574402002618,None,1625.4574402002618,None,4,4.069202199578285,1625.4574402002618,None,4.069202199578285,1629.5530139999464,None,1630.0564157003537,None,1630.0564157003537,None,f,0.09417960047721863,1630.0564157003537,None,0.09417960047721863,,,90sing,001,2022_Nov_21_1032,ProdSingRedoBetween,2021.2.3,60.03600969109067,
,,,,145,0,145,0,,,,,,,,,,,,,,,,,,,,,,1633.1900861002505,None,,,,,,,,,,,,,,,,,,science,7,146,sing,old,yellow,1630.681601700373,None,1630.681601700373,None,5,1.8930523004382849,1630.681601700373,None,1.8930523004382849,1632.6072527999058,None,1633.1128652999178,None,1633.1128652999178,None,f,0.045776800252497196,1633.1128652999178,None,0.045776800252497196,,,90sing,001,2022_Nov_21_1032,ProdSingRedoBetween,2021.2.3,60.03600969109067,
,,,,146,0,146,0,,,,,,,,,,,,,,,,,,,,,,1637.3974187001586,None,,,,,,,,,,,,,,,,,,scale,23,147,sing,old,yellow,1633.697987199761,None,1633.697987199761,None,6,2.95659579988569,1633.697987199761,None,2.95659579988569,1636.683536999859,None,1637.193783099763,None,1637.193783099763,None,r,0.18081390019506216,1637.193783099763,None,0.18081390019506216,,,90sing,001,2022_Nov_21_1032,ProdSingRedoBetween,2021.2.3,60.03600969109067,
,,,,147,0,147,0,,,,,,,,,,,,,,,,,,,,,,1640.9976103994995,None,,,,,,,,,,,,,,,,,,problem,165,148,sing,new,null,1637.91304629948,None,1637.91304629948,None,5,2.4135201992467046,1637.91304629948,None,2.4135201992467046,1640.3487400999293,None,1640.8545409003273,None,1640.8545409003273,None,f,0.11208639945834875,1640.8545409003273,None,0.11208639945834875,,,90sing,001,2022_Nov_21_1032,ProdSingRedoBetween,2021.2.3,60.03600969109067,
,,,,148,0,148,0,,,,,,,,,,,,,,,,,,,,,,1644.2358606997877,None,,,,,,,,,,,,,,,,,,employment,51,149,sing,old,blue,1641.5027431994677,None,1641.5027431994677,None,6,2.00786819960922,1641.5027431994677,None,2.00786819960922,1643.54203459993,None,1644.0602780999616,None,1644.0602780999616,None,r,0.15441100019961596,1644.0602780999616,None,0.15441100019961596,,,90sing,001,2022_Nov_21_1032,ProdSingRedoBetween,2021.2.3,60.03600969109067,
,,,,149,0,149,0,,,,,,,,,,,,,,,,,,,,,,1647.6377199999988,None,,,,,,,,,,,,,,,,,,blind,28,150,sing,old,yellow,1644.7551688002422,None,1644.7551688002422,None,3,2.1473293006420135,1644.7551688002422,None,2.1473293006420135,1646.9215454002842,None,1647.428479200229,None,1647.428479200229,None,n,0.17815260030329227,1647.428479200229,None,0.17815260030329227,,,90sing,001,2022_Nov_21_1032,ProdSingRedoBetween,2021.2.3,60.03600969109067,
,,,,150,0,150,0,,,,,,,,,,,,,,,,,,,,,,1654.0772749995813,None,,,,,,,,,,,,,,,,,,industry,84,151,sing,old,red,1648.1531849997118,None,1648.1531849997118,None,4,4.397381900809705,1648.1531849997118,None,4.397381900809705,1652.5802135001868,None,1653.1005007997155,None,1653.1005007997155,None,f,0.9541462995111942,1653.1005007997155,None,0.9541462995111942,,,90sing,001,2022_Nov_21_1032,ProdSingRedoBetween,2021.2.3,60.03600969109067,
,,,,151,0,151,0,,,,,,,,,,,,,,,,,,,,,,1656.6967871002853,None,,,,,,,,,,,,,,,,,,order,109,152,sing,new,null,1654.5806590998545,None,1654.5806590998545,None,5,1.4738902999088168,1654.5806590998545,None,1.4738902999088168,1656.081215299666,None,1656.5968177998438,None,1656.5968177998438,None,f,0.08163599949330091,1656.5968177998438,None,0.08163599949330091,,,90sing,001,2022_Nov_21_1032,ProdSingRedoBetween,2021.2.3,60.03600969109067,
,,,,152,0,152,0,,,,,,,,,,,,,,,,,,,,,,1660.3170366995037,None,,,,,,,,,,,,,,,,,,accident,133,153,sing,new,null,1657.2038206998259,None,1657.2038206998259,None,5,2.1386990007013083,1657.2038206998259,None,2.1386990007013083,1659.3687300002202,None,1659.886019299738,None,1659.886019299738,None,f,0.40047459956258535,1659.886019299738,None,0.40047459956258535,,,90sing,001,2022_Nov_21_1032,ProdSingRedoBetween,2021.2.3,60.03600969109067,
,,,,153,0,153,0,,,,,,,,,,,,,,,,,,,,,,1663.5202267002314,None,,,,,,,,,,,,,,,,,,spoke,92,154,sing,new,null,1660.829843699932,None,1660.829843699932,None,3,1.87271189969033,1660.829843699932,None,1.87271189969033,1662.723764100112,None,1663.2367516001686,None,1663.2367516001686,None,n,0.2578366007655859,1663.2367516001686,None,0.2578366007655859,,,90sing,001,2022_Nov_21_1032,ProdSingRedoBetween,2021.2.3,60.03600969109067,
,,,,154,0,154,0,,,,,,,,,,,,,,,,,,,,,,1667.6589518003166,None,,,,,,,,,,,,,,,,,,month,166,155,sing,new,null,1664.0389085002244,None,1664.0389085002244,None,3,2.8235183004289865,1664.0389085002244,None,2.8235183004289865,1666.891681900248,None,1667.3958604000509,None,1667.3958604000509,None,n,0.2347178002819419,1667.3958604000509,None,0.2347178002819419,,,90sing,001,2022_Nov_21_1032,ProdSingRedoBetween,2021.2.3,60.03600969109067,
,,,,155,0,155,0,,,,,,,,,,,,,,,,,,,,,,1670.3131622001529,None,,,,,,,,,,,,,,,,,,agreement,141,156,sing,new,null,1668.1624501999468,None,1668.1624501999468,None,5,1.5080699995160103,1668.1624501999468,None,1.5080699995160103,1669.694244899787,None,1670.19931229949,None,1670.19931229949,None,f,0.0952564999461174,1670.19931229949,None,0.0952564999461174,,,90sing,001,2022_Nov_21_1032,ProdSingRedoBetween,2021.2.3,60.03600969109067,
,,,,156,0,156,0,,,,,,,,,,,,,,,,,,,,,,1675.5504684001207,None,,,,,,,,,,,,,,,,,,equipment,94,157,sing,new,null,1670.830484399572,None,1670.830484399572,None,3,3.8240517005324364,1670.830484399572,None,3.8240517005324364,1674.688584599644,None,1675.1986053995788,None,1675.1986053995788,None,n,0.3202227000147104,1675.1986053995788,None,0.3202227000147104,,,90sing,001,2022_Nov_21_1032,ProdSingRedoBetween,2021.2.3,60.03600969109067,
,,,,157,0,157,0,,,,,,,,,,,,,,,,,,,,,,1678.6186717003584,None,,,,,,,,,,,,,,,,,,story,57,158,sing,old,blue,1676.0670175002888,None,1676.0670175002888,None,4,1.7955620000138879,1676.0670175002888,None,1.7955620000138879,1677.8903000000864,None,1678.401911799796,None,1678.401911799796,None,f,0.18861979991197586,1678.401911799796,None,0.18861979991197586,,,90sing,001,2022_Nov_21_1032,ProdSingRedoBetween,2021.2.3,60.03600969109067,
,,,,158,0,158,0,,,,,,,,,,,,,,,,,,,,,,1682.0383094996214,None,,,,,,,,,,,,,,,,,,answer,56,159,sing,old,blue,1679.1327326996252,None,1679.1327326996252,None,6,2.2657971996814013,1679.1327326996252,None,2.2657971996814013,1681.4278891999274,None,1681.9404670996591,None,1681.9404670996591,None,r,0.07410140056163073,1681.9404670996591,None,0.07410140056163073,,,90sing,001,2022_Nov_21_1032,ProdSingRedoBetween,2021.2.3,60.03600969109067,
,,,,159,0,159,0,,,,,,,,,,,,,,,,,,,,,,1685.1436999998987,None,,,,,,,,,,,,,,,,,,question,59,160,sing,old,yellow,1682.553836999461,None,1682.553836999461,None,6,1.8765268996357918,1682.553836999461,None,1.8765268996357918,1684.4657177999616,None,1684.9820993002504,None,1684.9820993002504,None,r,0.13634580001235008,1684.9820993002504,None,0.13634580001235008,,,90sing,001,2022_Nov_21_1032,ProdSingRedoBetween,2021.2.3,60.03600969109067,
,,,,160,0,160,0,,,,,,,,,,,,,,,,,,,,,,1688.4981647999957,None,,,,,,,,,,,,,,,,,,article,8,161,sing,old,yellow,1685.6591843003407,None,1685.6591843003407,None,3,1.7393469996750355,1685.6591843003407,None,1.7393469996750355,1687.4274019002914,None,1687.9280303996056,None,1687.9280303996056,None,n,0.5426524002104998,1687.9280303996056,None,0.5426524002104998,,,90sing,001,2022_Nov_21_1032,ProdSingRedoBetween,2021.2.3,60.03600969109067,
,,,,161,0,161,0,,,,,,,,,,,,,,,,,,,,,,1691.6655235001817,None,,,,,,,,,,,,,,,,,,tennis,80,162,sing,old,red,1689.0282172998413,None,1689.0282172998413,None,6,1.2982669994235039,1689.0282172998413,None,1.2982669994235039,1690.3485719002783,None,1690.8642248995602,None,1690.8642248995602,None,r,0.7822062997147441,1690.8642248995602,None,0.7822062997147441,,,90sing,001,2022_Nov_21_1032,ProdSingRedoBetween,2021.2.3,60.03600969109067,
,,,,162,0,162,0,,,,,,,,,,,,,,,,,,,,,,1696.3193049998954,None,,,,,,,,,,,,,,,,,,match,139,163,sing,new,null,1692.167361999862,None,1692.167361999862,None,5,2.5350007005035877,1692.167361999862,None,2.5350007005035877,1694.725072699599,None,1695.2463346999139,None,1695.2463346999139,None,f,1.0562616996467113,1695.2463346999139,None,1.0562616996467113,,,90sing,001,2022_Nov_21_1032,ProdSingRedoBetween,2021.2.3,60.03600969109067,
,,,,163,0,163,0,,,,,,,,,,,,,,,,,,,,,,1699.8928060000762,None,,,,,,,,,,,,,,,,,,smell,113,164,sing,new,null,1696.8310308996588,None,1696.8310308996588,None,3,1.9193601999431849,1696.8310308996588,None,1.9193601999431849,1698.7724059000611,None,1699.2723319996148,None,1699.2723319996148,None,n,0.5980282006785274,1699.2723319996148,None,0.5980282006785274,,,90sing,001,2022_Nov_21_1032,ProdSingRedoBetween,2021.2.3,60.03600969109067,
,,,,164,0,164,0,,,,,,,,,,,,,,,,,,,,,,1703.509832999669,None,,,,,,,,,,,,,,,,,,division,178,165,sing,new,null,1700.415987599641,None,1700.415987599641,None,4,2.078461700119078,1700.415987599641,None,2.078461700119078,1702.538108699955,None,1703.0500547001138,None,1703.0500547001138,None,f,0.4443499995395541,1703.0500547001138,None,0.4443499995395541,,,90sing,001,2022_Nov_21_1032,ProdSingRedoBetween,2021.2.3,60.03600969109067,
,,,,165,0,165,0,,,,,,,,,,,,,,,,,,,,,,1707.1804165998474,None,,,,,,,,,,,,,,,,,,volume,14,166,sing,old,yellow,1704.010470699519,None,1704.010470699519,None,5,1.8839525002986193,1704.010470699519,None,1.8839525002986193,1705.9186594001949,None,1706.4295330001041,None,1706.4295330001041,None,f,0.720893899910152,1706.4295330001041,None,0.720893899910152,,,90sing,001,2022_Nov_21_1032,ProdSingRedoBetween,2021.2.3,60.03600969109067,
,,,,166,0,166,0,,,,,,,,,,,,,,,,,,,,,,1711.6546422000974,None,,,,,,,,,,,,,,,,,,platform,102,167,sing,new,null,1707.6811653003097,None,1707.6811653003097,None,4,2.829492099583149,1707.6811653003097,None,2.829492099583149,1710.53540099971,None,1711.051037799567,None,1711.051037799567,None,f,0.5715640997514129,1711.051037799567,None,0.5715640997514129,,,90sing,001,2022_Nov_21_1032,ProdSingRedoBetween,2021.2.3,60.03600969109067,
,,,,167,0,167,0,,,,,,,,,,,,,,,,,,,,,,1715.3719264995307,None,,,,,,,,,,,,,,,,,,carry,41,168,sing,old,blue,1712.168850099668,None,1712.168850099668,None,5,2.0617718007415533,1712.168850099668,None,2.0617718007415533,1714.25550249964,None,1714.7568197995424,None,1714.7568197995424,None,f,0.5937262997031212,1714.7568197995424,None,0.5937262997031212,,,90sing,001,2022_Nov_21_1032,ProdSingRedoBetween,2021.2.3,60.03600969109067,
,,,,168,0,168,0,,,,,,,,,,,,,,,,,,,,,,1728.7852467997,None,,,,,,,,,,,,,,,,,,search,13,169,sing,old,yellow,1715.8783408999443,None,1715.8783408999443,None,5,3.752140099182725,1715.8783408999443,None,3.752140099182725,1719.66066709999,None,1720.1602569995448,None,1720.1602569995448,None,f,8.59818010032177,1720.1602569995448,None,8.59818010032177,,,90sing,001,2022_Nov_21_1032,ProdSingRedoBetween,2021.2.3,60.03600969109067,
,,,,169,0,169,0,,,,,,,,,,,,,,,,,,,,,,1732.3928030002862,None,,,,,,,,,,,,,,,,,,crime,146,170,sing,new,null,1729.2924838997424,None,1729.2924838997424,None,5,1.9540659002959728,1729.2924838997424,None,1.9540659002959728,1731.2781376000494,None,1731.7908455003053,None,1731.7908455003053,None,f,0.5757705997675657,1731.7908455003053,None,0.5757705997675657,,,90sing,001,2022_Nov_21_1032,ProdSingRedoBetween,2021.2.3,60.03600969109067,
,,,,170,0,170,0,,,,,,,,,,,,,,,,,,,,,,1736.3779245996848,None,,,,,,,,,,,,,,,,,,cousin,168,171,sing,new,null,1732.9150727996603,None,1732.9150727996603,None,4,2.2993088997900486,1732.9150727996603,None,2.2993088997900486,1735.2446488002315,None,1735.7611280996352,None,1735.7611280996352,None,f,0.5973608996719122,1735.7611280996352,None,0.5973608996719122,,,90sing,001,2022_Nov_21_1032,ProdSingRedoBetween,2021.2.3,60.03600969109067,
,,,,171,0,171,0,,,,,,,,,,,,,,,,,,,,,,1739.4813288999721,None,,,,,,,,,,,,,,,,,,right,169,172,sing,new,null,1736.899074899964,None,1736.899074899964,None,4,1.6113097993656993,1736.899074899964,None,1.6113097993656993,1738.5329299997538,None,1739.0507964994758,None,1739.0507964994758,None,f,0.40364119969308376,1739.0507964994758,None,0.40364119969308376,,,90sing,001,2022_Nov_21_1032,ProdSingRedoBetween,2021.2.3,60.03600969109067,
,,,,172,0,172,0,,,,,,,,,,,,,,,,,,,,,,1742.3322294997051,None,,,,,,,,,,,,,,,,,,command,10,173,sing,old,yellow,1739.9977818997577,None,1739.9977818997577,None,5,1.5045082997530699,1739.9977818997577,None,1.5045082997530699,1741.533646600321,None,1742.048473299481,None,1742.048473299481,None,f,0.25389460008591413,1742.048473299481,None,0.25389460008591413,,,90sing,001,2022_Nov_21_1032,ProdSingRedoBetween,2021.2.3,60.03600969109067,
,,,,173,0,173,0,,,,,,,,,,,,,,,,,,,,,,1747.737471099943,None,,,,,,,,,,,,,,,,,,appeal,95,174,sing,new,null,1742.839433199726,None,1742.839433199726,None,3,3.8150909999385476,1742.839433199726,None,3.8150909999385476,1746.6698501994833,None,1747.1715991003439,None,1747.1715991003439,None,n,0.5387289999052882,1747.1715991003439,None,0.5387289999052882,,,90sing,001,2022_Nov_21_1032,ProdSingRedoBetween,2021.2.3,60.03600969109067,
,,,,174,0,174,0,,,,,,,,,,,,,,,,,,,,,,1752.0584321999922,None,,,,,,,,,,,,,,,,,,phrase,137,175,sing,new,null,1748.2381947003305,None,1748.2381947003305,None,2,2.152250999584794,1748.2381947003305,None,2.152250999584794,1750.4068248998374,None,1750.9099121000618,None,1750.9099121000618,None,n,1.1204051999375224,1750.9099121000618,None,1.1204051999375224,,,90sing,001,2022_Nov_21_1032,ProdSingRedoBetween,2021.2.3,60.03600969109067,
,,,,175,0,175,0,,,,,,,,,,,,,,,,,,,,,,1758.6151356995106,None,,,,,,,,,,,,,,,,,,trial,125,176,sing,new,null,1752.5605843001977,None,1752.5605843001977,None,6,2.357680599205196,1752.5605843001977,None,2.357680599205196,1754.9466271996498,None,1755.4621882000938,None,1755.4621882000938,None,f,3.128334100358188,1755.4621882000938,None,3.128334100358188,,,90sing,001,2022_Nov_21_1032,ProdSingRedoBetween,2021.2.3,60.03600969109067,
,,,,176,0,176,0,,,,,,,,,,,,,,,,,,,,,,1763.052878599614,None,,,,,,,,,,,,,,,,,,theme,83,177,sing,old,red,1759.1156195998192,None,1759.1156195998192,None,5,3.0987511994317174,1759.1156195998192,None,3.0987511994317174,1762.2350906999782,None,1762.746094999835,None,1762.746094999835,None,f,0.2841853005811572,1762.746094999835,None,0.2841853005811572,,,90sing,001,2022_Nov_21_1032,ProdSingRedoBetween,2021.2.3,60.03600969109067,
