StudyLoop.thisRepN,StudyLoop.thisTrialN,StudyLoop.thisN,StudyLoop.thisIndex,TestLoop.thisRepN,TestLoop.thisTrialN,TestLoop.thisN,TestLoop.thisIndex,textCondition.started,textCondition.stopped,keyCondition.keys,keyCondition.rt,keyCondition.started,keyCondition.stopped,Condition,textWelcome.started,textWelcome.stopped,keyWelcome.keys,keyWelcome.rt,keyWelcome.started,keyWelcome.stopped,textAloud.started,textAloud.stopped,textSilent.started,textSilent.stopped,textSing.started,textSing.stopped,conditional_text.started,conditional_text.stopped,textBlank500.started,textBlank500.stopped,study_word,study_num,study_order,study_type,word_color,textStudy.started,textStudy.stopped,keyStudy.keys,keyStudy.started,keyStudy.stopped,textTestInstructions.started,textTestInstructions.stopped,key_resp_3.keys,key_resp_3.rt,key_resp_3.started,key_resp_3.stopped,test_word,test_num,test_order,test_condition,old_new_test,test_word_original_color,textConf.started,textConf.stopped,textConfScale.started,textConfScale.stopped,keyConf.keys,keyConf.rt,keyConf.started,keyConf.stopped,confidence response time,textTestBlank.started,textTestBlank.stopped,textRKN.started,textRKN.stopped,textRKNScale.started,textRKNScale.stopped,keyRKN.keys,keyRKN.rt,keyRKN.started,keyRKN.stopped,rkn response time,textEnd.started,textEnd.stopped,participant,session,date,expName,psychopyVersion,frameRate,
,,,,,,,,40.30283990036696,None,a,1.1677971007302403,40.30283990036696,None,,,,,,,,,,,,,,,,,,,,,,,,,,,,,,,,,,,,,,,,,,,,,,,,,,,,,,,,,,,,,,91Silent,001,2022_Nov_21_1104,ProdSingRedoBetween,2021.2.3,59.93586882976953,
,,,,,,,,,,,,,,SilentTest,41.528067300096154,None,space,259.21390129998326,41.528067300096154,None,,,,,,,,,,,,,,,,,,,,,,,,,,,,,,,,,,,,,,,,,,,,,,,,,,,,,,,91Silent,001,2022_Nov_21_1104,ProdSingRedoBetween,2021.2.3,59.93586882976953,
0,0,0,0,,,,,,,,,,,,,,,,,,41.528067300096154,None,41.528067300096154,None,41.528067300096154,None,41.528067300096154,None,303.2919642003253,None,split,69,1,silent,red,301.2806222997606,None,None,301.2806222997606,None,,,,,,,,,,,,,,,,,,,,,,,,,,,,,,,,,,,91Silent,001,2022_Nov_21_1104,ProdSingRedoBetween,2021.2.3,59.93586882976953,
1,0,1,0,,,,,,,,,,,,,,,,,,,,,,,,,,305.811301600188,None,drink,71,2,silent,red,303.7986275004223,None,None,303.7986275004223,None,,,,,,,,,,,,,,,,,,,,,,,,,,,,,,,,,,,91Silent,001,2022_Nov_21_1104,ProdSingRedoBetween,2021.2.3,59.93586882976953,
2,0,2,0,,,,,,,,,,,,,,,,,,,,,,,,,,308.3137018997222,None,murder,77,3,silent,red,306.3115785997361,None,None,306.3115785997361,None,,,,,,,,,,,,,,,,,,,,,,,,,,,,,,,,,,,91Silent,001,2022_Nov_21_1104,ProdSingRedoBetween,2021.2.3,59.93586882976953,
3,0,3,0,,,,,,,,,,,,,,,,,,,,,,,,,,310.83288270048797,None,expansion,14,4,silent,yellow,308.8188123004511,None,None,308.8188123004511,None,,,,,,,,,,,,,,,,,,,,,,,,,,,,,,,,,,,91Silent,001,2022_Nov_21_1104,ProdSingRedoBetween,2021.2.3,59.93586882976953,
4,0,4,0,,,,,,,,,,,,,,,,,,,,,,,,,,313.3519836999476,None,drama,53,5,silent,blue,311.3438740000129,None,None,311.3438740000129,None,,,,,,,,,,,,,,,,,,,,,,,,,,,,,,,,,,,91Silent,001,2022_Nov_21_1104,ProdSingRedoBetween,2021.2.3,59.93586882976953,
5,0,5,0,,,,,,,,,,,,,,,,,,,,,,,,,,315.85462199989706,None,breath,7,6,silent,yellow,313.85249700024724,None,None,313.85249700024724,None,,,,,,,,,,,,,,,,,,,,,,,,,,,,,,,,,,,91Silent,001,2022_Nov_21_1104,ProdSingRedoBetween,2021.2.3,59.93586882976953,
6,0,6,0,,,,,,,,,,,,,,,,,,,,,,,,,,318.363300899975,None,whole,78,7,silent,red,316.3561875997111,None,None,316.3561875997111,None,,,,,,,,,,,,,,,,,,,,,,,,,,,,,,,,,,,91Silent,001,2022_Nov_21_1104,ProdSingRedoBetween,2021.2.3,59.93586882976953,
7,0,7,0,,,,,,,,,,,,,,,,,,,,,,,,,,320.89311030041426,None,frank,25,8,silent,yellow,318.8788465997204,None,None,318.8788465997204,None,,,,,,,,,,,,,,,,,,,,,,,,,,,,,,,,,,,91Silent,001,2022_Nov_21_1104,ProdSingRedoBetween,2021.2.3,59.93586882976953,
8,0,8,0,,,,,,,,,,,,,,,,,,,,,,,,,,323.3955917004496,None,threat,16,9,silent,yellow,321.3935604998842,None,None,321.3935604998842,None,,,,,,,,,,,,,,,,,,,,,,,,,,,,,,,,,,,91Silent,001,2022_Nov_21_1104,ProdSingRedoBetween,2021.2.3,59.93586882976953,
9,0,9,0,,,,,,,,,,,,,,,,,,,,,,,,,,325.89804579969496,None,taste,22,10,silent,yellow,323.896017299965,None,None,323.896017299965,None,,,,,,,,,,,,,,,,,,,,,,,,,,,,,,,,,,,91Silent,001,2022_Nov_21_1104,ProdSingRedoBetween,2021.2.3,59.93586882976953,
10,0,10,0,,,,,,,,,,,,,,,,,,,,,,,,,,328.40054749976844,None,foundation,12,11,silent,yellow,326.39900439977646,None,None,326.39900439977646,None,,,,,,,,,,,,,,,,,,,,,,,,,,,,,,,,,,,91Silent,001,2022_Nov_21_1104,ProdSingRedoBetween,2021.2.3,59.93586882976953,
11,0,11,0,,,,,,,,,,,,,,,,,,,,,,,,,,330.9031803999096,None,shear,6,12,silent,yellow,328.901586599648,None,None,328.901586599648,None,,,,,,,,,,,,,,,,,,,,,,,,,,,,,,,,,,,91Silent,001,2022_Nov_21_1104,ProdSingRedoBetween,2021.2.3,59.93586882976953,
12,0,12,0,,,,,,,,,,,,,,,,,,,,,,,,,,333.42223579995334,None,length,40,13,silent,blue,331.40715650003403,None,None,331.40715650003403,None,,,,,,,,,,,,,,,,,,,,,,,,,,,,,,,,,,,91Silent,001,2022_Nov_21_1104,ProdSingRedoBetween,2021.2.3,59.93586882976953,
13,0,13,0,,,,,,,,,,,,,,,,,,,,,,,,,,335.92464310023934,None,bright,28,14,silent,yellow,333.9228357002139,None,None,333.9228357002139,None,,,,,,,,,,,,,,,,,,,,,,,,,,,,,,,,,,,91Silent,001,2022_Nov_21_1104,ProdSingRedoBetween,2021.2.3,59.93586882976953,
14,0,14,0,,,,,,,,,,,,,,,,,,,,,,,,,,338.4438704997301,None,beauty,5,15,silent,yellow,336.43331820052117,None,None,336.43331820052117,None,,,,,,,,,,,,,,,,,,,,,,,,,,,,,,,,,,,91Silent,001,2022_Nov_21_1104,ProdSingRedoBetween,2021.2.3,59.93586882976953,
15,0,15,0,,,,,,,,,,,,,,,,,,,,,,,,,,340.96321049984545,None,dispute,59,16,silent,yellow,338.94782400038093,None,None,338.94782400038093,None,,,,,,,,,,,,,,,,,,,,,,,,,,,,,,,,,,,91Silent,001,2022_Nov_21_1104,ProdSingRedoBetween,2021.2.3,59.93586882976953,
16,0,16,0,,,,,,,,,,,,,,,,,,,,,,,,,,343.4652570001781,None,primary,11,17,silent,yellow,341.463502000086,None,None,341.463502000086,None,,,,,,,,,,,,,,,,,,,,,,,,,,,,,,,,,,,91Silent,001,2022_Nov_21_1104,ProdSingRedoBetween,2021.2.3,59.93586882976953,
17,0,17,0,,,,,,,,,,,,,,,,,,,,,,,,,,345.9681176999584,None,community,26,18,silent,yellow,343.9668453997001,None,None,343.9668453997001,None,,,,,,,,,,,,,,,,,,,,,,,,,,,,,,,,,,,91Silent,001,2022_Nov_21_1104,ProdSingRedoBetween,2021.2.3,59.93586882976953,
18,0,18,0,,,,,,,,,,,,,,,,,,,,,,,,,,348.47050319984555,None,union,44,19,silent,blue,346.4685076000169,None,None,346.4685076000169,None,,,,,,,,,,,,,,,,,,,,,,,,,,,,,,,,,,,91Silent,001,2022_Nov_21_1104,ProdSingRedoBetween,2021.2.3,59.93586882976953,
19,0,19,0,,,,,,,,,,,,,,,,,,,,,,,,,,350.9730660999194,None,prime,48,20,silent,blue,348.97099370043725,None,None,348.97099370043725,None,,,,,,,,,,,,,,,,,,,,,,,,,,,,,,,,,,,91Silent,001,2022_Nov_21_1104,ProdSingRedoBetween,2021.2.3,59.93586882976953,
20,0,20,0,,,,,,,,,,,,,,,,,,,,,,,,,,353.4755413001403,None,right,62,21,silent,red,351.4765002001077,None,None,351.4765002001077,None,,,,,,,,,,,,,,,,,,,,,,,,,,,,,,,,,,,91Silent,001,2022_Nov_21_1104,ProdSingRedoBetween,2021.2.3,59.93586882976953,
21,0,21,0,,,,,,,,,,,,,,,,,,,,,,,,,,355.9946387000382,None,captain,67,22,silent,red,353.9793333001435,None,None,353.9793333001435,None,,,,,,,,,,,,,,,,,,,,,,,,,,,,,,,,,,,91Silent,001,2022_Nov_21_1104,ProdSingRedoBetween,2021.2.3,59.93586882976953,
22,0,22,0,,,,,,,,,,,,,,,,,,,,,,,,,,358.513985699974,None,majority,52,23,silent,blue,356.50222990009934,None,None,356.50222990009934,None,,,,,,,,,,,,,,,,,,,,,,,,,,,,,,,,,,,91Silent,001,2022_Nov_21_1104,ProdSingRedoBetween,2021.2.3,59.93586882976953,
23,0,23,0,,,,,,,,,,,,,,,,,,,,,,,,,,361.03305420000106,None,message,89,24,silent,red,359.0188041003421,None,None,359.0188041003421,None,,,,,,,,,,,,,,,,,,,,,,,,,,,,,,,,,,,91Silent,001,2022_Nov_21_1104,ProdSingRedoBetween,2021.2.3,59.93586882976953,
24,0,24,0,,,,,,,,,,,,,,,,,,,,,,,,,,363.55216709990054,None,private,27,25,silent,yellow,361.54975940007716,None,None,361.54975940007716,None,,,,,,,,,,,,,,,,,,,,,,,,,,,,,,,,,,,91Silent,001,2022_Nov_21_1104,ProdSingRedoBetween,2021.2.3,59.93586882976953,
25,0,25,0,,,,,,,,,,,,,,,,,,,,,,,,,,366.05476460047066,None,service,64,26,silent,red,364.0526922000572,None,None,364.0526922000572,None,,,,,,,,,,,,,,,,,,,,,,,,,,,,,,,,,,,91Silent,001,2022_Nov_21_1104,ProdSingRedoBetween,2021.2.3,59.93586882976953,
26,0,26,0,,,,,,,,,,,,,,,,,,,,,,,,,,368.5572541002184,None,number,50,27,silent,blue,366.5570568004623,None,None,366.5570568004623,None,,,,,,,,,,,,,,,,,,,,,,,,,,,,,,,,,,,91Silent,001,2022_Nov_21_1104,ProdSingRedoBetween,2021.2.3,59.93586882976953,
27,0,27,0,,,,,,,,,,,,,,,,,,,,,,,,,,371.0763440998271,None,design,4,28,silent,yellow,369.06120850052685,None,None,369.06120850052685,None,,,,,,,,,,,,,,,,,,,,,,,,,,,,,,,,,,,91Silent,001,2022_Nov_21_1104,ProdSingRedoBetween,2021.2.3,59.93586882976953,
28,0,28,0,,,,,,,,,,,,,,,,,,,,,,,,,,373.59555540047586,None,background,1,29,silent,yellow,371.5805377000943,None,None,371.5805377000943,None,,,,,,,,,,,,,,,,,,,,,,,,,,,,,,,,,,,91Silent,001,2022_Nov_21_1104,ProdSingRedoBetween,2021.2.3,59.93586882976953,
29,0,29,0,,,,,,,,,,,,,,,,,,,,,,,,,,376.0977364005521,None,phrase,60,30,silent,red,374.0958732003346,None,None,374.0958732003346,None,,,,,,,,,,,,,,,,,,,,,,,,,,,,,,,,,,,91Silent,001,2022_Nov_21_1104,ProdSingRedoBetween,2021.2.3,59.93586882976953,
30,0,30,0,,,,,,,,,,,,,,,,,,,,,,,,,,378.6005182005465,None,poetry,13,31,silent,yellow,376.59861920028925,None,None,376.59861920028925,None,,,,,,,,,,,,,,,,,,,,,,,,,,,,,,,,,,,91Silent,001,2022_Nov_21_1104,ProdSingRedoBetween,2021.2.3,59.93586882976953,
31,0,31,0,,,,,,,,,,,,,,,,,,,,,,,,,,381.1030203998089,None,interior,35,32,silent,blue,379.10105339996517,None,None,379.10105339996517,None,,,,,,,,,,,,,,,,,,,,,,,,,,,,,,,,,,,91Silent,001,2022_Nov_21_1104,ProdSingRedoBetween,2021.2.3,59.93586882976953,
32,0,32,0,,,,,,,,,,,,,,,,,,,,,,,,,,383.60534110013396,None,provision,19,33,silent,yellow,381.6054424997419,None,None,381.6054424997419,None,,,,,,,,,,,,,,,,,,,,,,,,,,,,,,,,,,,91Silent,001,2022_Nov_21_1104,ProdSingRedoBetween,2021.2.3,59.93586882976953,
33,0,33,0,,,,,,,,,,,,,,,,,,,,,,,,,,386.10806609969586,None,nature,70,34,silent,red,384.10609749983996,None,None,384.10609749983996,None,,,,,,,,,,,,,,,,,,,,,,,,,,,,,,,,,,,91Silent,001,2022_Nov_21_1104,ProdSingRedoBetween,2021.2.3,59.93586882976953,
34,0,34,0,,,,,,,,,,,,,,,,,,,,,,,,,,388.6105316001922,None,generation,79,35,silent,red,386.6085807001218,None,None,386.6085807001218,None,,,,,,,,,,,,,,,,,,,,,,,,,,,,,,,,,,,91Silent,001,2022_Nov_21_1104,ProdSingRedoBetween,2021.2.3,59.93586882976953,
35,0,35,0,,,,,,,,,,,,,,,,,,,,,,,,,,391.12967860046774,None,master,75,36,silent,red,389.11572139989585,None,None,389.11572139989585,None,,,,,,,,,,,,,,,,,,,,,,,,,,,,,,,,,,,91Silent,001,2022_Nov_21_1104,ProdSingRedoBetween,2021.2.3,59.93586882976953,
36,0,36,0,,,,,,,,,,,,,,,,,,,,,,,,,,393.6322592999786,None,entrance,34,37,silent,blue,391.6300162002444,None,None,391.6300162002444,None,,,,,,,,,,,,,,,,,,,,,,,,,,,,,,,,,,,91Silent,001,2022_Nov_21_1104,ProdSingRedoBetween,2021.2.3,59.93586882976953,
37,0,37,0,,,,,,,,,,,,,,,,,,,,,,,,,,396.1514285001904,None,discovery,86,38,silent,red,394.1394956000149,None,None,394.1394956000149,None,,,,,,,,,,,,,,,,,,,,,,,,,,,,,,,,,,,91Silent,001,2022_Nov_21_1104,ProdSingRedoBetween,2021.2.3,59.93586882976953,
38,0,38,0,,,,,,,,,,,,,,,,,,,,,,,,,,398.6539158001542,None,industry,8,39,silent,yellow,396.65193230006844,None,None,396.65193230006844,None,,,,,,,,,,,,,,,,,,,,,,,,,,,,,,,,,,,91Silent,001,2022_Nov_21_1104,ProdSingRedoBetween,2021.2.3,59.93586882976953,
39,0,39,0,,,,,,,,,,,,,,,,,,,,,,,,,,401.15639690030366,None,rapid,56,40,silent,blue,399.1574224997312,None,None,399.1574224997312,None,,,,,,,,,,,,,,,,,,,,,,,,,,,,,,,,,,,91Silent,001,2022_Nov_21_1104,ProdSingRedoBetween,2021.2.3,59.93586882976953,
40,0,40,0,,,,,,,,,,,,,,,,,,,,,,,,,,403.675616200082,None,staff,18,41,silent,yellow,401.6620257999748,None,None,401.6620257999748,None,,,,,,,,,,,,,,,,,,,,,,,,,,,,,,,,,,,91Silent,001,2022_Nov_21_1104,ProdSingRedoBetween,2021.2.3,59.93586882976953,
41,0,41,0,,,,,,,,,,,,,,,,,,,,,,,,,,406.17809979990125,None,report,23,42,silent,yellow,404.17888339981437,None,None,404.17888339981437,None,,,,,,,,,,,,,,,,,,,,,,,,,,,,,,,,,,,91Silent,001,2022_Nov_21_1104,ProdSingRedoBetween,2021.2.3,59.93586882976953,
42,0,42,0,,,,,,,,,,,,,,,,,,,,,,,,,,408.6805897997692,None,title,41,43,silent,blue,406.68085030000657,None,None,406.68085030000657,None,,,,,,,,,,,,,,,,,,,,,,,,,,,,,,,,,,,91Silent,001,2022_Nov_21_1104,ProdSingRedoBetween,2021.2.3,59.93586882976953,
43,0,43,0,,,,,,,,,,,,,,,,,,,,,,,,,,411.1830746997148,None,distance,31,44,silent,blue,409.1810426004231,None,None,409.1810426004231,None,,,,,,,,,,,,,,,,,,,,,,,,,,,,,,,,,,,91Silent,001,2022_Nov_21_1104,ProdSingRedoBetween,2021.2.3,59.93586882976953,
44,0,44,0,,,,,,,,,,,,,,,,,,,,,,,,,,413.702175299637,None,finish,81,45,silent,red,411.6894824998453,None,None,411.6894824998453,None,,,,,,,,,,,,,,,,,,,,,,,,,,,,,,,,,,,91Silent,001,2022_Nov_21_1104,ProdSingRedoBetween,2021.2.3,59.93586882976953,
45,0,45,0,,,,,,,,,,,,,,,,,,,,,,,,,,416.2213574005291,None,production,42,46,silent,blue,414.21359079983085,None,None,414.21359079983085,None,,,,,,,,,,,,,,,,,,,,,,,,,,,,,,,,,,,91Silent,001,2022_Nov_21_1104,ProdSingRedoBetween,2021.2.3,59.93586882976953,
46,0,46,0,,,,,,,,,,,,,,,,,,,,,,,,,,418.7405391000211,None,junior,51,47,silent,blue,416.7295556003228,None,None,416.7295556003228,None,,,,,,,,,,,,,,,,,,,,,,,,,,,,,,,,,,,91Silent,001,2022_Nov_21_1104,ProdSingRedoBetween,2021.2.3,59.93586882976953,
47,0,47,0,,,,,,,,,,,,,,,,,,,,,,,,,,421.2430365998298,None,career,29,48,silent,blue,419.24106909986585,None,None,419.24106909986585,None,,,,,,,,,,,,,,,,,,,,,,,,,,,,,,,,,,,91Silent,001,2022_Nov_21_1104,ProdSingRedoBetween,2021.2.3,59.93586882976953,
48,0,48,0,,,,,,,,,,,,,,,,,,,,,,,,,,423.7455588001758,None,dance,10,49,silent,yellow,421.74359139986336,None,None,421.74359139986336,None,,,,,,,,,,,,,,,,,,,,,,,,,,,,,,,,,,,91Silent,001,2022_Nov_21_1104,ProdSingRedoBetween,2021.2.3,59.93586882976953,
49,0,49,0,,,,,,,,,,,,,,,,,,,,,,,,,,426.2647475004196,None,guest,63,50,silent,red,424.25364189967513,None,None,424.25364189967513,None,,,,,,,,,,,,,,,,,,,,,,,,,,,,,,,,,,,91Silent,001,2022_Nov_21_1104,ProdSingRedoBetween,2021.2.3,59.93586882976953,
50,0,50,0,,,,,,,,,,,,,,,,,,,,,,,,,,428.7839034004137,None,piece,66,51,silent,red,426.7704370999709,None,None,426.7704370999709,None,,,,,,,,,,,,,,,,,,,,,,,,,,,,,,,,,,,91Silent,001,2022_Nov_21_1104,ProdSingRedoBetween,2021.2.3,59.93586882976953,
51,0,51,0,,,,,,,,,,,,,,,,,,,,,,,,,,431.28640010021627,None,universal,74,52,silent,red,429.28531400021166,None,None,429.28531400021166,None,,,,,,,,,,,,,,,,,,,,,,,,,,,,,,,,,,,91Silent,001,2022_Nov_21_1104,ProdSingRedoBetween,2021.2.3,59.93586882976953,
52,0,52,0,,,,,,,,,,,,,,,,,,,,,,,,,,433.7889032997191,None,skill,82,53,silent,red,431.78680909983814,None,None,431.78680909983814,None,,,,,,,,,,,,,,,,,,,,,,,,,,,,,,,,,,,91Silent,001,2022_Nov_21_1104,ProdSingRedoBetween,2021.2.3,59.93586882976953,
53,0,53,0,,,,,,,,,,,,,,,,,,,,,,,,,,436.2915326002985,None,employment,2,54,silent,yellow,434.2898534005508,None,None,434.2898534005508,None,,,,,,,,,,,,,,,,,,,,,,,,,,,,,,,,,,,91Silent,001,2022_Nov_21_1104,ProdSingRedoBetween,2021.2.3,59.93586882976953,
54,0,54,0,,,,,,,,,,,,,,,,,,,,,,,,,,438.81047470029444,None,suspect,17,55,silent,yellow,436.81172330025584,None,None,436.81172330025584,None,,,,,,,,,,,,,,,,,,,,,,,,,,,,,,,,,,,91Silent,001,2022_Nov_21_1104,ProdSingRedoBetween,2021.2.3,59.93586882976953,
55,0,55,0,,,,,,,,,,,,,,,,,,,,,,,,,,441.3132191998884,None,material,68,56,silent,red,439.312473599799,None,None,439.312473599799,None,,,,,,,,,,,,,,,,,,,,,,,,,,,,,,,,,,,91Silent,001,2022_Nov_21_1104,ProdSingRedoBetween,2021.2.3,59.93586882976953,
56,0,56,0,,,,,,,,,,,,,,,,,,,,,,,,,,443.8322368003428,None,budget,30,57,silent,blue,441.8177153002471,None,None,441.8177153002471,None,,,,,,,,,,,,,,,,,,,,,,,,,,,,,,,,,,,91Silent,001,2022_Nov_21_1104,ProdSingRedoBetween,2021.2.3,59.93586882976953,
57,0,57,0,,,,,,,,,,,,,,,,,,,,,,,,,,446.33484739996493,None,write,83,58,silent,red,444.33276239968836,None,None,444.33276239968836,None,,,,,,,,,,,,,,,,,,,,,,,,,,,,,,,,,,,91Silent,001,2022_Nov_21_1104,ProdSingRedoBetween,2021.2.3,59.93586882976953,
58,0,58,0,,,,,,,,,,,,,,,,,,,,,,,,,,448.85395620018244,None,business,9,59,silent,yellow,446.838920599781,None,None,446.838920599781,None,,,,,,,,,,,,,,,,,,,,,,,,,,,,,,,,,,,91Silent,001,2022_Nov_21_1104,ProdSingRedoBetween,2021.2.3,59.93586882976953,
59,0,59,0,,,,,,,,,,,,,,,,,,,,,,,,,,451.35640299972147,None,shock,54,60,silent,blue,449.354350999929,None,None,449.354350999929,None,,,,,,,,,,,,,,,,,,,,,,,,,,,,,,,,,,,91Silent,001,2022_Nov_21_1104,ProdSingRedoBetween,2021.2.3,59.93586882976953,
60,0,60,0,,,,,,,,,,,,,,,,,,,,,,,,,,453.85889669973403,None,substance,46,61,silent,blue,451.8583997003734,None,None,451.8583997003734,None,,,,,,,,,,,,,,,,,,,,,,,,,,,,,,,,,,,91Silent,001,2022_Nov_21_1104,ProdSingRedoBetween,2021.2.3,59.93586882976953,
61,0,61,0,,,,,,,,,,,,,,,,,,,,,,,,,,456.36137640010566,None,debate,32,62,silent,blue,454.3592269998044,None,None,454.3592269998044,None,,,,,,,,,,,,,,,,,,,,,,,,,,,,,,,,,,,91Silent,001,2022_Nov_21_1104,ProdSingRedoBetween,2021.2.3,59.93586882976953,
62,0,62,0,,,,,,,,,,,,,,,,,,,,,,,,,,458.88065159972757,None,fashion,72,63,silent,red,456.86791449971497,None,None,456.86791449971497,None,,,,,,,,,,,,,,,,,,,,,,,,,,,,,,,,,,,91Silent,001,2022_Nov_21_1104,ProdSingRedoBetween,2021.2.3,59.93586882976953,
63,0,63,0,,,,,,,,,,,,,,,,,,,,,,,,,,461.39989480003715,None,childhood,39,64,silent,blue,459.3880722001195,None,None,459.3880722001195,None,,,,,,,,,,,,,,,,,,,,,,,,,,,,,,,,,,,91Silent,001,2022_Nov_21_1104,ProdSingRedoBetween,2021.2.3,59.93586882976953,
64,0,64,0,,,,,,,,,,,,,,,,,,,,,,,,,,463.90218640025705,None,style,55,65,silent,blue,461.9003501003608,None,None,461.9003501003608,None,,,,,,,,,,,,,,,,,,,,,,,,,,,,,,,,,,,91Silent,001,2022_Nov_21_1104,ProdSingRedoBetween,2021.2.3,59.93586882976953,
65,0,65,0,,,,,,,,,,,,,,,,,,,,,,,,,,466.4048054004088,None,trend,24,66,silent,yellow,464.40255460049957,None,None,464.40255460049957,None,,,,,,,,,,,,,,,,,,,,,,,,,,,,,,,,,,,91Silent,001,2022_Nov_21_1104,ProdSingRedoBetween,2021.2.3,59.93586882976953,
66,0,66,0,,,,,,,,,,,,,,,,,,,,,,,,,,468.9072628002614,None,crime,84,67,silent,red,466.90702490042895,None,None,466.90702490042895,None,,,,,,,,,,,,,,,,,,,,,,,,,,,,,,,,,,,91Silent,001,2022_Nov_21_1104,ProdSingRedoBetween,2021.2.3,59.93586882976953,
67,0,67,0,,,,,,,,,,,,,,,,,,,,,,,,,,471.4264548001811,None,individual,80,68,silent,red,469.4188112001866,None,None,469.4188112001866,None,,,,,,,,,,,,,,,,,,,,,,,,,,,,,,,,,,,91Silent,001,2022_Nov_21_1104,ProdSingRedoBetween,2021.2.3,59.93586882976953,
68,0,68,0,,,,,,,,,,,,,,,,,,,,,,,,,,473.94572640024126,None,citizen,33,69,silent,blue,471.9325381005183,None,None,471.9325381005183,None,,,,,,,,,,,,,,,,,,,,,,,,,,,,,,,,,,,91Silent,001,2022_Nov_21_1104,ProdSingRedoBetween,2021.2.3,59.93586882976953,
69,0,69,0,,,,,,,,,,,,,,,,,,,,,,,,,,476.464802400209,None,problem,87,70,silent,red,474.4498180998489,None,None,474.4498180998489,None,,,,,,,,,,,,,,,,,,,,,,,,,,,,,,,,,,,91Silent,001,2022_Nov_21_1104,ProdSingRedoBetween,2021.2.3,59.93586882976953,
70,0,70,0,,,,,,,,,,,,,,,,,,,,,,,,,,478.96706989966333,None,solution,3,71,silent,yellow,476.9654484000057,None,None,476.9654484000057,None,,,,,,,,,,,,,,,,,,,,,,,,,,,,,,,,,,,91Silent,001,2022_Nov_21_1104,ProdSingRedoBetween,2021.2.3,59.93586882976953,
71,0,71,0,,,,,,,,,,,,,,,,,,,,,,,,,,481.48646409995854,None,series,20,72,silent,yellow,479.472773199901,None,None,479.472773199901,None,,,,,,,,,,,,,,,,,,,,,,,,,,,,,,,,,,,91Silent,001,2022_Nov_21_1104,ProdSingRedoBetween,2021.2.3,59.93586882976953,
72,0,72,0,,,,,,,,,,,,,,,,,,,,,,,,,,483.9890310000628,None,bitter,76,73,silent,red,481.9870528001338,None,None,481.9870528001338,None,,,,,,,,,,,,,,,,,,,,,,,,,,,,,,,,,,,91Silent,001,2022_Nov_21_1104,ProdSingRedoBetween,2021.2.3,59.93586882976953,
73,0,73,0,,,,,,,,,,,,,,,,,,,,,,,,,,486.49150270037353,None,tennis,49,74,silent,blue,484.48921489994973,None,None,484.48921489994973,None,,,,,,,,,,,,,,,,,,,,,,,,,,,,,,,,,,,91Silent,001,2022_Nov_21_1104,ProdSingRedoBetween,2021.2.3,59.93586882976953,
74,0,74,0,,,,,,,,,,,,,,,,,,,,,,,,,,489.01066420041025,None,attack,15,75,silent,yellow,487.003521299921,None,None,487.003521299921,None,,,,,,,,,,,,,,,,,,,,,,,,,,,,,,,,,,,91Silent,001,2022_Nov_21_1104,ProdSingRedoBetween,2021.2.3,59.93586882976953,
75,0,75,0,,,,,,,,,,,,,,,,,,,,,,,,,,491.5131590999663,None,salary,37,76,silent,blue,489.513635000214,None,None,489.513635000214,None,,,,,,,,,,,,,,,,,,,,,,,,,,,,,,,,,,,91Silent,001,2022_Nov_21_1104,ProdSingRedoBetween,2021.2.3,59.93586882976953,
76,0,76,0,,,,,,,,,,,,,,,,,,,,,,,,,,494.03238429967314,None,pretty,45,77,silent,blue,492.0228575002402,None,None,492.0228575002402,None,,,,,,,,,,,,,,,,,,,,,,,,,,,,,,,,,,,91Silent,001,2022_Nov_21_1104,ProdSingRedoBetween,2021.2.3,59.93586882976953,
77,0,77,0,,,,,,,,,,,,,,,,,,,,,,,,,,496.534909799695,None,burden,21,78,silent,yellow,494.5328248003498,None,None,494.5328248003498,None,,,,,,,,,,,,,,,,,,,,,,,,,,,,,,,,,,,91Silent,001,2022_Nov_21_1104,ProdSingRedoBetween,2021.2.3,59.93586882976953,
78,0,78,0,,,,,,,,,,,,,,,,,,,,,,,,,,499.0373458005488,None,second,88,79,silent,red,497.03535780031234,None,None,497.03535780031234,None,,,,,,,,,,,,,,,,,,,,,,,,,,,,,,,,,,,91Silent,001,2022_Nov_21_1104,ProdSingRedoBetween,2021.2.3,59.93586882976953,
79,0,79,0,,,,,,,,,,,,,,,,,,,,,,,,,,501.5396491996944,None,interview,73,80,silent,red,499.5379263004288,None,None,499.5379263004288,None,,,,,,,,,,,,,,,,,,,,,,,,,,,,,,,,,,,91Silent,001,2022_Nov_21_1104,ProdSingRedoBetween,2021.2.3,59.93586882976953,
80,0,80,0,,,,,,,,,,,,,,,,,,,,,,,,,,504.05901470035315,None,strain,36,81,silent,blue,502.0467058001086,None,None,502.0467058001086,None,,,,,,,,,,,,,,,,,,,,,,,,,,,,,,,,,,,91Silent,001,2022_Nov_21_1104,ProdSingRedoBetween,2021.2.3,59.93586882976953,
81,0,81,0,,,,,,,,,,,,,,,,,,,,,,,,,,506.56156160030514,None,partner,43,82,silent,blue,504.5594691997394,None,None,504.5594691997394,None,,,,,,,,,,,,,,,,,,,,,,,,,,,,,,,,,,,91Silent,001,2022_Nov_21_1104,ProdSingRedoBetween,2021.2.3,59.93586882976953,
82,0,82,0,,,,,,,,,,,,,,,,,,,,,,,,,,509.08065959997475,None,corner,57,83,silent,blue,507.067708699964,None,None,507.067708699964,None,,,,,,,,,,,,,,,,,,,,,,,,,,,,,,,,,,,91Silent,001,2022_Nov_21_1104,ProdSingRedoBetween,2021.2.3,59.93586882976953,
83,0,83,0,,,,,,,,,,,,,,,,,,,,,,,,,,511.5831519002095,None,harmony,65,84,silent,red,509.58211219962686,None,None,509.58211219962686,None,,,,,,,,,,,,,,,,,,,,,,,,,,,,,,,,,,,91Silent,001,2022_Nov_21_1104,ProdSingRedoBetween,2021.2.3,59.93586882976953,
84,0,84,0,,,,,,,,,,,,,,,,,,,,,,,,,,514.085776399821,None,notice,85,85,silent,red,512.0836810003966,None,None,512.0836810003966,None,,,,,,,,,,,,,,,,,,,,,,,,,,,,,,,,,,,91Silent,001,2022_Nov_21_1104,ProdSingRedoBetween,2021.2.3,59.93586882976953,
85,0,85,0,,,,,,,,,,,,,,,,,,,,,,,,,,516.6047726999968,None,meeting,38,86,silent,blue,514.5944937998429,None,None,514.5944937998429,None,,,,,,,,,,,,,,,,,,,,,,,,,,,,,,,,,,,91Silent,001,2022_Nov_21_1104,ProdSingRedoBetween,2021.2.3,59.93586882976953,
86,0,86,0,,,,,,,,,,,,,,,,,,,,,,,,,,519.1073861001059,None,resistance,0,87,silent,yellow,517.1078762002289,None,None,517.1078762002289,None,,,,,,,,,,,,,,,,,,,,,,,,,,,,,,,,,,,91Silent,001,2022_Nov_21_1104,ProdSingRedoBetween,2021.2.3,59.93586882976953,
87,0,87,0,,,,,,,,,,,,,,,,,,,,,,,,,,521.6098266001791,None,theme,58,88,silent,blue,519.6109046004713,None,None,519.6109046004713,None,,,,,,,,,,,,,,,,,,,,,,,,,,,,,,,,,,,91Silent,001,2022_Nov_21_1104,ProdSingRedoBetween,2021.2.3,59.93586882976953,
88,0,88,0,,,,,,,,,,,,,,,,,,,,,,,,,,524.1123345000669,None,bicycle,61,89,silent,red,522.112236100249,None,None,522.112236100249,None,,,,,,,,,,,,,,,,,,,,,,,,,,,,,,,,,,,91Silent,001,2022_Nov_21_1104,ProdSingRedoBetween,2021.2.3,59.93586882976953,
89,0,89,0,,,,,,,,,,,,,,,,,,,,,,,,,,526.6315957996994,None,suggestion,47,90,silent,blue,524.6182577004656,None,None,524.6182577004656,None,,,,,,,,,,,,,,,,,,,,,,,,,,,,,,,,,,,91Silent,001,2022_Nov_21_1104,ProdSingRedoBetween,2021.2.3,59.93586882976953,
,,,,,,,,,,,,,,,,,,,,,,,,,,,,,,,,,,,,,,,,,527.1322718001902,None,k,55.10513400007039,527.1322718001902,None,,,,,,,,,,,,,,,,,,,,,,,,,,,,,91Silent,001,2022_Nov_21_1104,ProdSingRedoBetween,2021.2.3,59.93586882976953,
,,,,0,0,0,0,,,,,,,,,,,,,,,,,,,,,,597.1351457005367,None,,,,,,,,,,,,,,,,,crisis,107,1,silent,new,null,582.7726829005405,None,582.7726829005405,None,3,6.304705799557269,582.7726829005405,None,6.304705799557269,589.0994520997629,None,589.6137284003198,None,589.6137284003198,None,n,7.495692399330437,589.6137284003198,None,7.495692399330437,,,91Silent,001,2022_Nov_21_1104,ProdSingRedoBetween,2021.2.3,59.93586882976953,
,,,,1,0,1,0,,,,,,,,,,,,,,,,,,,,,,604.4090694002807,None,,,,,,,,,,,,,,,,,write,83,2,silent,old,red,597.6433963999152,None,597.6433963999152,None,3,2.898023799993098,597.6433963999152,None,2.898023799993098,600.5722310002893,None,601.0752908997238,None,601.0752908997238,None,n,3.3140958994627,601.0752908997238,None,3.3140958994627,,,91Silent,001,2022_Nov_21_1104,ProdSingRedoBetween,2021.2.3,59.93586882976953,
,,,,2,0,2,0,,,,,,,,,,,,,,,,,,,,,,609.4641744000837,None,,,,,,,,,,,,,,,,,column,154,3,silent,new,null,604.917532700114,None,604.917532700114,None,1,2.5357439005747437,604.917532700114,None,2.5357439005747437,607.4842057004571,None,607.9959740005434,None,607.9959740005434,None,n,1.4413801999762654,607.9959740005434,None,1.4413801999762654,,,91Silent,001,2022_Nov_21_1104,ProdSingRedoBetween,2021.2.3,59.93586882976953,
,,,,3,0,3,0,,,,,,,,,,,,,,,,,,,,,,614.919527400285,None,,,,,,,,,,,,,,,,,harmony,65,4,silent,old,red,609.9737114002928,None,609.9737114002928,None,6,2.183715700171888,609.9737114002928,None,2.183715700171888,612.184691700153,None,612.6898838002235,None,612.6898838002235,None,r,2.211392999626696,612.6898838002235,None,2.211392999626696,,,91Silent,001,2022_Nov_21_1104,ProdSingRedoBetween,2021.2.3,59.93586882976953,
,,,,4,0,4,0,,,,,,,,,,,,,,,,,,,,,,619.4573851004243,None,,,,,,,,,,,,,,,,,alert,168,5,silent,new,null,615.4277691002935,None,615.4277691002935,None,3,2.113742000423372,615.4277691002935,None,2.113742000423372,617.5737047996372,None,618.0744978999719,None,618.0744978999719,None,f,1.3628506995737553,618.0744978999719,None,1.3628506995737553,,,91Silent,001,2022_Nov_21_1104,ProdSingRedoBetween,2021.2.3,59.93586882976953,
,,,,5,0,5,0,,,,,,,,,,,,,,,,,,,,,,623.9786398001015,None,,,,,,,,,,,,,,,,,tragedy,126,6,silent,new,null,619.9656159998849,None,619.9656159998849,None,6,1.9676951998844743,619.9656159998849,None,1.9676951998844743,621.9625107999891,None,622.4790981002152,None,622.4790981002152,None,r,1.4703526003286242,622.4790981002152,None,1.4703526003286242,,,91Silent,001,2022_Nov_21_1104,ProdSingRedoBetween,2021.2.3,59.93586882976953,
,,,,6,0,6,0,,,,,,,,,,,,,,,,,,,,,,628.5351285003126,None,,,,,,,,,,,,,,,,,service,64,7,silent,old,red,624.4857526998967,None,624.4857526998967,None,3,2.3597753001376987,624.4857526998967,None,2.3597753001376987,626.864804700017,None,627.3669306002557,None,627.3669306002557,None,f,1.1425000000745058,627.3669306002557,None,1.1425000000745058,,,91Silent,001,2022_Nov_21_1104,ProdSingRedoBetween,2021.2.3,59.93586882976953,
,,,,7,0,7,0,,,,,,,,,,,,,,,,,,,,,,633.741225800477,None,,,,,,,,,,,,,,,,,right,62,8,silent,old,red,629.0569195998833,None,629.0569195998833,None,1,2.62044920027256,629.0569195998833,None,2.62044920027256,631.7038388997316,None,632.2088828003034,None,632.2088828003034,None,n,1.5084989005699754,632.2088828003034,None,1.5084989005699754,,,91Silent,001,2022_Nov_21_1104,ProdSingRedoBetween,2021.2.3,59.93586882976953,
,,,,8,0,8,0,,,,,,,,,,,,,,,,,,,,,,637.3929626001045,None,,,,,,,,,,,,,,,,,religion,158,9,silent,new,null,634.2576713003218,None,634.2576713003218,None,1,1.771645300090313,634.2576713003218,None,1.771645300090313,636.060239800252,None,636.5801943996921,None,636.5801943996921,None,n,0.7850315002724528,636.5801943996921,None,0.7850315002724528,,,91Silent,001,2022_Nov_21_1104,ProdSingRedoBetween,2021.2.3,59.93586882976953,
,,,,9,0,9,0,,,,,,,,,,,,,,,,,,,,,,641.5127370003611,None,,,,,,,,,,,,,,,,,problem,87,10,silent,old,red,637.892469599843,None,637.892469599843,None,6,2.3048577001318336,637.892469599843,None,2.3048577001318336,640.2279543001205,None,640.7287908000872,None,640.7287908000872,None,r,0.7565158996731043,640.7287908000872,None,0.7565158996731043,,,91Silent,001,2022_Nov_21_1104,ProdSingRedoBetween,2021.2.3,59.93586882976953,
,,,,10,0,10,0,,,,,,,,,,,,,,,,,,,,,,645.6001062998548,None,,,,,,,,,,,,,,,,,murder,77,11,silent,old,red,642.0163668999448,None,642.0163668999448,None,6,1.8451879993081093,642.0163668999448,None,1.8451879993081093,643.8876239005476,None,644.401162199676,None,644.401162199676,None,r,1.1801982000470161,644.401162199676,None,1.1801982000470161,,,91Silent,001,2022_Nov_21_1104,ProdSingRedoBetween,2021.2.3,59.93586882976953,
,,,,11,0,11,0,,,,,,,,,,,,,,,,,,,,,,649.0869394997135,None,,,,,,,,,,,,,,,,,principal,90,12,silent,new,null,646.1096427999437,None,646.1096427999437,None,6,1.5356670003384352,646.1096427999437,None,1.5356670003384352,647.6709825005382,None,648.1904292004183,None,648.1904292004183,None,r,0.8709084000438452,648.1904292004183,None,0.8709084000438452,,,91Silent,001,2022_Nov_21_1104,ProdSingRedoBetween,2021.2.3,59.93586882976953,
,,,,12,0,12,0,,,,,,,,,,,,,,,,,,,,,,652.9241137998179,None,,,,,,,,,,,,,,,,,native,178,13,silent,new,null,649.5965419001877,None,649.5965419001877,None,3,1.8727665999904275,649.5965419001877,None,1.8727665999904275,651.4935672003776,None,652.007732800208,None,652.007732800208,None,f,0.9015745995566249,652.007732800208,None,0.9015745995566249,,,91Silent,001,2022_Nov_21_1104,ProdSingRedoBetween,2021.2.3,59.93586882976953,
,,,,13,0,13,0,,,,,,,,,,,,,,,,,,,,,,656.4275789000094,None,,,,,,,,,,,,,,,,,bucket,142,14,silent,new,null,653.4309796998277,None,653.4309796998277,None,1,1.7423288999125361,653.4309796998277,None,1.7423288999125361,655.1942293997854,None,655.69373119995,None,655.69373119995,None,n,0.7115870993584394,655.69373119995,None,0.7115870993584394,,,91Silent,001,2022_Nov_21_1104,ProdSingRedoBetween,2021.2.3,59.93586882976953,
,,,,14,0,14,0,,,,,,,,,,,,,,,,,,,,,,662.1684029996395,None,,,,,,,,,,,,,,,,,threat,16,15,silent,old,yellow,656.9390793005005,None,656.9390793005005,None,5,1.8581779999658465,656.9390793005005,None,1.8581779999658465,658.8133270004764,None,659.3163703996688,None,659.3163703996688,None,r,2.8330728001892567,659.3163703996688,None,2.8330728001892567,,,91Silent,001,2022_Nov_21_1104,ProdSingRedoBetween,2021.2.3,59.93586882976953,
,,,,15,0,15,0,,,,,,,,,,,,,,,,,,,,,,665.4888426996768,None,,,,,,,,,,,,,,,,,article,102,16,silent,new,null,662.6932442998514,None,662.6932442998514,None,6,1.5600674003362656,662.6932442998514,None,1.5600674003362656,664.271123399958,None,664.7968488996848,None,664.7968488996848,None,r,0.6645504999905825,664.7968488996848,None,0.6645504999905825,,,91Silent,001,2022_Nov_21_1104,ProdSingRedoBetween,2021.2.3,59.93586882976953,
,,,,16,0,16,0,,,,,,,,,,,,,,,,,,,,,,669.6073879003525,None,,,,,,,,,,,,,,,,,sound,153,17,silent,new,null,666.0161362998188,None,666.0161362998188,None,4,1.9251461997628212,666.0161362998188,None,1.9251461997628212,667.9767786003649,None,668.4960832996294,None,668.4960832996294,None,f,1.0852135000750422,668.4960832996294,None,1.0852135000750422,,,91Silent,001,2022_Nov_21_1104,ProdSingRedoBetween,2021.2.3,59.93586882976953,
,,,,17,0,17,0,,,,,,,,,,,,,,,,,,,,,,674.0952136004344,None,,,,,,,,,,,,,,,,,produce,137,18,silent,new,null,670.1154453000054,None,670.1154453000054,None,4,2.353831000626087,670.1154453000054,None,2.353831000626087,672.4948543999344,None,672.9941354002804,None,672.9941354002804,None,f,1.0751068005338311,672.9941354002804,None,1.0751068005338311,,,91Silent,001,2022_Nov_21_1104,ProdSingRedoBetween,2021.2.3,59.93586882976953,
,,,,18,0,18,0,,,,,,,,,,,,,,,,,,,,,,677.7154868999496,None,,,,,,,,,,,,,,,,,course,147,19,silent,new,null,674.6034468002617,None,674.6034468002617,None,5,1.8098983000963926,674.6034468002617,None,1.8098983000963926,676.434490500018,None,676.9568407004699,None,676.9568407004699,None,r,0.7284238999709487,676.9568407004699,None,0.7284238999709487,,,91Silent,001,2022_Nov_21_1104,ProdSingRedoBetween,2021.2.3,59.93586882976953,
,,,,19,0,19,0,,,,,,,,,,,,,,,,,,,,,,682.7037919005379,None,,,,,,,,,,,,,,,,,provision,19,20,silent,old,yellow,678.2249333998188,None,678.2249333998188,None,5,3.0602744007483125,678.2249333998188,None,3.0602744007483125,681.3048191005364,None,681.8219860000536,None,681.8219860000536,None,f,0.8632535999640822,681.8219860000536,None,0.8632535999640822,,,91Silent,001,2022_Nov_21_1104,ProdSingRedoBetween,2021.2.3,59.93586882976953,
,,,,20,0,20,0,,,,,,,,,,,,,,,,,,,,,,688.6264337999746,None,,,,,,,,,,,,,,,,,accident,122,21,silent,new,null,683.213994000107,None,683.213994000107,None,2,3.1032536001875997,683.213994000107,None,3.1032536001875997,686.3416798003018,None,686.8414224004373,None,686.8414224004373,None,f,1.7637200001627207,686.8414224004373,None,1.7637200001627207,,,91Silent,001,2022_Nov_21_1104,ProdSingRedoBetween,2021.2.3,59.93586882976953,
,,,,21,0,21,0,,,,,,,,,,,,,,,,,,,,,,691.7461443999782,None,,,,,,,,,,,,,,,,,orchestra,170,22,silent,new,null,689.1342927999794,None,689.1342927999794,None,1,1.4229500005021691,689.1342927999794,None,1.4229500005021691,690.5796161005273,None,691.0954783996567,None,691.0954783996567,None,n,0.6218104995787144,691.0954783996567,None,0.6218104995787144,,,91Silent,001,2022_Nov_21_1104,ProdSingRedoBetween,2021.2.3,59.93586882976953,
,,,,22,0,22,0,,,,,,,,,,,,,,,,,,,,,,695.3695657001808,None,,,,,,,,,,,,,,,,,strain,36,23,silent,old,blue,692.2541874004528,None,692.2541874004528,None,5,1.855051500722766,692.2541874004528,None,1.855051500722766,694.1331112002954,None,694.6378028998151,None,694.6378028998151,None,f,0.7115236995741725,694.6378028998151,None,0.7115236995741725,,,91Silent,001,2022_Nov_21_1104,ProdSingRedoBetween,2021.2.3,59.93586882976953,
,,,,23,0,23,0,,,,,,,,,,,,,,,,,,,,,,698.436178999953,None,,,,,,,,,,,,,,,,,worker,92,24,silent,new,null,695.8844613004476,None,695.8844613004476,None,2,1.4886826993897557,695.8844613004476,None,1.4886826993897557,697.4076393004507,None,697.9190851002932,None,697.9190851002932,None,n,0.4861011002212763,697.9190851002932,None,0.4861011002212763,,,91Silent,001,2022_Nov_21_1104,ProdSingRedoBetween,2021.2.3,59.93586882976953,
,,,,24,0,24,0,,,,,,,,,,,,,,,,,,,,,,701.6392804002389,None,,,,,,,,,,,,,,,,,victory,113,25,silent,new,null,698.9460784001276,None,698.9460784001276,None,2,1.811293600127101,698.9460784001276,None,1.811293600127101,700.7896902002394,None,701.2987526999786,None,701.2987526999786,None,n,0.3145236996933818,701.2987526999786,None,0.3145236996933818,,,91Silent,001,2022_Nov_21_1104,ProdSingRedoBetween,2021.2.3,59.93586882976953,
,,,,25,0,25,0,,,,,,,,,,,,,,,,,,,,,,704.4421564005315,None,,,,,,,,,,,,,,,,,state,172,26,silent,new,null,702.1417527003214,None,702.1417527003214,None,2,1.511718200519681,702.1417527003214,None,1.511718200519681,703.6838741004467,None,704.1920563997701,None,704.1920563997701,None,n,0.2211947999894619,704.1920563997701,None,0.2211947999894619,,,91Silent,001,2022_Nov_21_1104,ProdSingRedoBetween,2021.2.3,59.93586882976953,
,,,,26,0,26,0,,,,,,,,,,,,,,,,,,,,,,707.6802765000612,None,,,,,,,,,,,,,,,,,primary,11,27,silent,old,yellow,704.9466484002769,None,704.9466484002769,None,5,1.6186789004132152,704.9466484002769,None,1.6186789004132152,706.5952839003876,None,707.0993379000574,None,707.0993379000574,None,f,0.5619325004518032,707.0993379000574,None,0.5619325004518032,,,91Silent,001,2022_Nov_21_1104,ProdSingRedoBetween,2021.2.3,59.93586882976953,
,,,,27,0,27,0,,,,,,,,,,,,,,,,,,,,,,710.800373500213,None,,,,,,,,,,,,,,,,,career,29,28,silent,old,blue,708.1959790000692,None,708.1959790000692,None,4,1.8172113001346588,708.1959790000692,None,1.8172113001346588,710.0310872998089,None,710.5355633003637,None,710.5355633003637,None,f,0.23766850028187037,710.5355633003637,None,0.23766850028187037,,,91Silent,001,2022_Nov_21_1104,ProdSingRedoBetween,2021.2.3,59.93586882976953,
,,,,28,0,28,0,,,,,,,,,,,,,,,,,,,,,,713.452341100201,None,,,,,,,,,,,,,,,,,budget,30,29,silent,old,blue,711.3232517000288,None,711.3232517000288,None,5,1.2578385006636381,711.3232517000288,None,1.2578385006636381,712.6027605002746,None,713.1271350998431,None,713.1271350998431,None,f,0.3022825000807643,713.1271350998431,None,0.3022825000807643,,,91Silent,001,2022_Nov_21_1104,ProdSingRedoBetween,2021.2.3,59.93586882976953,
,,,,29,0,29,0,,,,,,,,,,,,,,,,,,,,,,716.0870399996638,None,,,,,,,,,,,,,,,,,listen,95,30,silent,new,null,713.9668936003,None,713.9668936003,None,2,1.462465399876237,713.9668936003,None,1.462465399876237,715.4683613004163,None,715.9704592004418,None,715.9704592004418,None,n,0.09083329979330301,715.9704592004418,None,0.09083329979330301,,,91Silent,001,2022_Nov_21_1104,ProdSingRedoBetween,2021.2.3,59.93586882976953,
,,,,30,0,30,0,,,,,,,,,,,,,,,,,,,,,,718.6730132000521,None,,,,,,,,,,,,,,,,,private,27,31,silent,old,yellow,716.5958804003894,None,716.5958804003894,None,3,1.3853326998651028,716.5958804003894,None,1.3853326998651028,718.012960200198,None,718.5297844996676,None,718.5297844996676,None,n,0.11538590025156736,718.5297844996676,None,0.11538590025156736,,,91Silent,001,2022_Nov_21_1104,ProdSingRedoBetween,2021.2.3,59.93586882976953,
,,,,31,0,31,0,,,,,,,,,,,,,,,,,,,,,,722.5599958002567,None,,,,,,,,,,,,,,,,,burden,21,32,silent,old,yellow,719.1811672002077,None,719.1811672002077,None,2,2.392116299830377,719.1811672002077,None,2.392116299830377,721.5935463998467,None,722.102042700164,None,722.102042700164,None,n,0.4391738995909691,722.102042700164,None,0.4391738995909691,,,91Silent,001,2022_Nov_21_1104,ProdSingRedoBetween,2021.2.3,59.93586882976953,
,,,,32,0,32,0,,,,,,,,,,,,,,,,,,,,,,730.1509618004784,None,,,,,,,,,,,,,,,,,interview,73,33,silent,old,red,723.0648889997974,None,723.0648889997974,None,2,4.348250100389123,723.0648889997974,None,4.348250100389123,727.4386584004387,None,727.9490438997746,None,727.9490438997746,None,n,2.1840872997418046,727.9490438997746,None,2.1840872997418046,,,91Silent,001,2022_Nov_21_1104,ProdSingRedoBetween,2021.2.3,59.93586882976953,
,,,,33,0,33,0,,,,,,,,,,,,,,,,,,,,,,734.4554102001712,None,,,,,,,,,,,,,,,,,partner,43,34,silent,old,blue,730.6625418001786,None,730.6625418001786,None,3,1.6546956999227405,730.6625418001786,None,1.6546956999227405,732.3410454997793,None,732.8580689998344,None,732.8580689998344,None,n,1.5790590001270175,732.8580689998344,None,1.5790590001270175,,,91Silent,001,2022_Nov_21_1104,ProdSingRedoBetween,2021.2.3,59.93586882976953,
,,,,34,0,34,0,,,,,,,,,,,,,,,,,,,,,,739.7605290999636,None,,,,,,,,,,,,,,,,,community,26,35,silent,old,yellow,734.9665205003694,None,734.9665205003694,None,2,3.734651400707662,734.9665205003694,None,3.734651400707662,738.7293415004387,None,739.2455345997587,None,739.2455345997587,None,n,0.48764870036393404,739.2455345997587,None,0.48764870036393404,,,91Silent,001,2022_Nov_21_1104,ProdSingRedoBetween,2021.2.3,59.93586882976953,
,,,,35,0,35,0,,,,,,,,,,,,,,,,,,,,,,742.3633466996253,None,,,,,,,,,,,,,,,,,curve,177,36,silent,new,null,740.263140199706,None,740.263140199706,None,1,1.366058200597763,740.263140199706,None,1.366058200597763,741.6490064999089,None,742.1711250999942,None,742.1711250999942,None,n,0.1700233994051814,742.1711250999942,None,0.1700233994051814,,,91Silent,001,2022_Nov_21_1104,ProdSingRedoBetween,2021.2.3,59.93586882976953,
,,,,36,0,36,0,,,,,,,,,,,,,,,,,,,,,,744.8658367004246,None,,,,,,,,,,,,,,,,,institute,94,37,silent,new,null,742.8767180005088,None,742.8767180005088,None,1,1.2484353994950652,742.8767180005088,None,1.2484353994950652,744.149844000116,None,744.649037799798,None,744.649037799798,None,n,0.19615620002150536,744.649037799798,None,0.19615620002150536,,,91Silent,001,2022_Nov_21_1104,ProdSingRedoBetween,2021.2.3,59.93586882976953,
,,,,37,0,37,0,,,,,,,,,,,,,,,,,,,,,,747.3349329000339,None,,,,,,,,,,,,,,,,,staff,18,38,silent,old,yellow,745.3702312996611,None,745.3702312996611,None,1,1.2749220998957753,745.3702312996611,None,1.2749220998957753,746.6696512000635,None,747.1885689999908,None,747.1885689999908,None,n,0.12860719952732325,747.1885689999908,None,0.12860719952732325,,,91Silent,001,2022_Nov_21_1104,ProdSingRedoBetween,2021.2.3,59.93586882976953,
,,,,38,0,38,0,,,,,,,,,,,,,,,,,,,,,,750.1375916004181,None,,,,,,,,,,,,,,,,,beauty,5,39,silent,old,yellow,747.8504616999999,None,747.8504616999999,None,2,1.4426729995757341,747.8504616999999,None,1.4426729995757341,749.3220720998943,None,749.8429100997746,None,749.8429100997746,None,n,0.2661476004868746,749.8429100997746,None,0.2661476004868746,,,91Silent,001,2022_Nov_21_1104,ProdSingRedoBetween,2021.2.3,59.93586882976953,
,,,,39,0,39,0,,,,,,,,,,,,,,,,,,,,,,755.6933150999248,None,,,,,,,,,,,,,,,,,commercial,150,40,silent,new,null,750.6386452997103,None,750.6386452997103,None,3,3.702535199932754,750.6386452997103,None,3.702535199932754,754.3617336004972,None,754.8758621998131,None,754.8758621998131,None,f,0.79326600022614,754.8758621998131,None,0.79326600022614,,,91Silent,001,2022_Nov_21_1104,ProdSingRedoBetween,2021.2.3,59.93586882976953,
,,,,40,0,40,0,,,,,,,,,,,,,,,,,,,,,,759.0299144005403,None,,,,,,,,,,,,,,,,,background,1,41,silent,old,yellow,756.2011008001864,None,756.2011008001864,None,1,1.6119062006473541,756.2011008001864,None,1.6119062006473541,757.832528299652,None,758.3469535000622,None,758.3469535000622,None,n,0.6662733005359769,758.3469535000622,None,0.6662733005359769,,,91Silent,001,2022_Nov_21_1104,ProdSingRedoBetween,2021.2.3,59.93586882976953,
,,,,41,0,41,0,,,,,,,,,,,,,,,,,,,,,,762.6188304005191,None,,,,,,,,,,,,,,,,,whole,78,42,silent,old,red,759.5369426999241,None,759.5369426999241,None,6,1.5242119999602437,759.5369426999241,None,1.5242119999602437,761.0837451005355,None,761.6034073997289,None,761.6034073997289,None,r,0.9857309004291892,761.6034073997289,None,0.9857309004291892,,,91Silent,001,2022_Nov_21_1104,ProdSingRedoBetween,2021.2.3,59.93586882976953,
,,,,42,0,42,0,,,,,,,,,,,,,,,,,,,,,,766.80433380045,None,,,,,,,,,,,,,,,,,drink,71,43,silent,old,red,763.1434768997133,None,763.1434768997133,None,2,2.093749299645424,763.1434768997133,None,2.093749299645424,765.2590771000832,None,765.7700856002048,None,765.7700856002048,None,n,1.0190278999507427,765.7700856002048,None,1.0190278999507427,,,91Silent,001,2022_Nov_21_1104,ProdSingRedoBetween,2021.2.3,59.93586882976953,
,,,,43,0,43,0,,,,,,,,,,,,,,,,,,,,,,769.9573798002675,None,,,,,,,,,,,,,,,,,light,129,44,silent,new,null,767.3120629005134,None,767.3120629005134,None,1,1.5810412000864744,767.3120629005134,None,1.5810412000864744,768.923067400232,None,769.42763760034,None,769.42763760034,None,n,0.513569500297308,769.42763760034,None,0.513569500297308,,,91Silent,001,2022_Nov_21_1104,ProdSingRedoBetween,2021.2.3,59.93586882976953,
,,,,44,0,44,0,,,,,,,,,,,,,,,,,,,,,,775.379706799984,None,,,,,,,,,,,,,,,,,figure,105,45,silent,new,null,770.4607691997662,None,770.4607691997662,None,5,3.3523796005174518,770.4607691997662,None,3.3523796005174518,773.8290705000982,None,774.3352139005437,None,774.3352139005437,None,r,1.021854500286281,774.3352139005437,None,1.021854500286281,,,91Silent,001,2022_Nov_21_1104,ProdSingRedoBetween,2021.2.3,59.93586882976953,
,,,,45,0,45,0,,,,,,,,,,,,,,,,,,,,,,778.7994355997071,None,,,,,,,,,,,,,,,,,trend,24,46,silent,old,yellow,775.8847126998007,None,775.8847126998007,None,3,2.2484333999454975,775.8847126998007,None,2.2484333999454975,778.1523553999141,None,778.6662923004478,None,778.6662923004478,None,n,0.10684909950941801,778.6662923004478,None,0.10684909950941801,,,91Silent,001,2022_Nov_21_1104,ProdSingRedoBetween,2021.2.3,59.93586882976953,
,,,,46,0,46,0,,,,,,,,,,,,,,,,,,,,,,784.688829000108,None,,,,,,,,,,,,,,,,,education,163,47,silent,new,null,779.3028667001054,None,779.3028667001054,None,5,4.046215599402785,779.3028667001054,None,4.046215599402785,783.370637900196,None,783.8714536996558,None,783.8714536996558,None,f,0.7896165996789932,783.8714536996558,None,0.7896165996789932,,,91Silent,001,2022_Nov_21_1104,ProdSingRedoBetween,2021.2.3,59.93586882976953,
,,,,47,0,47,0,,,,,,,,,,,,,,,,,,,,,,789.5103056002408,None,,,,,,,,,,,,,,,,,poetry,13,48,silent,old,yellow,785.1983505003154,None,785.1983505003154,None,6,2.646604999899864,785.1983505003154,None,2.646604999899864,787.8764041000977,None,788.3762480001897,None,788.3762480001897,None,r,1.108754400163889,788.3762480001897,None,1.108754400163889,,,91Silent,001,2022_Nov_21_1104,ProdSingRedoBetween,2021.2.3,59.93586882976953,
,,,,48,0,48,0,,,,,,,,,,,,,,,,,,,,,,793.2474555997178,None,,,,,,,,,,,,,,,,,school,114,49,silent,new,null,790.0232142005116,None,790.0232142005116,None,1,1.389780600555241,790.0232142005116,None,1.389780600555241,791.4324503997341,None,791.9516730001196,None,791.9516730001196,None,n,1.2694312008097768,791.9516730001196,None,1.2694312008097768,,,91Silent,001,2022_Nov_21_1104,ProdSingRedoBetween,2021.2.3,59.93586882976953,
,,,,49,0,49,0,,,,,,,,,,,,,,,,,,,,,,797.3680996997282,None,,,,,,,,,,,,,,,,,attack,15,50,silent,old,yellow,793.7540613003075,None,793.7540613003075,None,6,2.123196999542415,793.7540613003075,None,2.123196999542415,795.9061371004209,None,796.4192462004721,None,796.4192462004721,None,r,0.9217488002032042,796.4192462004721,None,0.9217488002032042,,,91Silent,001,2022_Nov_21_1104,ProdSingRedoBetween,2021.2.3,59.93586882976953,
,,,,50,0,50,0,,,,,,,,,,,,,,,,,,,,,,800.5225549004972,None,,,,,,,,,,,,,,,,,drama,53,51,silent,old,blue,797.8799042003229,None,797.8799042003229,None,6,1.957171500660479,797.8799042003229,None,1.957171500660479,799.8613176001236,None,800.3712827004492,None,800.3712827004492,None,r,0.12984419986605644,800.3712827004492,None,0.12984419986605644,,,91Silent,001,2022_Nov_21_1104,ProdSingRedoBetween,2021.2.3,59.93586882976953,
,,,,51,0,51,0,,,,,,,,,,,,,,,,,,,,,,806.5272348998114,None,,,,,,,,,,,,,,,,,solution,3,52,silent,old,yellow,801.0262294998392,None,801.0262294998392,None,4,4.290830499492586,801.0262294998392,None,4.290830499492586,805.3438665997237,None,805.8488469002768,None,805.8488469002768,None,f,0.66012719925493,805.8488469002768,None,0.66012719925493,,,91Silent,001,2022_Nov_21_1104,ProdSingRedoBetween,2021.2.3,59.93586882976953,
,,,,52,0,52,0,,,,,,,,,,,,,,,,,,,,,,809.5803225999698,None,,,,,,,,,,,,,,,,,permit,120,53,silent,new,null,807.037011500448,None,807.037011500448,None,1,1.3680392000824213,807.037011500448,None,1.3680392000824213,808.4321782002226,None,808.9501919997856,None,808.9501919997856,None,n,0.6147888004779816,808.9501919997856,None,0.6147888004779816,,,91Silent,001,2022_Nov_21_1104,ProdSingRedoBetween,2021.2.3,59.93586882976953,
,,,,53,0,53,0,,,,,,,,,,,,,,,,,,,,,,812.9678049003705,None,,,,,,,,,,,,,,,,,mayor,134,54,silent,new,null,810.0929674999788,None,810.0929674999788,None,1,2.0720923002809286,810.0929674999788,None,2.0720923002809286,812.1829284997657,None,812.6834124000743,None,812.6834124000743,None,n,0.2577200997620821,812.6834124000743,None,0.2577200997620821,,,91Silent,001,2022_Nov_21_1104,ProdSingRedoBetween,2021.2.3,59.93586882976953,
,,,,54,0,54,0,,,,,,,,,,,,,,,,,,,,,,815.7924701003358,None,,,,,,,,,,,,,,,,,series,20,55,silent,old,yellow,813.4674594001845,None,813.4674594001845,None,1,1.2255127998068929,813.4674594001845,None,1.2255127998068929,814.7229736996815,None,815.2360728001222,None,815.2360728001222,None,n,0.5289381993934512,815.2360728001222,None,0.5289381993934512,,,91Silent,001,2022_Nov_21_1104,ProdSingRedoBetween,2021.2.3,59.93586882976953,
,,,,55,0,55,0,,,,,,,,,,,,,,,,,,,,,,820.724811299704,None,,,,,,,,,,,,,,,,,message,89,56,silent,old,red,816.313122600317,None,816.313122600317,None,5,2.8999428004026413,816.313122600317,None,2.8999428004026413,819.2476259004325,None,819.7583325998858,None,819.7583325998858,None,f,0.9427012000232935,819.7583325998858,None,0.9427012000232935,,,91Silent,001,2022_Nov_21_1104,ProdSingRedoBetween,2021.2.3,59.93586882976953,
,,,,56,0,56,0,,,,,,,,,,,,,,,,,,,,,,823.2483107000589,None,,,,,,,,,,,,,,,,,husband,125,57,silent,new,null,821.22999120038,None,821.22999120038,None,1,1.1190759995952249,821.22999120038,None,1.1190759995952249,822.381957700476,None,822.8936750004068,None,822.8936750004068,None,n,0.3276726994663477,822.8936750004068,None,0.3276726994663477,,,91Silent,001,2022_Nov_21_1104,ProdSingRedoBetween,2021.2.3,59.93586882976953,
,,,,57,0,57,0,,,,,,,,,,,,,,,,,,,,,,828.0829522004351,None,,,,,,,,,,,,,,,,,court,166,58,silent,new,null,823.7758750999346,None,823.7758750999346,None,6,1.6612354004755616,823.7758750999346,None,1.6612354004755616,825.4693868001923,None,825.9835983999074,None,825.9835983999074,None,r,2.0695637008175254,825.9835983999074,None,2.0695637008175254,,,91Silent,001,2022_Nov_21_1104,ProdSingRedoBetween,2021.2.3,59.93586882976953,
,,,,58,0,58,0,,,,,,,,,,,,,,,,,,,,,,831.5856095999479,None,,,,,,,,,,,,,,,,,author,132,59,silent,new,null,828.5853001996875,None,828.5853001996875,None,2,2.0037404000759125,828.5853001996875,None,2.0037404000759125,830.6195216001943,None,831.1244238000363,None,831.1244238000363,None,n,0.43257559929043055,831.1244238000363,None,0.43257559929043055,,,91Silent,001,2022_Nov_21_1104,ProdSingRedoBetween,2021.2.3,59.93586882976953,
,,,,59,0,59,0,,,,,,,,,,,,,,,,,,,,,,834.1893613003194,None,,,,,,,,,,,,,,,,,household,174,60,silent,new,null,832.0906555997208,None,832.0906555997208,None,1,1.1864167004823685,832.0906555997208,None,1.1864167004823685,833.3107962002978,None,833.8267758004367,None,833.8267758004367,None,n,0.34625270031392574,833.8267758004367,None,0.34625270031392574,,,91Silent,001,2022_Nov_21_1104,ProdSingRedoBetween,2021.2.3,59.93586882976953,
,,,,60,0,60,0,,,,,,,,,,,,,,,,,,,,,,837.241322199814,None,,,,,,,,,,,,,,,,,resistance,0,61,silent,old,yellow,834.6916650999337,None,834.6916650999337,None,1,1.7134365001693368,834.6916650999337,None,1.7134365001693368,836.4287040000781,None,836.9471163004637,None,836.9471163004637,None,n,0.27411439921706915,836.9471163004637,None,0.27411439921706915,,,91Silent,001,2022_Nov_21_1104,ProdSingRedoBetween,2021.2.3,59.93586882976953,
,,,,61,0,61,0,,,,,,,,,,,,,,,,,,,,,,841.7290497999638,None,,,,,,,,,,,,,,,,,appearance,119,62,silent,new,null,837.7530816998333,None,837.7530816998333,None,5,2.203893800266087,837.7530816998333,None,2.203893800266087,839.9785492001101,None,840.4844669001177,None,840.4844669001177,None,f,1.2245482997968793,840.4844669001177,None,1.2245482997968793,,,91Silent,001,2022_Nov_21_1104,ProdSingRedoBetween,2021.2.3,59.93586882976953,
,,,,62,0,62,0,,,,,,,,,,,,,,,,,,,,,,844.9158044001088,None,,,,,,,,,,,,,,,,,debate,32,63,silent,old,blue,842.243512400426,None,842.243512400426,None,3,1.473423800431192,842.243512400426,None,1.473423800431192,843.7501667998731,None,844.274922600016,None,844.274922600016,None,n,0.6179978000000119,844.274922600016,None,0.6179978000000119,,,91Silent,001,2022_Nov_21_1104,ProdSingRedoBetween,2021.2.3,59.93586882976953,
,,,,63,0,63,0,,,,,,,,,,,,,,,,,,,,,,848.2522510997951,None,,,,,,,,,,,,,,,,,individual,80,64,silent,old,red,845.4248897004873,None,845.4248897004873,None,5,1.5400917995721102,845.4248897004873,None,1.5400917995721102,846.985714700073,None,847.5013468004763,None,847.5013468004763,None,r,0.7357833003625274,847.5013468004763,None,0.7357833003625274,,,91Silent,001,2022_Nov_21_1104,ProdSingRedoBetween,2021.2.3,59.93586882976953,
,,,,64,0,64,0,,,,,,,,,,,,,,,,,,,,,,851.0550864003599,None,,,,,,,,,,,,,,,,,split,69,65,silent,old,red,848.75695690047,None,848.75695690047,None,1,1.2160173002630472,848.75695690047,None,1.2160173002630472,850.0070377998054,None,850.5269568003714,None,850.5269568003714,None,n,0.5020345002412796,850.5269568003714,None,0.5020345002412796,,,91Silent,001,2022_Nov_21_1104,ProdSingRedoBetween,2021.2.3,59.93586882976953,
,,,,65,0,65,0,,,,,,,,,,,,,,,,,,,,,,854.9428099999204,None,,,,,,,,,,,,,,,,,general,169,66,silent,new,null,851.5642291996628,None,851.5642291996628,None,3,1.3449184000492096,851.5642291996628,None,1.3449184000492096,852.9446358997375,None,853.4576391996816,None,853.4576391996816,None,n,1.4673438994213939,853.4576391996816,None,1.4673438994213939,,,91Silent,001,2022_Nov_21_1104,ProdSingRedoBetween,2021.2.3,59.93586882976953,
,,,,66,0,66,0,,,,,,,,,,,,,,,,,,,,,,859.8638687999919,None,,,,,,,,,,,,,,,,,title,41,67,silent,old,blue,855.4524226002395,None,855.4524226002395,None,5,3.024514999240637,855.4524226002395,None,3.024514999240637,858.4957913998514,None,858.9973347000778,None,858.9973347000778,None,f,0.8396065998822451,858.9973347000778,None,0.8396065998822451,,,91Silent,001,2022_Nov_21_1104,ProdSingRedoBetween,2021.2.3,59.93586882976953,
,,,,67,0,67,0,,,,,,,,,,,,,,,,,,,,,,863.2004303000867,None,,,,,,,,,,,,,,,,,group,91,68,silent,new,null,860.3766961004585,None,860.3766961004585,None,1,1.4522490995004773,860.3766961004585,None,1.4522490995004773,861.850343500264,None,862.3497513001785,None,862.3497513001785,None,n,0.8231762005016208,862.3497513001785,None,0.8231762005016208,,,91Silent,001,2022_Nov_21_1104,ProdSingRedoBetween,2021.2.3,59.93586882976953,
,,,,68,0,68,0,,,,,,,,,,,,,,,,,,,,,,865.886588299647,None,,,,,,,,,,,,,,,,,carry,161,69,silent,new,null,863.7092516999692,None,863.7092516999692,None,1,1.2237358000129461,863.7092516999692,None,1.2237358000129461,864.9539288999513,None,865.4696327997372,None,865.4696327997372,None,n,0.39136730041354895,865.4696327997372,None,0.39136730041354895,,,91Silent,001,2022_Nov_21_1104,ProdSingRedoBetween,2021.2.3,59.93586882976953,
,,,,69,0,69,0,,,,,,,,,,,,,,,,,,,,,,868.2421521004289,None,,,,,,,,,,,,,,,,,thing,109,70,silent,new,null,866.3962837997824,None,866.3962837997824,None,1,1.016559099778533,866.3962837997824,None,1.016559099778533,867.4391189999878,None,867.9447606997564,None,867.9447606997564,None,n,0.2682375004515052,867.9447606997564,None,0.2682375004515052,,,91Silent,001,2022_Nov_21_1104,ProdSingRedoBetween,2021.2.3,59.93586882976953,
,,,,70,0,70,0,,,,,,,,,,,,,,,,,,,,,,870.94415749982,None,,,,,,,,,,,,,,,,,employment,2,71,silent,old,yellow,868.7648721998557,None,868.7648721998557,None,2,1.2562087001278996,868.7648721998557,None,1.2562087001278996,870.0416446998715,None,870.5448662005365,None,870.5448662005365,None,n,0.38022630009800196,870.5448662005365,None,0.38022630009800196,,,91Silent,001,2022_Nov_21_1104,ProdSingRedoBetween,2021.2.3,59.93586882976953,
,,,,71,0,71,0,,,,,,,,,,,,,,,,,,,,,,873.2437465004623,None,,,,,,,,,,,,,,,,,shear,6,72,silent,old,yellow,871.4682160997763,None,871.4682160997763,None,1,0.9288504002615809,871.4682160997763,None,0.9288504002615809,872.4375640004873,None,872.9436365999281,None,872.9436365999281,None,n,0.2772857006639242,872.9436365999281,None,0.2772857006639242,,,91Silent,001,2022_Nov_21_1104,ProdSingRedoBetween,2021.2.3,59.93586882976953,
,,,,72,0,72,0,,,,,,,,,,,,,,,,,,,,,,875.5627472996712,None,,,,,,,,,,,,,,,,,personnel,104,73,silent,new,null,873.7533940998837,None,873.7533940998837,None,1,0.899473300203681,873.7533940998837,None,0.899473300203681,874.6806910000741,None,875.199220799841,None,875.199220799841,None,n,0.33376009948551655,875.199220799841,None,0.33376009948551655,,,91Silent,001,2022_Nov_21_1104,ProdSingRedoBetween,2021.2.3,59.93586882976953,
,,,,73,0,73,0,,,,,,,,,,,,,,,,,,,,,,878.7994293998927,None,,,,,,,,,,,,,,,,,master,75,74,silent,old,red,876.0672925002873,None,876.0672925002873,None,3,1.3775324001908302,876.0672925002873,None,1.3775324001908302,877.4709879998118,None,877.981840999797,None,877.981840999797,None,f,0.7990700006484985,877.981840999797,None,0.7990700006484985,,,91Silent,001,2022_Nov_21_1104,ProdSingRedoBetween,2021.2.3,59.93586882976953,
,,,,74,0,74,0,,,,,,,,,,,,,,,,,,,,,,881.869024399668,None,,,,,,,,,,,,,,,,,fight,124,75,silent,new,null,879.3073297999799,None,879.3073297999799,None,1,1.7456915993243456,879.3073297999799,None,1.7456915993243456,881.0718012005091,None,881.5856822999194,None,881.5856822999194,None,n,0.2672324003651738,881.5856822999194,None,0.2672324003651738,,,91Silent,001,2022_Nov_21_1104,ProdSingRedoBetween,2021.2.3,59.93586882976953,
,,,,75,0,75,0,,,,,,,,,,,,,,,,,,,,,,885.0890488997102,None,,,,,,,,,,,,,,,,,enemy,164,76,silent,new,null,882.3798759002239,None,882.3798759002239,None,5,1.825062700547278,882.3798759002239,None,1.825062700547278,884.2247665002942,None,884.7386594004929,None,884.7386594004929,None,f,0.3302960004657507,884.7386594004929,None,0.3302960004657507,,,91Silent,001,2022_Nov_21_1104,ProdSingRedoBetween,2021.2.3,59.93586882976953,
,,,,76,0,76,0,,,,,,,,,,,,,,,,,,,,,,887.6415202999488,None,,,,,,,,,,,,,,,,,substance,46,77,silent,old,blue,885.5998322004452,None,885.5998322004452,None,5,1.365077399648726,885.5998322004452,None,1.365077399648726,886.9977503996342,None,887.5131115000695,None,887.5131115000695,None,f,0.09980530012398958,887.5131115000695,None,0.09980530012398958,,,91Silent,001,2022_Nov_21_1104,ProdSingRedoBetween,2021.2.3,59.93586882976953,
,,,,77,0,77,0,,,,,,,,,,,,,,,,,,,,,,892.8967260001227,None,,,,,,,,,,,,,,,,,congress,149,78,silent,new,null,888.1503849001601,None,888.1503849001601,None,3,3.1504790000617504,888.1503849001601,None,3.1504790000617504,891.3293387005106,None,891.833624300547,None,891.833624300547,None,n,1.0352622997015715,891.833624300547,None,1.0352622997015715,,,91Silent,001,2022_Nov_21_1104,ProdSingRedoBetween,2021.2.3,59.93586882976953,
,,,,78,0,78,0,,,,,,,,,,,,,,,,,,,,,,896.8339440999553,None,,,,,,,,,,,,,,,,,distance,31,79,silent,old,blue,893.4073895001784,None,893.4073895001784,None,5,2.101543700322509,893.4073895001784,None,2.101543700322509,895.5338923996314,None,896.0392856001854,None,896.0392856001854,None,f,0.7735117003321648,896.0392856001854,None,0.7735117003321648,,,91Silent,001,2022_Nov_21_1104,ProdSingRedoBetween,2021.2.3,59.93586882976953,
,,,,79,0,79,0,,,,,,,,,,,,,,,,,,,,,,899.9872944997624,None,,,,,,,,,,,,,,,,,division,140,80,silent,new,null,897.3466659002006,None,897.3466659002006,None,4,1.6982124000787735,897.3466659002006,None,1.6982124000787735,899.0719857998192,None,899.5869145998731,None,899.5869145998731,None,f,0.37001970037817955,899.5869145998731,None,0.37001970037817955,,,91Silent,001,2022_Nov_21_1104,ProdSingRedoBetween,2021.2.3,59.93586882976953,
,,,,80,0,80,0,,,,,,,,,,,,,,,,,,,,,,904.6250588996336,None,,,,,,,,,,,,,,,,,majority,52,81,silent,old,blue,900.5016312003136,None,900.5016312003136,None,5,2.4472422003746033,900.5016312003136,None,2.4472422003746033,902.9758002003655,None,903.4913734998554,None,903.4913734998554,None,f,1.1135005997493863,903.4913734998554,None,1.1135005997493863,,,91Silent,001,2022_Nov_21_1104,ProdSingRedoBetween,2021.2.3,59.93586882976953,
,,,,81,0,81,0,,,,,,,,,,,,,,,,,,,,,,906.8939946005121,None,,,,,,,,,,,,,,,,,space,123,82,silent,new,null,905.1287254001945,None,905.1287254001945,None,1,1.1401943005621433,905.1287254001945,None,1.1401943005621433,906.29846229963,None,906.8149146996439,None,906.8149146996439,None,n,0.05410970002412796,906.8149146996439,None,0.05410970002412796,,,91Silent,001,2022_Nov_21_1104,ProdSingRedoBetween,2021.2.3,59.93586882976953,
,,,,82,0,82,0,,,,,,,,,,,,,,,,,,,,,,909.8300523003563,None,,,,,,,,,,,,,,,,,executive,133,83,silent,new,null,907.4003712004051,None,907.4003712004051,None,5,1.3805045997723937,907.4003712004051,None,1.3805045997723937,908.8000777000561,None,909.3183268997818,None,909.3183268997818,None,f,0.49468240048736334,909.3183268997818,None,0.49468240048736334,,,91Silent,001,2022_Nov_21_1104,ProdSingRedoBetween,2021.2.3,59.93586882976953,
,,,,83,0,83,0,,,,,,,,,,,,,,,,,,,,,,912.533019900322,None,,,,,,,,,,,,,,,,,waste,176,84,silent,new,null,910.3388785002753,None,910.3388785002753,None,1,1.177947400137782,910.3388785002753,None,1.177947400137782,911.5334353996441,None,912.0326097998768,None,912.0326097998768,None,n,0.4762544995173812,912.0326097998768,None,0.4762544995173812,,,91Silent,001,2022_Nov_21_1104,ProdSingRedoBetween,2021.2.3,59.93586882976953,
,,,,84,0,84,0,,,,,,,,,,,,,,,,,,,,,,916.1866568000987,None,,,,,,,,,,,,,,,,,tennis,49,85,silent,old,blue,913.0431957999244,None,913.0431957999244,None,6,1.9376590996980667,913.0431957999244,None,1.9376590996980667,915.0033809999004,None,915.5087369997054,None,915.5087369997054,None,r,0.648080799728632,915.5087369997054,None,0.648080799728632,,,91Silent,001,2022_Nov_21_1104,ProdSingRedoBetween,2021.2.3,59.93586882976953,
,,,,85,0,85,0,,,,,,,,,,,,,,,,,,,,,,919.7908696997911,None,,,,,,,,,,,,,,,,,childhood,39,86,silent,old,blue,916.6937349000946,None,916.6937349000946,None,4,2.1192659996449947,916.6937349000946,None,2.1192659996449947,918.8402196997777,None,919.3438202999532,None,919.3438202999532,None,f,0.42107389960438013,919.3438202999532,None,0.42107389960438013,,,91Silent,001,2022_Nov_21_1104,ProdSingRedoBetween,2021.2.3,59.93586882976953,
,,,,86,0,86,0,,,,,,,,,,,,,,,,,,,,,,924.9788274997845,None,,,,,,,,,,,,,,,,,dance,10,87,silent,old,yellow,920.2956253001466,None,920.2956253001466,None,4,3.3331482000648975,920.2956253001466,None,3.3331482000648975,923.6450244998559,None,924.1482971003279,None,924.1482971003279,None,f,0.8085433002561331,924.1482971003279,None,0.8085433002561331,,,91Silent,001,2022_Nov_21_1104,ProdSingRedoBetween,2021.2.3,59.93586882976953,
,,,,87,0,87,0,,,,,,,,,,,,,,,,,,,,,,929.749928300269,None,,,,,,,,,,,,,,,,,voice,99,88,silent,new,null,925.4891152000055,None,925.4891152000055,None,4,3.3238049000501633,925.4891152000055,None,3.3238049000501633,928.8418391002342,None,929.3542879000306,None,929.3542879000306,None,f,0.37854429986327887,929.3542879000306,None,0.37854429986327887,,,91Silent,001,2022_Nov_21_1104,ProdSingRedoBetween,2021.2.3,59.93586882976953,
,,,,88,0,88,0,,,,,,,,,,,,,,,,,,,,,,932.0066844001412,None,,,,,,,,,,,,,,,,,second,88,89,silent,old,red,930.2512114001438,None,930.2512114001438,None,1,1.073627700097859,930.2512114001438,None,1.073627700097859,931.3539682999253,None,931.86880510021,None,931.86880510021,None,n,0.11194560024887323,931.86880510021,None,0.11194560024887323,,,91Silent,001,2022_Nov_21_1104,ProdSingRedoBetween,2021.2.3,59.93586882976953,
,,,,89,0,89,0,,,,,,,,,,,,,,,,,,,,,,936.6604693001136,None,,,,,,,,,,,,,,,,,guest,63,90,silent,old,red,932.5219270996749,None,932.5219270996749,None,3,3.346901599317789,932.5219270996749,None,3.346901599317789,935.8907474000007,None,936.3946794001386,None,936.3946794001386,None,n,0.23440949991345406,936.3946794001386,None,0.23440949991345406,,,91Silent,001,2022_Nov_21_1104,ProdSingRedoBetween,2021.2.3,59.93586882976953,
,,,,90,0,90,0,,,,,,,,,,,,,,,,,,,,,,941.9290102999657,None,,,,,,,,,,,,,,,,,conference,165,91,silent,new,null,937.1865429999307,None,937.1865429999307,None,5,3.290243700146675,937.1865429999307,None,3.290243700146675,940.5050242999569,None,941.0115210004151,None,941.0115210004151,None,f,0.8893178002908826,941.0115210004151,None,0.8893178002908826,,,91Silent,001,2022_Nov_21_1104,ProdSingRedoBetween,2021.2.3,59.93586882976953,
,,,,91,0,91,0,,,,,,,,,,,,,,,,,,,,,,944.2836586004123,None,,,,,,,,,,,,,,,,,clean,144,92,silent,new,null,942.4372038003057,None,942.4372038003057,None,1,0.9915955001488328,942.4372038003057,None,0.9915955001488328,943.4481343999505,None,943.9517636997625,None,943.9517636997625,None,n,0.3090618997812271,943.9517636997625,None,0.3090618997812271,,,91Silent,001,2022_Nov_21_1104,ProdSingRedoBetween,2021.2.3,59.93586882976953,
,,,,92,0,92,0,,,,,,,,,,,,,,,,,,,,,,947.801529600285,None,,,,,,,,,,,,,,,,,universal,74,93,silent,old,red,944.8202149001881,None,944.8202149001881,None,3,1.4805540004745126,944.8202149001881,None,1.4805540004745126,946.3190419003367,None,946.8339807000011,None,946.8339807000011,None,n,0.9468627003952861,946.8339807000011,None,0.9468627003952861,,,91Silent,001,2022_Nov_21_1104,ProdSingRedoBetween,2021.2.3,59.93586882976953,
,,,,93,0,93,0,,,,,,,,,,,,,,,,,,,,,,952.8565402003005,None,,,,,,,,,,,,,,,,,cross,167,94,silent,new,null,948.3097397005185,None,948.3097397005185,None,5,3.2870677998289466,948.3097397005185,None,3.2870677998289466,951.623214200139,None,952.1225952999666,None,952.1225952999666,None,f,0.714232100173831,952.1225952999666,None,0.714232100173831,,,91Silent,001,2022_Nov_21_1104,ProdSingRedoBetween,2021.2.3,59.93586882976953,
,,,,94,0,94,0,,,,,,,,,,,,,,,,,,,,,,955.3279331000522,None,,,,,,,,,,,,,,,,,skill,82,95,silent,old,red,953.3643193999305,None,953.3643193999305,None,1,1.0564730996266007,953.3643193999305,None,1.0564730996266007,954.4448958998546,None,954.9657960999757,None,954.9657960999757,None,n,0.3429790996015072,954.9657960999757,None,0.3429790996015072,,,91Silent,001,2022_Nov_21_1104,ProdSingRedoBetween,2021.2.3,59.93586882976953,
,,,,95,0,95,0,,,,,,,,,,,,,,,,,,,,,,957.9950117003173,None,,,,,,,,,,,,,,,,,balance,143,96,silent,new,null,955.8429552000016,None,955.8429552000016,None,1,1.137835199944675,955.8429552000016,None,1.137835199944675,957.0131200002506,None,957.5324136000127,None,957.5324136000127,None,n,0.43240709975361824,957.5324136000127,None,0.43240709975361824,,,91Silent,001,2022_Nov_21_1104,ProdSingRedoBetween,2021.2.3,59.93586882976953,
,,,,96,0,96,0,,,,,,,,,,,,,,,,,,,,,,960.7308531999588,None,,,,,,,,,,,,,,,,,literature,136,97,silent,new,null,958.5044994996861,None,958.5044994996861,None,1,1.0923006003722548,958.5044994996861,None,1.0923006003722548,959.6151234004647,None,960.1336420997977,None,960.1336420997977,None,n,0.5671263001859188,960.1336420997977,None,0.5671263001859188,,,91Silent,001,2022_Nov_21_1104,ProdSingRedoBetween,2021.2.3,59.93586882976953,
,,,,97,0,97,0,,,,,,,,,,,,,,,,,,,,,,965.3189521003515,None,,,,,,,,,,,,,,,,,piece,66,98,silent,old,red,961.2396408002824,None,961.2396408002824,None,3,3.269101499579847,961.2396408002824,None,3.269101499579847,964.5354092000052,None,965.0354492003098,None,965.0354492003098,None,n,0.26524729933589697,965.0354492003098,None,0.26524729933589697,,,91Silent,001,2022_Nov_21_1104,ProdSingRedoBetween,2021.2.3,59.93586882976953,
,,,,98,0,98,0,,,,,,,,,,,,,,,,,,,,,,967.721505000256,None,,,,,,,,,,,,,,,,,volume,135,99,silent,new,null,965.8199551999569,None,965.8199551999569,None,1,1.2088286997750401,965.8199551999569,None,1.2088286997750401,967.0593827003613,None,967.5713910004124,None,967.5713910004124,None,n,0.12930569984018803,967.5713910004124,None,0.12930569984018803,,,91Silent,001,2022_Nov_21_1104,ProdSingRedoBetween,2021.2.3,59.93586882976953,
,,,,99,0,99,0,,,,,,,,,,,,,,,,,,,,,,970.6770448004827,None,,,,,,,,,,,,,,,,,opening,156,100,silent,new,null,968.2220266005024,None,968.2220266005024,None,1,1.2147361999377608,968.2220266005024,None,1.2147361999377608,969.4572775000706,None,969.9700258001685,None,969.9700258001685,None,n,0.6829618001356721,969.9700258001685,None,0.6829618001356721,,,91Silent,001,2022_Nov_21_1104,ProdSingRedoBetween,2021.2.3,59.93586882976953,
,,,,100,0,100,0,,,,,,,,,,,,,,,,,,,,,,973.5436158999801,None,,,,,,,,,,,,,,,,,appeal,98,101,silent,new,null,971.1976410998031,None,971.1976410998031,None,1,1.3671462005004287,971.1976410998031,None,1.3671462005004287,972.5929904002696,None,973.0998705001548,None,973.0998705001548,None,n,0.4168539000675082,973.0998705001548,None,0.4168539000675082,,,91Silent,001,2022_Nov_21_1104,ProdSingRedoBetween,2021.2.3,59.93586882976953,
,,,,101,0,101,0,,,,,,,,,,,,,,,,,,,,,,977.299446400255,None,,,,,,,,,,,,,,,,,addition,111,102,silent,new,null,974.0515438998118,None,974.0515438998118,None,4,2.297215700149536,974.0515438998118,None,2.297215700149536,976.381718300283,None,976.8972784997895,None,976.8972784997895,None,f,0.379547999240458,976.8972784997895,None,0.379547999240458,,,91Silent,001,2022_Nov_21_1104,ProdSingRedoBetween,2021.2.3,59.93586882976953,
,,,,102,0,102,0,,,,,,,,,,,,,,,,,,,,,,979.9168413002044,None,,,,,,,,,,,,,,,,,production,42,103,silent,old,blue,977.8320877002552,None,977.8320877002552,None,4,1.3567234994843602,977.8320877002552,None,1.3567234994843602,979.2230056999251,None,979.7368632005528,None,979.7368632005528,None,f,0.16384590044617653,979.7368632005528,None,0.16384590044617653,,,91Silent,001,2022_Nov_21_1104,ProdSingRedoBetween,2021.2.3,59.93586882976953,
,,,,103,0,103,0,,,,,,,,,,,,,,,,,,,,,,982.4192343996838,None,,,,,,,,,,,,,,,,,shock,54,104,silent,old,blue,980.417473600246,None,980.417473600246,None,4,1.3873400995507836,980.417473600246,None,1.3873400995507836,981.8422443997115,None,982.3527247002348,None,982.3527247002348,None,f,0.04401269927620888,982.3527247002348,None,0.04401269927620888,,,91Silent,001,2022_Nov_21_1104,ProdSingRedoBetween,2021.2.3,59.93586882976953,
,,,,104,0,104,0,,,,,,,,,,,,,,,,,,,,,,984.5882681999356,None,,,,,,,,,,,,,,,,,notice,85,105,silent,old,red,982.9274968001992,None,982.9274968001992,None,1,0.8772882996127009,982.9274968001992,None,0.8772882996127009,983.8206264004111,None,984.3259190004319,None,984.3259190004319,None,n,0.24683220032602549,984.3259190004319,None,0.24683220032602549,,,91Silent,001,2022_Nov_21_1104,ProdSingRedoBetween,2021.2.3,59.93586882976953,
,,,,105,0,105,0,,,,,,,,,,,,,,,,,,,,,,987.5744548002258,None,,,,,,,,,,,,,,,,,corner,57,106,silent,old,blue,985.0887964004651,None,985.0887964004651,None,5,1.6601296002045274,985.0887964004651,None,1.6601296002045274,986.7784128999338,None,987.2910513998941,None,987.2910513998941,None,f,0.2578159002587199,987.2910513998941,None,0.2578159002587199,,,91Silent,001,2022_Nov_21_1104,ProdSingRedoBetween,2021.2.3,59.93586882976953,
,,,,106,0,106,0,,,,,,,,,,,,,,,,,,,,,,990.5275384001434,None,,,,,,,,,,,,,,,,,season,115,107,silent,new,null,988.0790544999763,None,988.0790544999763,None,5,1.7738564992323518,988.0790544999763,None,1.7738564992323518,989.8856710996479,None,990.3958489997312,None,990.3958489997312,None,f,0.10484599974006414,990.3958489997312,None,0.10484599974006414,,,91Silent,001,2022_Nov_21_1104,ProdSingRedoBetween,2021.2.3,59.93586882976953,
,,,,107,0,107,0,,,,,,,,,,,,,,,,,,,,,,993.7185756005347,None,,,,,,,,,,,,,,,,,meeting,38,108,silent,old,blue,991.036472200416,None,991.036472200416,None,4,1.848309800028801,991.036472200416,None,1.848309800028801,992.9146734001115,None,993.4165550004691,None,993.4165550004691,None,f,0.2682355996221304,993.4165550004691,None,0.2682355996221304,,,91Silent,001,2022_Nov_21_1104,ProdSingRedoBetween,2021.2.3,59.93586882976953,
,,,,108,0,108,0,,,,,,,,,,,,,,,,,,,,,,997.2555830003694,None,,,,,,,,,,,,,,,,,crime,84,109,silent,old,red,994.231850899756,None,994.231850899756,None,6,2.2768734004348516,994.231850899756,None,2.2768734004348516,996.5343856001273,None,997.0366706997156,None,997.0366706997156,None,r,0.18404889944940805,997.0366706997156,None,0.18404889944940805,,,91Silent,001,2022_Nov_21_1104,ProdSingRedoBetween,2021.2.3,59.93586882976953,
,,,,109,0,109,0,,,,,,,,,,,,,,,,,,,,,,999.8200770001858,None,,,,,,,,,,,,,,,,,research,151,110,silent,new,null,997.7679535001516,None,997.7679535001516,None,1,1.1807408006861806,997.7679535001516,None,1.1807408006861806,998.9736270997673,None,999.4874656004831,None,999.4874656004831,None,n,0.3092885995283723,999.4874656004831,None,0.3092885995283723,,,91Silent,001,2022_Nov_21_1104,ProdSingRedoBetween,2021.2.3,59.93586882976953,
,,,,110,0,110,0,,,,,,,,,,,,,,,,,,,,,,1003.1442272001877,None,,,,,,,,,,,,,,,,,republic,171,111,silent,new,null,1000.3294371003285,None,1000.3294371003285,None,5,1.7953800996765494,1000.3294371003285,None,1.7953800996765494,1002.1565509000793,None,1002.6613119002432,None,1002.6613119002432,None,f,0.4634388005360961,1002.6613119002432,None,0.4634388005360961,,,91Silent,001,2022_Nov_21_1104,ProdSingRedoBetween,2021.2.3,59.93586882976953,
,,,,111,0,111,0,,,,,,,,,,,,,,,,,,,,,,1007.3275450998917,None,,,,,,,,,,,,,,,,,danger,112,112,silent,new,null,1003.6620049998164,None,1003.6620049998164,None,5,2.4147389996796846,1003.6620049998164,None,2.4147389996796846,1006.0948096001521,None,1006.6103092003614,None,1006.6103092003614,None,f,0.6903731999918818,1006.6103092003614,None,0.6903731999918818,,,91Silent,001,2022_Nov_21_1104,ProdSingRedoBetween,2021.2.3,59.93586882976953,
,,,,112,0,112,0,,,,,,,,,,,,,,,,,,,,,,1012.9345733998343,None,,,,,,,,,,,,,,,,,design,4,113,silent,old,yellow,1007.8383140005171,None,1007.8383140005171,None,3,2.8223745999857783,1007.8383140005171,None,2.8223745999857783,1010.6820481996983,None,1011.181646999903,None,1011.181646999903,None,n,1.727106299251318,1011.181646999903,None,1.727106299251318,,,91Silent,001,2022_Nov_21_1104,ProdSingRedoBetween,2021.2.3,59.93586882976953,
,,,,113,0,113,0,,,,,,,,,,,,,,,,,,,,,,1015.8693847004324,None,,,,,,,,,,,,,,,,,expansion,14,114,silent,old,yellow,1013.4432514002547,None,1013.4432514002547,None,5,1.4974143002182245,1013.4432514002547,None,1.4974143002182245,1014.9705998003483,None,1015.4858608003706,None,1015.4858608003706,None,f,0.35886439960449934,1015.4858608003706,None,0.35886439960449934,,,91Silent,001,2022_Nov_21_1104,ProdSingRedoBetween,2021.2.3,59.93586882976953,
,,,,114,0,114,0,,,,,,,,,,,,,,,,,,,,,,1020.7075330000371,None,,,,,,,,,,,,,,,,,salary,37,115,silent,old,blue,1016.3829107005149,None,1016.3829107005149,None,6,2.9739869004115462,1016.3829107005149,None,2.9739869004115462,1019.3741204002872,None,1019.8735079001635,None,1019.8735079001635,None,r,0.8191865002736449,1019.8735079001635,None,0.8191865002736449,,,91Silent,001,2022_Nov_21_1104,ProdSingRedoBetween,2021.2.3,59.93586882976953,
,,,,115,0,115,0,,,,,,,,,,,,,,,,,,,,,,1024.210922899656,None,,,,,,,,,,,,,,,,,platform,93,116,silent,new,null,1021.2194355996326,None,1021.2194355996326,None,3,1.8572417004033923,1021.2194355996326,None,1.8572417004033923,1023.096735900268,None,1023.6170698003843,None,1023.6170698003843,None,n,0.5635144002735615,1023.6170698003843,None,0.5635144002735615,,,91Silent,001,2022_Nov_21_1104,ProdSingRedoBetween,2021.2.3,59.93586882976953,
,,,,116,0,116,0,,,,,,,,,,,,,,,,,,,,,,1027.3672751998529,None,,,,,,,,,,,,,,,,,breath,7,117,silent,old,yellow,1024.7115166001022,None,1024.7115166001022,None,6,1.4053298002108932,1024.7115166001022,None,1.4053298002108932,1026.1477795997635,None,1026.646908099763,None,1026.646908099763,None,r,0.6936736004427075,1026.646908099763,None,0.6936736004427075,,,91Silent,001,2022_Nov_21_1104,ProdSingRedoBetween,2021.2.3,59.93586882976953,
,,,,117,0,117,0,,,,,,,,,,,,,,,,,,,,,,1030.5339497998357,None,,,,,,,,,,,,,,,,,business,9,118,silent,old,yellow,1027.8815264003351,None,1027.8815264003351,None,2,1.7550459001213312,1027.8815264003351,None,1.7550459001213312,1029.6690181000158,None,1030.1844442002475,None,1030.1844442002475,None,n,0.32422030065208673,1030.1844442002475,None,0.32422030065208673,,,91Silent,001,2022_Nov_21_1104,ProdSingRedoBetween,2021.2.3,59.93586882976953,
,,,,118,0,118,0,,,,,,,,,,,,,,,,,,,,,,1033.9705301001668,None,,,,,,,,,,,,,,,,,taste,22,119,silent,old,yellow,1031.0393530996516,None,1031.0393530996516,None,6,1.5653061997145414,1031.0393530996516,None,1.5653061997145414,1032.6371061997488,None,1033.1367998998612,None,1033.1367998998612,None,r,0.8040116000920534,1033.1367998998612,None,0.8040116000920534,,,91Silent,001,2022_Nov_21_1104,ProdSingRedoBetween,2021.2.3,59.93586882976953,
,,,,119,0,119,0,,,,,,,,,,,,,,,,,,,,,,1037.70776590053,None,,,,,,,,,,,,,,,,,frank,25,120,silent,old,yellow,1034.4808865003288,None,1034.4808865003288,None,1,1.1877605998888612,1034.4808865003288,None,1.1877605998888612,1035.6907358998433,None,1036.1944235004485,None,1036.1944235004485,None,n,1.4823565995320678,1036.1944235004485,None,1.4823565995320678,,,91Silent,001,2022_Nov_21_1104,ProdSingRedoBetween,2021.2.3,59.93586882976953,
,,,,120,0,120,0,,,,,,,,,,,,,,,,,,,,,,1040.5438711000606,None,,,,,,,,,,,,,,,,,edition,128,121,silent,new,null,1038.214636599645,None,1038.214636599645,None,2,1.2939651003107429,1038.214636599645,None,1.2939651003107429,1039.5273535996675,None,1040.026951700449,None,1040.026951700449,None,n,0.48970200028270483,1040.026951700449,None,0.48970200028270483,,,91Silent,001,2022_Nov_21_1104,ProdSingRedoBetween,2021.2.3,59.93586882976953,
,,,,121,0,121,0,,,,,,,,,,,,,,,,,,,,,,1043.8306077998132,None,,,,,,,,,,,,,,,,,material,68,122,silent,old,red,1041.0472210003063,None,1041.0472210003063,None,1,1.9174011005088687,1041.0472210003063,None,1.9174011005088687,1042.9815969001502,None,1043.4992677001283,None,1043.4992677001283,None,n,0.30542320013046265,1043.4992677001283,None,0.30542320013046265,,,91Silent,001,2022_Nov_21_1104,ProdSingRedoBetween,2021.2.3,59.93586882976953,
,,,,122,0,122,0,,,,,,,,,,,,,,,,,,,,,,1046.316452300176,None,,,,,,,,,,,,,,,,,industry,8,123,silent,old,yellow,1044.339624799788,None,1044.339624799788,None,3,1.0172335002571344,1044.339624799788,None,1.0172335002571344,1045.3875150000677,None,1045.899415500462,None,1045.899415500462,None,n,0.39324009977281094,1045.899415500462,None,0.39324009977281094,,,91Silent,001,2022_Nov_21_1104,ProdSingRedoBetween,2021.2.3,59.93586882976953,
,,,,123,0,123,0,,,,,,,,,,,,,,,,,,,,,,1050.4038880998269,None,,,,,,,,,,,,,,,,,sight,103,124,silent,new,null,1046.8201334001496,None,1046.8201334001496,None,5,2.7204994997009635,1046.8201334001496,None,2.7204994997009635,1049.5706674000248,None,1050.0741809997708,None,1050.0741809997708,None,f,0.30649330001324415,1050.0741809997708,None,0.30649330001324415,,,91Silent,001,2022_Nov_21_1104,ProdSingRedoBetween,2021.2.3,59.93586882976953,
,,,,124,0,124,0,,,,,,,,,,,,,,,,,,,,,,1052.891137599945,None,,,,,,,,,,,,,,,,,pretty,45,125,silent,old,blue,1050.9057999001816,None,1050.9057999001816,None,6,1.0908757001161575,1050.9057999001816,None,1.0908757001161575,1052.025219200179,None,1052.5391576997936,None,1052.5391576997936,None,r,0.3297035004943609,1052.5391576997936,None,0.3297035004943609,,,91Silent,001,2022_Nov_21_1104,ProdSingRedoBetween,2021.2.3,59.93586882976953,
,,,,125,0,125,0,,,,,,,,,,,,,,,,,,,,,,1055.5923632001504,None,,,,,,,,,,,,,,,,,fellow,175,126,silent,new,null,1053.3978605000302,None,1053.3978605000302,None,1,1.3188191996887326,1053.3978605000302,None,1.3188191996887326,1054.7454960001633,None,1055.2603545999154,None,1055.2603545999154,None,n,0.31229660008102655,1055.2603545999154,None,0.31229660008102655,,,91Silent,001,2022_Nov_21_1104,ProdSingRedoBetween,2021.2.3,59.93586882976953,
,,,,126,0,126,0,,,,,,,,,,,,,,,,,,,,,,1058.1113660000265,None,,,,,,,,,,,,,,,,,dozen,157,127,silent,new,null,1056.1007606005296,None,1056.1007606005296,None,1,1.223772400058806,1056.1007606005296,None,1.223772400058806,1057.3440576996654,None,1057.8446198999882,None,1057.8446198999882,None,n,0.24805210065096617,1057.8446198999882,None,0.24805210065096617,,,91Silent,001,2022_Nov_21_1104,ProdSingRedoBetween,2021.2.3,59.93586882976953,
,,,,127,0,127,0,,,,,,,,,,,,,,,,,,,,,,1060.2969113998115,None,,,,,,,,,,,,,,,,,story,121,128,silent,new,null,1058.6143672000617,None,1058.6143672000617,None,1,1.030175399966538,1058.6143672000617,None,1.030175399966538,1059.6643216004595,None,1060.1636385004967,None,1060.1636385004967,None,n,0.10500530060380697,1060.1636385004967,None,0.10500530060380697,,,91Silent,001,2022_Nov_21_1104,ProdSingRedoBetween,2021.2.3,59.93586882976953,
,,,,128,0,128,0,,,,,,,,,,,,,,,,,,,,,,1062.7995939003304,None,,,,,,,,,,,,,,,,,rapid,56,129,silent,old,blue,1060.800207699649,None,1060.800207699649,None,3,1.1644893996417522,1060.800207699649,None,1.1644893996417522,1061.9833303997293,None,1062.4843380004168,None,1062.4843380004168,None,n,0.29632140044122934,1062.4843380004168,None,0.29632140044122934,,,91Silent,001,2022_Nov_21_1104,ProdSingRedoBetween,2021.2.3,59.93586882976953,
,,,,129,0,129,0,,,,,,,,,,,,,,,,,,,,,,1066.2965785004199,None,,,,,,,,,,,,,,,,,capital,179,130,silent,new,null,1063.3093534000218,None,1063.3093534000218,None,5,2.1351982997730374,1063.3093534000218,None,2.1351982997730374,1065.4711579997092,None,1065.9863665997982,None,1065.9863665997982,None,f,0.2742469999939203,1065.9863665997982,None,0.2742469999939203,,,91Silent,001,2022_Nov_21_1104,ProdSingRedoBetween,2021.2.3,59.93586882976953,
,,,,130,0,130,0,,,,,,,,,,,,,,,,,,,,,,1070.1568044004962,None,,,,,,,,,,,,,,,,,treatment,139,131,silent,new,null,1066.803635300137,None,1066.803635300137,None,3,2.5449573006480932,1066.803635300137,None,2.5449573006480932,1069.372692800127,None,1069.8734047999606,None,1069.8734047999606,None,n,0.25923999957740307,1069.8734047999606,None,0.25923999957740307,,,91Silent,001,2022_Nov_21_1104,ProdSingRedoBetween,2021.2.3,59.93586882976953,
,,,,131,0,131,0,,,,,,,,,,,,,,,,,,,,,,1073.1283497000113,None,,,,,,,,,,,,,,,,,entrance,34,132,silent,old,blue,1070.6603198004887,None,1070.6603198004887,None,5,1.7282960005104542,1070.6603198004887,None,1.7282960005104542,1072.417483200319,None,1072.9261394999921,None,1072.9261394999921,None,f,0.18253799993544817,1072.9261394999921,None,0.18253799993544817,,,91Silent,001,2022_Nov_21_1104,ProdSingRedoBetween,2021.2.3,59.93586882976953,
,,,,132,0,132,0,,,,,,,,,,,,,,,,,,,,,,1075.5789563003927,None,,,,,,,,,,,,,,,,,bicycle,61,133,silent,old,red,1073.644616900012,None,1073.644616900012,None,1,1.0799750993028283,1073.644616900012,None,1.0799750993028283,1074.7460928997025,None,1075.2454915000126,None,1075.2454915000126,None,n,0.31115270033478737,1075.2454915000126,None,0.31115270033478737,,,91Silent,001,2022_Nov_21_1104,ProdSingRedoBetween,2021.2.3,59.93586882976953,
,,,,133,0,133,0,,,,,,,,,,,,,,,,,,,,,,1079.2658866001293,None,,,,,,,,,,,,,,,,,style,55,134,silent,old,blue,1076.0923937000334,None,1076.0923937000334,None,6,1.776205200701952,1076.0923937000334,None,1.776205200701952,1077.8989182999358,None,1078.4041387001052,None,1078.4041387001052,None,r,0.8323992993682623,1078.4041387001052,None,0.8323992993682623,,,91Silent,001,2022_Nov_21_1104,ProdSingRedoBetween,2021.2.3,59.93586882976953,
,,,,134,0,134,0,,,,,,,,,,,,,,,,,,,,,,1082.7861182997003,None,,,,,,,,,,,,,,,,,watch,101,135,silent,new,null,1079.7694918997586,None,1079.7694918997586,None,4,2.0911278994753957,1079.7694918997586,None,2.0911278994753957,1081.8890922004357,None,1082.4057598002255,None,1082.4057598002255,None,n,0.35079709999263287,1082.4057598002255,None,0.35079709999263287,,,91Silent,001,2022_Nov_21_1104,ProdSingRedoBetween,2021.2.3,59.93586882976953,
,,,,135,0,135,0,,,,,,,,,,,,,,,,,,,,,,1085.7391252005473,None,,,,,,,,,,,,,,,,,collection,162,136,silent,new,null,1083.2999657997862,None,1083.2999657997862,None,1,1.1607282003387809,1083.2999657997862,None,1.1607282003387809,1084.494446599856,None,1085.0099358996376,None,1085.0099358996376,None,n,0.7066567996516824,1085.0099358996376,None,0.7066567996516824,,,91Silent,001,2022_Nov_21_1104,ProdSingRedoBetween,2021.2.3,59.93586882976953,
,,,,136,0,136,0,,,,,,,,,,,,,,,,,,,,,,1089.8098547998816,None,,,,,,,,,,,,,,,,,object,131,137,silent,new,null,1086.2538083996624,None,1086.2538083996624,None,6,2.718631500378251,1086.2538083996624,None,2.718631500378251,1088.9921196997166,None,1089.496458900161,None,1089.496458900161,None,r,0.29212830029428005,1089.496458900161,None,0.29212830029428005,,,91Silent,001,2022_Nov_21_1104,ProdSingRedoBetween,2021.2.3,59.93586882976953,
,,,,137,0,137,0,,,,,,,,,,,,,,,,,,,,,,1092.212206499651,None,,,,,,,,,,,,,,,,,century,106,138,silent,new,null,1090.3196841999888,None,1090.3196841999888,None,1,1.1168288998305798,1090.3196841999888,None,1.1168288998305798,1091.4616499003023,None,1091.970364799723,None,1091.970364799723,None,n,0.21029969956725836,1091.970364799723,None,0.21029969956725836,,,91Silent,001,2022_Nov_21_1104,ProdSingRedoBetween,2021.2.3,59.93586882976953,
,,,,138,0,138,0,,,,,,,,,,,,,,,,,,,,,,1095.5822703000158,None,,,,,,,,,,,,,,,,,empty,148,139,silent,new,null,1092.7276819003746,None,1092.7276819003746,None,2,1.8288704995065928,1092.7276819003746,None,1.8288704995065928,1094.5824512997642,None,1095.0818747999147,None,1095.0818747999147,None,n,0.48266799934208393,1095.0818747999147,None,0.48266799934208393,,,91Silent,001,2022_Nov_21_1104,ProdSingRedoBetween,2021.2.3,59.93586882976953,
,,,,139,0,139,0,,,,,,,,,,,,,,,,,,,,,,1098.1347598005086,None,,,,,,,,,,,,,,,,,military,100,140,silent,new,null,1096.0839600004256,None,1096.0839600004256,None,5,1.3766994997859001,1096.0839600004256,None,1.3766994997859001,1097.487626899965,None,1098.0013920003548,None,1098.0013920003548,None,f,0.1071442998945713,1098.0013920003548,None,0.1071442998945713,,,91Silent,001,2022_Nov_21_1104,ProdSingRedoBetween,2021.2.3,59.93586882976953,
,,,,140,0,140,0,,,,,,,,,,,,,,,,,,,,,,1101.5881938003004,None,,,,,,,,,,,,,,,,,union,44,141,silent,old,blue,1098.6513409996405,None,1098.6513409996405,None,6,2.0811843993142247,1098.6513409996405,None,2.0811843993142247,1100.764722299762,None,1101.2713981997222,None,1101.2713981997222,None,r,0.29318959917873144,1101.2713981997222,None,0.29318959917873144,,,91Silent,001,2022_Nov_21_1104,ProdSingRedoBetween,2021.2.3,59.93586882976953,
,,,,141,0,141,0,,,,,,,,,,,,,,,,,,,,,,1103.9414389003068,None,,,,,,,,,,,,,,,,,public,118,142,silent,new,null,1102.0917525999248,None,1102.0917525999248,None,1,0.9928079005330801,1102.0917525999248,None,0.9928079005330801,1103.113551300019,None,1103.6277409000322,None,1103.6277409000322,None,n,0.29678270034492016,1103.6277409000322,None,0.29678270034492016,,,91Silent,001,2022_Nov_21_1104,ProdSingRedoBetween,2021.2.3,59.93586882976953,
,,,,142,0,142,0,,,,,,,,,,,,,,,,,,,,,,1106.559817300178,None,,,,,,,,,,,,,,,,,discovery,86,143,silent,old,red,1104.4570808000863,None,1104.4570808000863,None,2,0.9073622999712825,1104.4570808000863,None,0.9073622999712825,1105.391842700541,None,1105.901614899747,None,1105.901614899747,None,n,0.6308864997699857,1105.901614899747,None,0.6308864997699857,,,91Silent,001,2022_Nov_21_1104,ProdSingRedoBetween,2021.2.3,59.93586882976953,
,,,,143,0,143,0,,,,,,,,,,,,,,,,,,,,,,1109.1288692997769,None,,,,,,,,,,,,,,,,,junior,51,144,silent,old,blue,1107.0687472997233,None,1107.0687472997233,None,1,1.071852500550449,1107.0687472997233,None,1.071852500550449,1108.1654957998544,None,1108.6840572003275,None,1108.6840572003275,None,n,0.4164925003424287,1108.6840572003275,None,0.4164925003424287,,,91Silent,001,2022_Nov_21_1104,ProdSingRedoBetween,2021.2.3,59.93586882976953,
,,,,144,0,144,0,,,,,,,,,,,,,,,,,,,,,,1112.4198920000345,None,,,,,,,,,,,,,,,,,suggestion,47,145,silent,old,blue,1109.640800899826,None,1109.640800899826,None,4,1.9156248001381755,1109.640800899826,None,1.9156248001381755,1111.5953449001536,None,1112.1028535002843,None,1112.1028535002843,None,f,0.2939260005950928,1112.1028535002843,None,0.2939260005950928,,,91Silent,001,2022_Nov_21_1104,ProdSingRedoBetween,2021.2.3,59.93586882976953,
,,,,145,0,145,0,,,,,,,,,,,,,,,,,,,,,,1115.6077706003562,None,,,,,,,,,,,,,,,,,fashion,72,146,silent,old,red,1112.9377076998353,None,1112.9377076998353,None,5,1.7627563998103142,1112.9377076998353,None,1.7627563998103142,1114.7211271999404,None,1115.2396045997739,None,1115.2396045997739,None,f,0.34104100055992603,1115.2396045997739,None,0.34104100055992603,,,91Silent,001,2022_Nov_21_1104,ProdSingRedoBetween,2021.2.3,59.93586882976953,
,,,,146,0,146,0,,,,,,,,,,,,,,,,,,,,,,1118.621869600378,None,,,,,,,,,,,,,,,,,speech,96,147,silent,new,null,1116.1271730000153,None,1116.1271730000153,None,1,1.4452536003664136,1116.1271730000153,None,1.4452536003664136,1117.5888673998415,None,1118.0906969001517,None,1118.0906969001517,None,n,0.5058235991746187,1118.0906969001517,None,0.5058235991746187,,,91Silent,001,2022_Nov_21_1104,ProdSingRedoBetween,2021.2.3,59.93586882976953,
,,,,147,0,147,0,,,,,,,,,,,,,,,,,,,,,,1121.6581301996484,None,,,,,,,,,,,,,,,,,report,23,148,silent,old,yellow,1119.1316173002124,None,1119.1316173002124,None,5,1.7609598999843001,1119.1316173002124,None,1.7609598999843001,1120.9073801003397,None,1121.4080439005047,None,1121.4080439005047,None,f,0.2205135002732277,1121.4080439005047,None,0.2205135002732277,,,91Silent,001,2022_Nov_21_1104,ProdSingRedoBetween,2021.2.3,59.93586882976953,
,,,,148,0,148,0,,,,,,,,,,,,,,,,,,,,,,1124.1607764000073,None,,,,,,,,,,,,,,,,,under,141,149,silent,new,null,1122.16696790047,None,1122.16696790047,None,1,1.1575608998537064,1122.16696790047,None,1.1575608998537064,1123.343377799727,None,1123.8477539997548,None,1123.8477539997548,None,n,0.2927719000726938,1123.8477539997548,None,0.2927719000726938,,,91Silent,001,2022_Nov_21_1104,ProdSingRedoBetween,2021.2.3,59.93586882976953,
,,,,149,0,149,0,,,,,,,,,,,,,,,,,,,,,,1126.7422719998285,None,,,,,,,,,,,,,,,,,council,159,150,silent,new,null,1124.6758623002097,None,1124.6758623002097,None,6,1.1286616008728743,1124.6758623002097,None,1.1286616008728743,1125.8320799004287,None,1126.3463685000315,None,1126.3463685000315,None,r,0.35419389978051186,1126.3463685000315,None,0.35419389978051186,,,91Silent,001,2022_Nov_21_1104,ProdSingRedoBetween,2021.2.3,59.93586882976953,
,,,,150,0,150,0,,,,,,,,,,,,,,,,,,,,,,1130.1177486004308,None,,,,,,,,,,,,,,,,,rural,160,151,silent,new,null,1127.249813299626,None,1127.249813299626,None,1,2.018619599752128,1127.249813299626,None,2.018619599752128,1129.3049317998812,None,1129.8164237998426,None,1129.8164237998426,None,n,0.27611800003796816,1129.8164237998426,None,0.27611800003796816,,,91Silent,001,2022_Nov_21_1104,ProdSingRedoBetween,2021.2.3,59.93586882976953,
,,,,151,0,151,0,,,,,,,,,,,,,,,,,,,,,,1134.3875278998166,None,,,,,,,,,,,,,,,,,phrase,60,152,silent,old,red,1130.6202702997252,None,1130.6202702997252,None,4,3.0081418994814157,1130.6202702997252,None,3.0081418994814157,1133.6535275001079,None,1134.1558330999687,None,1134.1558330999687,None,f,0.20873240008950233,1134.1558330999687,None,0.20873240008950233,,,91Silent,001,2022_Nov_21_1104,ProdSingRedoBetween,2021.2.3,59.93586882976953,
,,,,152,0,152,0,,,,,,,,,,,,,,,,,,,,,,1136.358065600507,None,,,,,,,,,,,,,,,,,benefit,146,153,silent,new,null,1134.9007422998548,None,1134.9007422998548,None,1,0.8238516002893448,1134.9007422998548,None,0.8238516002893448,1135.7630783999339,None,1136.277381800115,None,1136.277381800115,None,n,0.06310159992426634,1136.277381800115,None,0.06310159992426634,,,91Silent,001,2022_Nov_21_1104,ProdSingRedoBetween,2021.2.3,59.93586882976953,
,,,,153,0,153,0,,,,,,,,,,,,,,,,,,,,,,1139.1423394000158,None,,,,,,,,,,,,,,,,,candidate,155,154,silent,new,null,1136.8739456003532,None,1136.8739456003532,None,3,1.410729800350964,1136.8739456003532,None,1.410729800350964,1138.3158461004496,None,1138.8291343003511,None,1138.8291343003511,None,n,0.29530369956046343,1138.8291343003511,None,0.29530369956046343,,,91Silent,001,2022_Nov_21_1104,ProdSingRedoBetween,2021.2.3,59.93586882976953,
,,,,154,0,154,0,,,,,,,,,,,,,,,,,,,,,,1142.264075900428,None,,,,,,,,,,,,,,,,,nature,70,155,silent,old,red,1139.649883300066,None,1139.649883300066,None,5,1.5386397000402212,1139.649883300066,None,1.5386397000402212,1141.2175518004224,None,1141.7284013004974,None,1141.7284013004974,None,f,0.5160709004849195,1141.7284013004974,None,0.5160709004849195,,,91Silent,001,2022_Nov_21_1104,ProdSingRedoBetween,2021.2.3,59.93586882976953,
,,,,155,0,155,0,,,,,,,,,,,,,,,,,,,,,,1146.4830015003681,None,,,,,,,,,,,,,,,,,citizen,33,156,silent,old,blue,1142.7846870003268,None,1142.7846870003268,None,6,2.8357039000838995,1142.7846870003268,None,2.8357039000838995,1145.651340899989,None,1146.1709543000907,None,1146.1709543000907,None,r,0.28152089938521385,1146.1709543000907,None,0.28152089938521385,,,91Silent,001,2022_Nov_21_1104,ProdSingRedoBetween,2021.2.3,59.93586882976953,
,,,,156,0,156,0,,,,,,,,,,,,,,,,,,,,,,1148.838113100268,None,,,,,,,,,,,,,,,,,number,50,157,silent,old,blue,1146.98384920042,None,1146.98384920042,None,1,0.996526500210166,1146.98384920042,None,0.996526500210166,1148.001203100197,None,1148.5091851996258,None,1148.5091851996258,None,n,0.3113344004377723,1148.5091851996258,None,0.3113344004377723,,,91Silent,001,2022_Nov_21_1104,ProdSingRedoBetween,2021.2.3,59.93586882976953,
,,,,157,0,157,0,,,,,,,,,,,,,,,,,,,,,,1151.0542566999793,None,,,,,,,,,,,,,,,,,close,97,158,silent,new,null,1149.3567192004994,None,1149.3567192004994,None,2,1.055718100629747,1149.3567192004994,None,1.055718100629747,1150.4381956998259,None,1150.9433327000588,None,1150.9433327000588,None,n,0.09303109999746084,1150.9433327000588,None,0.09303109999746084,,,91Silent,001,2022_Nov_21_1104,ProdSingRedoBetween,2021.2.3,59.93586882976953,
,,,,158,0,158,0,,,,,,,,,,,,,,,,,,,,,,1153.8748107003048,None,,,,,,,,,,,,,,,,,bright,28,159,silent,old,yellow,1151.5632336996496,None,1151.5632336996496,None,6,1.425174699164927,1151.5632336996496,None,1.425174699164927,1153.0074621001258,None,1153.5132760005072,None,1153.5132760005072,None,r,0.33130110055208206,1153.5132760005072,None,0.33130110055208206,,,91Silent,001,2022_Nov_21_1104,ProdSingRedoBetween,2021.2.3,59.93586882976953,
,,,,159,0,159,0,,,,,,,,,,,,,,,,,,,,,,1156.7765618003905,None,,,,,,,,,,,,,,,,,finish,81,160,silent,old,red,1154.3812950998545,None,1154.3812950998545,None,2,1.695117300376296,1154.3812950998545,None,1.695117300376296,1156.0939167002216,None,1156.5979460002854,None,1156.5979460002854,None,n,0.15051779989153147,1156.5979460002854,None,0.15051779989153147,,,91Silent,001,2022_Nov_21_1104,ProdSingRedoBetween,2021.2.3,59.93586882976953,
,,,,160,0,160,0,,,,,,,,,,,,,,,,,,,,,,1160.2967590996996,None,,,,,,,,,,,,,,,,,interior,35,161,silent,old,blue,1157.283204600215,None,1157.283204600215,None,3,2.177290399558842,1157.283204600215,None,2.177290399558842,1159.4806628003716,None,1159.979956800118,None,1159.979956800118,None,n,0.29647709988057613,1159.979956800118,None,0.29647709988057613,,,91Silent,001,2022_Nov_21_1104,ProdSingRedoBetween,2021.2.3,59.93586882976953,
,,,,161,0,161,0,,,,,,,,,,,,,,,,,,,,,,1163.7354276003316,None,,,,,,,,,,,,,,,,,dispute,59,162,silent,old,yellow,1160.7989443000406,None,1160.7989443000406,None,1,2.0373885994777083,1160.7989443000406,None,2.0373885994777083,1162.8686501998454,None,1163.385045199655,None,1163.385045199655,None,n,0.3314234996214509,1163.385045199655,None,0.3314234996214509,,,91Silent,001,2022_Nov_21_1104,ProdSingRedoBetween,2021.2.3,59.93586882976953,
,,,,162,0,162,0,,,,,,,,,,,,,,,,,,,,,,1166.222595100291,None,,,,,,,,,,,,,,,,,music,110,163,silent,new,null,1164.2516082003713,None,1164.2516082003713,None,1,0.8968273000791669,1164.2516082003713,None,0.8968273000791669,1165.1695258999243,None,1165.6752859000117,None,1165.6752859000117,None,n,0.5134151997044683,1165.6752859000117,None,0.5134151997044683,,,91Silent,001,2022_Nov_21_1104,ProdSingRedoBetween,2021.2.3,59.93586882976953,
,,,,163,0,163,0,,,,,,,,,,,,,,,,,,,,,,1169.0888724001125,None,,,,,,,,,,,,,,,,,guide,117,164,silent,new,null,1166.736625900492,None,1166.736625900492,None,1,1.5238665994256735,1166.736625900492,None,1.5238665994256735,1168.2933627003804,None,1168.805415100418,None,1168.805415100418,None,n,0.2630359996110201,1168.805415100418,None,0.2630359996110201,,,91Silent,001,2022_Nov_21_1104,ProdSingRedoBetween,2021.2.3,59.93586882976953,
,,,,164,0,164,0,,,,,,,,,,,,,,,,,,,,,,1171.3102639000863,None,,,,,,,,,,,,,,,,,surface,116,165,silent,new,null,1169.5985308000818,None,1169.5985308000818,None,1,0.9578266004100442,1169.5985308000818,None,0.9578266004100442,1170.5748322000727,None,1171.083307299763,None,1171.083307299763,None,n,0.20925579965114594,1171.083307299763,None,0.20925579965114594,,,91Silent,001,2022_Nov_21_1104,ProdSingRedoBetween,2021.2.3,59.93586882976953,
,,,,165,0,165,0,,,,,,,,,,,,,,,,,,,,,,1175.1449245996773,None,,,,,,,,,,,,,,,,,generation,79,166,silent,old,red,1171.8323143003508,None,1171.8323143003508,None,4,2.3560902001336217,1171.8323143003508,None,2.3560902001336217,1174.2116037998348,None,1174.7155828997493,None,1174.7155828997493,None,f,0.40885360073298216,1174.7155828997493,None,0.40885360073298216,,,91Silent,001,2022_Nov_21_1104,ProdSingRedoBetween,2021.2.3,59.93586882976953,
,,,,166,0,166,0,,,,,,,,,,,,,,,,,,,,,,1177.780767600052,None,,,,,,,,,,,,,,,,,spoke,138,167,silent,new,null,1175.6551895998418,None,1175.6551895998418,None,1,1.1893020998686552,1175.6551895998418,None,1.1893020998686552,1176.8684326997027,None,1177.3805932002142,None,1177.3805932002142,None,n,0.37578289955854416,1177.3805932002142,None,0.37578289955854416,,,91Silent,001,2022_Nov_21_1104,ProdSingRedoBetween,2021.2.3,59.93586882976953,
,,,,167,0,167,0,,,,,,,,,,,,,,,,,,,,,,1179.882710499689,None,,,,,,,,,,,,,,,,,silence,130,168,silent,new,null,1178.2812777003273,None,1178.2812777003273,None,1,0.7712442995980382,1178.2812777003273,None,0.7712442995980382,1179.0977471005172,None,1179.5994477998465,None,1179.5994477998465,None,n,0.2610537000000477,1179.5994477998465,None,0.2610537000000477,,,91Silent,001,2022_Nov_21_1104,ProdSingRedoBetween,2021.2.3,59.93586882976953,
,,,,168,0,168,0,,,,,,,,,,,,,,,,,,,,,,1182.168384199962,None,,,,,,,,,,,,,,,,,suspect,17,169,silent,old,yellow,1180.3935388997197,None,1180.3935388997197,None,2,0.9549214001744986,1180.3935388997197,None,0.9549214001744986,1181.3724964000285,None,1181.8891556998715,None,1181.8891556998715,None,n,0.25131050031632185,1181.8891556998715,None,0.25131050031632185,,,91Silent,001,2022_Nov_21_1104,ProdSingRedoBetween,2021.2.3,59.93586882976953,
,,,,169,0,169,0,,,,,,,,,,,,,,,,,,,,,,1186.2226080996916,None,,,,,,,,,,,,,,,,,theme,58,170,silent,old,blue,1182.6715376004577,None,1182.6715376004577,None,3,2.1727885007858276,1182.6715376004577,None,2.1727885007858276,1184.8728015003726,None,1185.3719113999978,None,1185.3719113999978,None,n,0.8245174996554852,1185.3719113999978,None,0.8245174996554852,,,91Silent,001,2022_Nov_21_1104,ProdSingRedoBetween,2021.2.3,59.93586882976953,
,,,,170,0,170,0,,,,,,,,,,,,,,,,,,,,,,1188.8099878998473,None,,,,,,,,,,,,,,,,,foundation,12,171,silent,old,yellow,1186.7261242000386,None,1186.7261242000386,None,6,1.2222961001098156,1186.7261242000386,None,1.2222961001098156,1187.9784535998479,None,1188.4934050003067,None,1188.4934050003067,None,r,0.2950853994116187,1188.4934050003067,None,0.2950853994116187,,,91Silent,001,2022_Nov_21_1104,ProdSingRedoBetween,2021.2.3,59.93586882976953,
,,,,171,0,171,0,,,,,,,,,,,,,,,,,,,,,,1191.260940800421,None,,,,,,,,,,,,,,,,,prime,48,172,silent,old,blue,1189.3337447000667,None,1189.3337447000667,None,6,1.0787928998470306,1189.3337447000667,None,1.0787928998470306,1190.4525159997866,None,1190.9607904003933,None,1190.9607904003933,None,r,0.27559970039874315,1190.9607904003933,None,0.27559970039874315,,,91Silent,001,2022_Nov_21_1104,ProdSingRedoBetween,2021.2.3,59.93586882976953,
,,,,172,0,172,0,,,,,,,,,,,,,,,,,,,,,,1193.617481299676,None,,,,,,,,,,,,,,,,,bitter,76,173,silent,old,red,1191.7615421004593,None,1191.7615421004593,None,2,1.2749005993828177,1191.7615421004593,None,1.2749005993828177,1193.062759499997,None,1193.5651906998828,None,1193.5651906998828,None,n,0.02338199969381094,1193.5651906998828,None,0.02338199969381094,,,91Silent,001,2022_Nov_21_1104,ProdSingRedoBetween,2021.2.3,59.93586882976953,
,,,,173,0,173,0,,,,,,,,,,,,,,,,,,,,,,1196.9166090004146,None,,,,,,,,,,,,,,,,,hearing,173,174,silent,new,null,1194.1306119998917,None,1194.1306119998917,None,4,1.75390260014683,1194.1306119998917,None,1.75390260014683,1195.9184111002833,None,1196.432912800461,None,1196.432912800461,None,f,0.45949310064315796,1196.432912800461,None,0.45949310064315796,,,91Silent,001,2022_Nov_21_1104,ProdSingRedoBetween,2021.2.3,59.93586882976953,
,,,,174,0,174,0,,,,,,,,,,,,,,,,,,,,,,1201.4585065003484,None,,,,,,,,,,,,,,,,,mechanical,152,175,silent,new,null,1197.424386699684,None,1197.424386699684,None,4,3.339894499629736,1197.424386699684,None,3.339894499629736,1200.7872259998694,None,1201.2918328000233,None,1201.2918328000233,None,f,0.14456390030682087,1201.2918328000233,None,0.14456390030682087,,,91Silent,001,2022_Nov_21_1104,ProdSingRedoBetween,2021.2.3,59.93586882976953,
,,,,175,0,175,0,,,,,,,,,,,,,,,,,,,,,,1203.4564602999017,None,,,,,,,,,,,,,,,,,captain,67,176,silent,old,red,1201.9780804999173,None,1201.9780804999173,None,1,0.8982717003673315,1201.9780804999173,None,0.8982717003673315,1202.9066719999537,None,1203.4064942002296,None,1203.4064942002296,None,n,0.0299681993201375,1203.4064942002296,None,0.0299681993201375,,,91Silent,001,2022_Nov_21_1104,ProdSingRedoBetween,2021.2.3,59.93586882976953,
