StudyLoop.thisRepN,StudyLoop.thisTrialN,StudyLoop.thisN,StudyLoop.thisIndex,TestLoop.thisRepN,TestLoop.thisTrialN,TestLoop.thisN,TestLoop.thisIndex,textCondition.started,textCondition.stopped,keyCondition.keys,keyCondition.rt,keyCondition.started,keyCondition.stopped,Condition,textWelcome.started,textWelcome.stopped,keyWelcome.keys,keyWelcome.rt,keyWelcome.started,keyWelcome.stopped,textAloud.started,textAloud.stopped,textSilent.started,textSilent.stopped,textSing.started,textSing.stopped,conditional_text.started,conditional_text.stopped,textBlank500.started,textBlank500.stopped,study_word,study_num,study_order,study_type,word_color,textStudy.started,textStudy.stopped,keyStudy.keys,keyStudy.started,keyStudy.stopped,textTestInstructions.started,textTestInstructions.stopped,key_resp_3.keys,key_resp_3.rt,key_resp_3.started,key_resp_3.stopped,test_word,test_num,test_order,test_condition,old_new_test,test_word_original_color,textConf.started,textConf.stopped,textConfScale.started,textConfScale.stopped,keyConf.keys,keyConf.rt,keyConf.started,keyConf.stopped,confidence response time,textTestBlank.started,textTestBlank.stopped,textRKN.started,textRKN.stopped,textRKNScale.started,textRKNScale.stopped,keyRKN.keys,keyRKN.rt,keyRKN.started,keyRKN.stopped,rkn response time,textEnd.started,textEnd.stopped,participant,session,date,expName,psychopyVersion,frameRate,
,,,,,,,,38.13864760007709,None,b,3.072694499976933,38.13864760007709,None,,,,,,,,,,,,,,,,,,,,,,,,,,,,,,,,,,,,,,,,,,,,,,,,,,,,,,,,,,,,,,92Aloud,001,2022_Nov_21_1126,ProdSingRedoBetween,2021.2.3,59.969295933490585,
,,,,,,,,,,,,,,AloudTest,41.2641540998593,None,space,188.67492950055748,41.2641540998593,None,,,,,,,,,,,,,,,,,,,,,,,,,,,,,,,,,,,,,,,,,,,,,,,,,,,,,,,92Aloud,001,2022_Nov_21_1126,ProdSingRedoBetween,2021.2.3,59.969295933490585,
0,0,0,0,,,,,,,,,,,,,,,,,,41.2641540998593,None,41.2641540998593,None,41.2641540998593,None,41.2641540998593,None,232.48031229991466,None,hunger,49,1,aloud,blue,230.46975979954004,None,None,230.46975979954004,None,,,,,,,,,,,,,,,,,,,,,,,,,,,,,,,,,,,92Aloud,001,2022_Nov_21_1126,ProdSingRedoBetween,2021.2.3,59.969295933490585,
1,0,1,0,,,,,,,,,,,,,,,,,,,,,,,,,,234.98273559939116,None,crowd,37,2,aloud,blue,232.98068749997765,None,None,232.98068749997765,None,,,,,,,,,,,,,,,,,,,,,,,,,,,,,,,,,,,92Aloud,001,2022_Nov_21_1126,ProdSingRedoBetween,2021.2.3,59.969295933490585,
2,0,2,0,,,,,,,,,,,,,,,,,,,,,,,,,,237.50193869974464,None,quantity,82,3,aloud,red,235.49473639950156,None,None,235.49473639950156,None,,,,,,,,,,,,,,,,,,,,,,,,,,,,,,,,,,,92Aloud,001,2022_Nov_21_1126,ProdSingRedoBetween,2021.2.3,59.969295933490585,
3,0,3,0,,,,,,,,,,,,,,,,,,,,,,,,,,240.0044695995748,None,blind,78,4,aloud,red,238.00237949937582,None,None,238.00237949937582,None,,,,,,,,,,,,,,,,,,,,,,,,,,,,,,,,,,,92Aloud,001,2022_Nov_21_1126,ProdSingRedoBetween,2021.2.3,59.969295933490585,
4,0,4,0,,,,,,,,,,,,,,,,,,,,,,,,,,242.5235386993736,None,welcome,10,5,aloud,yellow,240.50935809966177,None,None,240.50935809966177,None,,,,,,,,,,,,,,,,,,,,,,,,,,,,,,,,,,,92Aloud,001,2022_Nov_21_1126,ProdSingRedoBetween,2021.2.3,59.969295933490585,
5,0,5,0,,,,,,,,,,,,,,,,,,,,,,,,,,245.02608670014888,None,council,69,6,aloud,red,243.02405430004,None,None,243.02405430004,None,,,,,,,,,,,,,,,,,,,,,,,,,,,,,,,,,,,92Aloud,001,2022_Nov_21_1126,ProdSingRedoBetween,2021.2.3,59.969295933490585,
6,0,6,0,,,,,,,,,,,,,,,,,,,,,,,,,,247.54530220013112,None,payment,56,7,aloud,blue,245.5337760997936,None,None,245.5337760997936,None,,,,,,,,,,,,,,,,,,,,,,,,,,,,,,,,,,,92Aloud,001,2022_Nov_21_1126,ProdSingRedoBetween,2021.2.3,59.969295933490585,
7,0,7,0,,,,,,,,,,,,,,,,,,,,,,,,,,250.06446219980717,None,force,84,8,aloud,red,248.04964020010084,None,None,248.04964020010084,None,,,,,,,,,,,,,,,,,,,,,,,,,,,,,,,,,,,92Aloud,001,2022_Nov_21_1126,ProdSingRedoBetween,2021.2.3,59.969295933490585,
8,0,8,0,,,,,,,,,,,,,,,,,,,,,,,,,,252.58342519961298,None,trail,43,9,aloud,blue,250.5694733997807,None,None,250.5694733997807,None,,,,,,,,,,,,,,,,,,,,,,,,,,,,,,,,,,,92Aloud,001,2022_Nov_21_1126,ProdSingRedoBetween,2021.2.3,59.969295933490585,
9,0,9,0,,,,,,,,,,,,,,,,,,,,,,,,,,255.0861339000985,None,estate,0,10,aloud,yellow,253.08386799972504,None,None,253.08386799972504,None,,,,,,,,,,,,,,,,,,,,,,,,,,,,,,,,,,,92Aloud,001,2022_Nov_21_1126,ProdSingRedoBetween,2021.2.3,59.969295933490585,
10,0,10,0,,,,,,,,,,,,,,,,,,,,,,,,,,257.5885152993724,None,production,18,11,aloud,yellow,255.58925899956375,None,None,255.58925899956375,None,,,,,,,,,,,,,,,,,,,,,,,,,,,,,,,,,,,92Aloud,001,2022_Nov_21_1126,ProdSingRedoBetween,2021.2.3,59.969295933490585,
11,0,11,0,,,,,,,,,,,,,,,,,,,,,,,,,,260.1078433999792,None,military,62,12,aloud,red,258.09514799993485,None,None,258.09514799993485,None,,,,,,,,,,,,,,,,,,,,,,,,,,,,,,,,,,,92Aloud,001,2022_Nov_21_1126,ProdSingRedoBetween,2021.2.3,59.969295933490585,
12,0,12,0,,,,,,,,,,,,,,,,,,,,,,,,,,262.6269243992865,None,bicycle,24,13,aloud,yellow,260.6124115996063,None,None,260.6124115996063,None,,,,,,,,,,,,,,,,,,,,,,,,,,,,,,,,,,,92Aloud,001,2022_Nov_21_1126,ProdSingRedoBetween,2021.2.3,59.969295933490585,
13,0,13,0,,,,,,,,,,,,,,,,,,,,,,,,,,265.1292447997257,None,portion,14,14,aloud,yellow,263.12744189985096,None,None,263.12744189985096,None,,,,,,,,,,,,,,,,,,,,,,,,,,,,,,,,,,,92Aloud,001,2022_Nov_21_1126,ProdSingRedoBetween,2021.2.3,59.969295933490585,
14,0,14,0,,,,,,,,,,,,,,,,,,,,,,,,,,267.63208309933543,None,pancakes,19,15,aloud,yellow,265.6326287994161,None,None,265.6326287994161,None,,,,,,,,,,,,,,,,,,,,,,,,,,,,,,,,,,,92Aloud,001,2022_Nov_21_1126,ProdSingRedoBetween,2021.2.3,59.969295933490585,
15,0,15,0,,,,,,,,,,,,,,,,,,,,,,,,,,270.1343895001337,None,committee,11,16,aloud,yellow,268.13252570014447,None,None,268.13252570014447,None,,,,,,,,,,,,,,,,,,,,,,,,,,,,,,,,,,,92Aloud,001,2022_Nov_21_1126,ProdSingRedoBetween,2021.2.3,59.969295933490585,
16,0,16,0,,,,,,,,,,,,,,,,,,,,,,,,,,272.6369139999151,None,review,38,17,aloud,blue,270.63487780001014,None,None,270.63487780001014,None,,,,,,,,,,,,,,,,,,,,,,,,,,,,,,,,,,,92Aloud,001,2022_Nov_21_1126,ProdSingRedoBetween,2021.2.3,59.969295933490585,
17,0,17,0,,,,,,,,,,,,,,,,,,,,,,,,,,275.15605460014194,None,smooth,61,18,aloud,red,273.144409599714,None,None,273.144409599714,None,,,,,,,,,,,,,,,,,,,,,,,,,,,,,,,,,,,92Aloud,001,2022_Nov_21_1126,ProdSingRedoBetween,2021.2.3,59.969295933490585,
18,0,18,0,,,,,,,,,,,,,,,,,,,,,,,,,,277.65869180019945,None,graduate,13,19,aloud,yellow,275.6566845001653,None,None,275.6566845001653,None,,,,,,,,,,,,,,,,,,,,,,,,,,,,,,,,,,,92Aloud,001,2022_Nov_21_1126,ProdSingRedoBetween,2021.2.3,59.969295933490585,
19,0,19,0,,,,,,,,,,,,,,,,,,,,,,,,,,280.1611863998696,None,author,33,20,aloud,blue,278.1621131999418,None,None,278.1621131999418,None,,,,,,,,,,,,,,,,,,,,,,,,,,,,,,,,,,,92Aloud,001,2022_Nov_21_1126,ProdSingRedoBetween,2021.2.3,59.969295933490585,
20,0,20,0,,,,,,,,,,,,,,,,,,,,,,,,,,282.6635807994753,None,career,8,21,aloud,yellow,280.66159600019455,None,None,280.66159600019455,None,,,,,,,,,,,,,,,,,,,,,,,,,,,,,,,,,,,92Aloud,001,2022_Nov_21_1126,ProdSingRedoBetween,2021.2.3,59.969295933490585,
21,0,21,0,,,,,,,,,,,,,,,,,,,,,,,,,,285.18260789941996,None,weight,15,22,aloud,yellow,283.17038429994136,None,None,283.17038429994136,None,,,,,,,,,,,,,,,,,,,,,,,,,,,,,,,,,,,92Aloud,001,2022_Nov_21_1126,ProdSingRedoBetween,2021.2.3,59.969295933490585,
22,0,22,0,,,,,,,,,,,,,,,,,,,,,,,,,,287.7016974994913,None,comfort,23,23,aloud,yellow,285.68851059954613,None,None,285.68851059954613,None,,,,,,,,,,,,,,,,,,,,,,,,,,,,,,,,,,,92Aloud,001,2022_Nov_21_1126,ProdSingRedoBetween,2021.2.3,59.969295933490585,
23,0,23,0,,,,,,,,,,,,,,,,,,,,,,,,,,290.22109649982303,None,disease,9,24,aloud,yellow,288.2075267992914,None,None,288.2075267992914,None,,,,,,,,,,,,,,,,,,,,,,,,,,,,,,,,,,,92Aloud,001,2022_Nov_21_1126,ProdSingRedoBetween,2021.2.3,59.969295933490585,
24,0,24,0,,,,,,,,,,,,,,,,,,,,,,,,,,292.72363009955734,None,little,22,25,aloud,yellow,290.72166519984603,None,None,290.72166519984603,None,,,,,,,,,,,,,,,,,,,,,,,,,,,,,,,,,,,92Aloud,001,2022_Nov_21_1126,ProdSingRedoBetween,2021.2.3,59.969295933490585,
25,0,25,0,,,,,,,,,,,,,,,,,,,,,,,,,,295.2425899999216,None,finish,40,26,aloud,blue,293.2270375993103,None,None,293.2270375993103,None,,,,,,,,,,,,,,,,,,,,,,,,,,,,,,,,,,,92Aloud,001,2022_Nov_21_1126,ProdSingRedoBetween,2021.2.3,59.969295933490585,
26,0,26,0,,,,,,,,,,,,,,,,,,,,,,,,,,297.7619423996657,None,discussion,58,27,aloud,blue,295.74829829949886,None,None,295.74829829949886,None,,,,,,,,,,,,,,,,,,,,,,,,,,,,,,,,,,,92Aloud,001,2022_Nov_21_1126,ProdSingRedoBetween,2021.2.3,59.969295933490585,
27,0,27,0,,,,,,,,,,,,,,,,,,,,,,,,,,300.26460300013423,None,relation,88,28,aloud,red,298.2624642001465,None,None,298.2624642001465,None,,,,,,,,,,,,,,,,,,,,,,,,,,,,,,,,,,,92Aloud,001,2022_Nov_21_1126,ProdSingRedoBetween,2021.2.3,59.969295933490585,
28,0,28,0,,,,,,,,,,,,,,,,,,,,,,,,,,302.76695189997554,None,month,44,29,aloud,blue,300.76506069954485,None,None,300.76506069954485,None,,,,,,,,,,,,,,,,,,,,,,,,,,,,,,,,,,,92Aloud,001,2022_Nov_21_1126,ProdSingRedoBetween,2021.2.3,59.969295933490585,
29,0,29,0,,,,,,,,,,,,,,,,,,,,,,,,,,305.2694534994662,None,season,87,30,aloud,red,303.2673717001453,None,None,303.2673717001453,None,,,,,,,,,,,,,,,,,,,,,,,,,,,,,,,,,,,92Aloud,001,2022_Nov_21_1126,ProdSingRedoBetween,2021.2.3,59.969295933490585,
30,0,30,0,,,,,,,,,,,,,,,,,,,,,,,,,,307.7886258997023,None,character,3,31,aloud,yellow,305.7766547994688,None,None,305.7766547994688,None,,,,,,,,,,,,,,,,,,,,,,,,,,,,,,,,,,,92Aloud,001,2022_Nov_21_1126,ProdSingRedoBetween,2021.2.3,59.969295933490585,
31,0,31,0,,,,,,,,,,,,,,,,,,,,,,,,,,310.29116200003773,None,revolution,86,32,aloud,red,308.29192559979856,None,None,308.29192559979856,None,,,,,,,,,,,,,,,,,,,,,,,,,,,,,,,,,,,92Aloud,001,2022_Nov_21_1126,ProdSingRedoBetween,2021.2.3,59.969295933490585,
32,0,32,0,,,,,,,,,,,,,,,,,,,,,,,,,,312.8104579001665,None,grade,53,33,aloud,blue,310.795456700027,None,None,310.795456700027,None,,,,,,,,,,,,,,,,,,,,,,,,,,,,,,,,,,,92Aloud,001,2022_Nov_21_1126,ProdSingRedoBetween,2021.2.3,59.969295933490585,
33,0,33,0,,,,,,,,,,,,,,,,,,,,,,,,,,315.3294672993943,None,music,41,34,aloud,blue,313.31863280013204,None,None,313.31863280013204,None,,,,,,,,,,,,,,,,,,,,,,,,,,,,,,,,,,,92Aloud,001,2022_Nov_21_1126,ProdSingRedoBetween,2021.2.3,59.969295933490585,
34,0,34,0,,,,,,,,,,,,,,,,,,,,,,,,,,317.84878129977733,None,history,21,35,aloud,yellow,315.8344344999641,None,None,315.8344344999641,None,,,,,,,,,,,,,,,,,,,,,,,,,,,,,,,,,,,92Aloud,001,2022_Nov_21_1126,ProdSingRedoBetween,2021.2.3,59.969295933490585,
35,0,35,0,,,,,,,,,,,,,,,,,,,,,,,,,,320.35118110012263,None,edition,64,36,aloud,red,318.3491559000686,None,None,318.3491559000686,None,,,,,,,,,,,,,,,,,,,,,,,,,,,,,,,,,,,92Aloud,001,2022_Nov_21_1126,ProdSingRedoBetween,2021.2.3,59.969295933490585,
36,0,36,0,,,,,,,,,,,,,,,,,,,,,,,,,,322.85361159965396,None,meeting,66,37,aloud,red,320.8516835998744,None,None,320.8516835998744,None,,,,,,,,,,,,,,,,,,,,,,,,,,,,,,,,,,,92Aloud,001,2022_Nov_21_1126,ProdSingRedoBetween,2021.2.3,59.969295933490585,
37,0,37,0,,,,,,,,,,,,,,,,,,,,,,,,,,325.35611240006983,None,ground,83,38,aloud,red,323.35507539939135,None,None,323.35507539939135,None,,,,,,,,,,,,,,,,,,,,,,,,,,,,,,,,,,,92Aloud,001,2022_Nov_21_1126,ProdSingRedoBetween,2021.2.3,59.969295933490585,
38,0,38,0,,,,,,,,,,,,,,,,,,,,,,,,,,327.85869999974966,None,series,45,39,aloud,blue,325.85753319971263,None,None,325.85753319971263,None,,,,,,,,,,,,,,,,,,,,,,,,,,,,,,,,,,,92Aloud,001,2022_Nov_21_1126,ProdSingRedoBetween,2021.2.3,59.969295933490585,
39,0,39,0,,,,,,,,,,,,,,,,,,,,,,,,,,330.3612444996834,None,store,79,40,aloud,red,328.3612164994702,None,None,328.3612164994702,None,,,,,,,,,,,,,,,,,,,,,,,,,,,,,,,,,,,92Aloud,001,2022_Nov_21_1126,ProdSingRedoBetween,2021.2.3,59.969295933490585,
40,0,40,0,,,,,,,,,,,,,,,,,,,,,,,,,,332.8802713993937,None,breath,28,41,aloud,yellow,330.86453169956803,None,None,330.86453169956803,None,,,,,,,,,,,,,,,,,,,,,,,,,,,,,,,,,,,92Aloud,001,2022_Nov_21_1126,ProdSingRedoBetween,2021.2.3,59.969295933490585,
41,0,41,0,,,,,,,,,,,,,,,,,,,,,,,,,,335.39953880012035,None,benefit,46,42,aloud,blue,333.3860099995509,None,None,333.3860099995509,None,,,,,,,,,,,,,,,,,,,,,,,,,,,,,,,,,,,92Aloud,001,2022_Nov_21_1126,ProdSingRedoBetween,2021.2.3,59.969295933490585,
42,0,42,0,,,,,,,,,,,,,,,,,,,,,,,,,,337.9186033997685,None,object,36,43,aloud,blue,335.9065362997353,None,None,335.9065362997353,None,,,,,,,,,,,,,,,,,,,,,,,,,,,,,,,,,,,92Aloud,001,2022_Nov_21_1126,ProdSingRedoBetween,2021.2.3,59.969295933490585,
43,0,43,0,,,,,,,,,,,,,,,,,,,,,,,,,,340.4213229995221,None,piece,31,44,aloud,blue,338.41916489973664,None,None,338.41916489973664,None,,,,,,,,,,,,,,,,,,,,,,,,,,,,,,,,,,,92Aloud,001,2022_Nov_21_1126,ProdSingRedoBetween,2021.2.3,59.969295933490585,
44,0,44,0,,,,,,,,,,,,,,,,,,,,,,,,,,342.94043539930135,None,front,35,45,aloud,blue,340.9296629000455,None,None,340.9296629000455,None,,,,,,,,,,,,,,,,,,,,,,,,,,,,,,,,,,,92Aloud,001,2022_Nov_21_1126,ProdSingRedoBetween,2021.2.3,59.969295933490585,
45,0,45,0,,,,,,,,,,,,,,,,,,,,,,,,,,345.4595313994214,None,people,16,46,aloud,yellow,343.4445786001161,None,None,343.4445786001161,None,,,,,,,,,,,,,,,,,,,,,,,,,,,,,,,,,,,92Aloud,001,2022_Nov_21_1126,ProdSingRedoBetween,2021.2.3,59.969295933490585,
46,0,46,0,,,,,,,,,,,,,,,,,,,,,,,,,,347.9787245001644,None,speech,42,47,aloud,blue,345.96956129930913,None,None,345.96956129930913,None,,,,,,,,,,,,,,,,,,,,,,,,,,,,,,,,,,,92Aloud,001,2022_Nov_21_1126,ProdSingRedoBetween,2021.2.3,59.969295933490585,
47,0,47,0,,,,,,,,,,,,,,,,,,,,,,,,,,350.48125670012087,None,colonel,72,48,aloud,red,348.48000269941986,None,None,348.48000269941986,None,,,,,,,,,,,,,,,,,,,,,,,,,,,,,,,,,,,92Aloud,001,2022_Nov_21_1126,ProdSingRedoBetween,2021.2.3,59.969295933490585,
48,0,48,0,,,,,,,,,,,,,,,,,,,,,,,,,,352.9837068999186,None,department,59,49,aloud,yellow,350.9840144999325,None,None,350.9840144999325,None,,,,,,,,,,,,,,,,,,,,,,,,,,,,,,,,,,,92Aloud,001,2022_Nov_21_1126,ProdSingRedoBetween,2021.2.3,59.969295933490585,
49,0,49,0,,,,,,,,,,,,,,,,,,,,,,,,,,355.4859937997535,None,appearance,57,50,aloud,blue,353.4842387000099,None,None,353.4842387000099,None,,,,,,,,,,,,,,,,,,,,,,,,,,,,,,,,,,,92Aloud,001,2022_Nov_21_1126,ProdSingRedoBetween,2021.2.3,59.969295933490585,
50,0,50,0,,,,,,,,,,,,,,,,,,,,,,,,,,357.988875599578,None,novel,27,51,aloud,yellow,355.9867448993027,None,None,355.9867448993027,None,,,,,,,,,,,,,,,,,,,,,,,,,,,,,,,,,,,92Aloud,001,2022_Nov_21_1126,ProdSingRedoBetween,2021.2.3,59.969295933490585,
51,0,51,0,,,,,,,,,,,,,,,,,,,,,,,,,,360.50783229991794,None,institute,52,52,aloud,blue,358.49329559970647,None,None,358.49329559970647,None,,,,,,,,,,,,,,,,,,,,,,,,,,,,,,,,,,,92Aloud,001,2022_Nov_21_1126,ProdSingRedoBetween,2021.2.3,59.969295933490585,
52,0,52,0,,,,,,,,,,,,,,,,,,,,,,,,,,363.0271422993392,None,chief,60,53,aloud,red,361.0115670999512,None,None,361.0115670999512,None,,,,,,,,,,,,,,,,,,,,,,,,,,,,,,,,,,,92Aloud,001,2022_Nov_21_1126,ProdSingRedoBetween,2021.2.3,59.969295933490585,
53,0,53,0,,,,,,,,,,,,,,,,,,,,,,,,,,365.52932040020823,None,population,75,54,aloud,red,363.5299311997369,None,None,363.5299311997369,None,,,,,,,,,,,,,,,,,,,,,,,,,,,,,,,,,,,92Aloud,001,2022_Nov_21_1126,ProdSingRedoBetween,2021.2.3,59.969295933490585,
54,0,54,0,,,,,,,,,,,,,,,,,,,,,,,,,,368.03183119930327,None,surprise,1,55,aloud,yellow,366.0315311001614,None,None,366.0315311001614,None,,,,,,,,,,,,,,,,,,,,,,,,,,,,,,,,,,,92Aloud,001,2022_Nov_21_1126,ProdSingRedoBetween,2021.2.3,59.969295933490585,
55,0,55,0,,,,,,,,,,,,,,,,,,,,,,,,,,370.5512149995193,None,space,30,56,aloud,blue,368.53634329978377,None,None,368.53634329978377,None,,,,,,,,,,,,,,,,,,,,,,,,,,,,,,,,,,,92Aloud,001,2022_Nov_21_1126,ProdSingRedoBetween,2021.2.3,59.969295933490585,
56,0,56,0,,,,,,,,,,,,,,,,,,,,,,,,,,373.07058769930154,None,question,81,57,aloud,red,371.05540279950947,None,None,371.05540279950947,None,,,,,,,,,,,,,,,,,,,,,,,,,,,,,,,,,,,92Aloud,001,2022_Nov_21_1126,ProdSingRedoBetween,2021.2.3,59.969295933490585,
57,0,57,0,,,,,,,,,,,,,,,,,,,,,,,,,,375.5727289998904,None,minor,5,58,aloud,yellow,373.57216050010175,None,None,373.57216050010175,None,,,,,,,,,,,,,,,,,,,,,,,,,,,,,,,,,,,92Aloud,001,2022_Nov_21_1126,ProdSingRedoBetween,2021.2.3,59.969295933490585,
58,0,58,0,,,,,,,,,,,,,,,,,,,,,,,,,,378.0920714996755,None,impact,63,59,aloud,red,376.0823588995263,None,None,376.0823588995263,None,,,,,,,,,,,,,,,,,,,,,,,,,,,,,,,,,,,92Aloud,001,2022_Nov_21_1126,ProdSingRedoBetween,2021.2.3,59.969295933490585,
59,0,59,0,,,,,,,,,,,,,,,,,,,,,,,,,,380.59451919980347,None,scene,51,60,aloud,blue,378.5923525998369,None,None,378.5923525998369,None,,,,,,,,,,,,,,,,,,,,,,,,,,,,,,,,,,,92Aloud,001,2022_Nov_21_1126,ProdSingRedoBetween,2021.2.3,59.969295933490585,
60,0,60,0,,,,,,,,,,,,,,,,,,,,,,,,,,383.09702839981765,None,brilliant,2,61,aloud,yellow,381.097648399882,None,None,381.097648399882,None,,,,,,,,,,,,,,,,,,,,,,,,,,,,,,,,,,,92Aloud,001,2022_Nov_21_1126,ProdSingRedoBetween,2021.2.3,59.969295933490585,
61,0,61,0,,,,,,,,,,,,,,,,,,,,,,,,,,385.61635989975184,None,reading,80,62,aloud,red,383.6016010995954,None,None,383.6016010995954,None,,,,,,,,,,,,,,,,,,,,,,,,,,,,,,,,,,,92Aloud,001,2022_Nov_21_1126,ProdSingRedoBetween,2021.2.3,59.969295933490585,
62,0,62,0,,,,,,,,,,,,,,,,,,,,,,,,,,388.11853739991784,None,material,39,63,aloud,blue,386.1167684998363,None,None,386.1167684998363,None,,,,,,,,,,,,,,,,,,,,,,,,,,,,,,,,,,,92Aloud,001,2022_Nov_21_1126,ProdSingRedoBetween,2021.2.3,59.969295933490585,
63,0,63,0,,,,,,,,,,,,,,,,,,,,,,,,,,390.6379594001919,None,attack,50,64,aloud,blue,388.6235417993739,None,None,388.6235417993739,None,,,,,,,,,,,,,,,,,,,,,,,,,,,,,,,,,,,92Aloud,001,2022_Nov_21_1126,ProdSingRedoBetween,2021.2.3,59.969295933490585,
64,0,64,0,,,,,,,,,,,,,,,,,,,,,,,,,,393.14044460002333,None,owner,29,65,aloud,blue,391.13851589988917,None,None,391.13851589988917,None,,,,,,,,,,,,,,,,,,,,,,,,,,,,,,,,,,,92Aloud,001,2022_Nov_21_1126,ProdSingRedoBetween,2021.2.3,59.969295933490585,
65,0,65,0,,,,,,,,,,,,,,,,,,,,,,,,,,395.64260389935225,None,tragedy,54,66,aloud,blue,393.64067790005356,None,None,393.64067790005356,None,,,,,,,,,,,,,,,,,,,,,,,,,,,,,,,,,,,92Aloud,001,2022_Nov_21_1126,ProdSingRedoBetween,2021.2.3,59.969295933490585,
66,0,66,0,,,,,,,,,,,,,,,,,,,,,,,,,,398.1620763000101,None,discovery,68,67,aloud,red,396.1520344996825,None,None,396.1520344996825,None,,,,,,,,,,,,,,,,,,,,,,,,,,,,,,,,,,,92Aloud,001,2022_Nov_21_1126,ProdSingRedoBetween,2021.2.3,59.969295933490585,
67,0,67,0,,,,,,,,,,,,,,,,,,,,,,,,,,400.66465449985117,None,husband,70,68,aloud,red,398.66343499999493,None,None,398.66343499999493,None,,,,,,,,,,,,,,,,,,,,,,,,,,,,,,,,,,,92Aloud,001,2022_Nov_21_1126,ProdSingRedoBetween,2021.2.3,59.969295933490585,
68,0,68,0,,,,,,,,,,,,,,,,,,,,,,,,,,403.167159399949,None,citizen,12,69,aloud,yellow,401.1678438996896,None,None,401.1678438996896,None,,,,,,,,,,,,,,,,,,,,,,,,,,,,,,,,,,,92Aloud,001,2022_Nov_21_1126,ProdSingRedoBetween,2021.2.3,59.969295933490585,
69,0,69,0,,,,,,,,,,,,,,,,,,,,,,,,,,405.68602930009365,None,territory,48,70,aloud,blue,403.6721273995936,None,None,403.6721273995936,None,,,,,,,,,,,,,,,,,,,,,,,,,,,,,,,,,,,92Aloud,001,2022_Nov_21_1126,ProdSingRedoBetween,2021.2.3,59.969295933490585,
70,0,70,0,,,,,,,,,,,,,,,,,,,,,,,,,,408.1887397998944,None,collection,6,71,aloud,yellow,406.1867795996368,None,None,406.1867795996368,None,,,,,,,,,,,,,,,,,,,,,,,,,,,,,,,,,,,92Aloud,001,2022_Nov_21_1126,ProdSingRedoBetween,2021.2.3,59.969295933490585,
71,0,71,0,,,,,,,,,,,,,,,,,,,,,,,,,,410.70801009982824,None,capital,76,72,aloud,red,408.69468630012125,None,None,408.69468630012125,None,,,,,,,,,,,,,,,,,,,,,,,,,,,,,,,,,,,92Aloud,001,2022_Nov_21_1126,ProdSingRedoBetween,2021.2.3,59.969295933490585,
72,0,72,0,,,,,,,,,,,,,,,,,,,,,,,,,,413.2102111997083,None,problem,25,73,aloud,yellow,411.20846009999514,None,None,411.20846009999514,None,,,,,,,,,,,,,,,,,,,,,,,,,,,,,,,,,,,92Aloud,001,2022_Nov_21_1126,ProdSingRedoBetween,2021.2.3,59.969295933490585,
73,0,73,0,,,,,,,,,,,,,,,,,,,,,,,,,,415.7128476994112,None,education,20,74,aloud,yellow,413.7107560997829,None,None,413.7107560997829,None,,,,,,,,,,,,,,,,,,,,,,,,,,,,,,,,,,,92Aloud,001,2022_Nov_21_1126,ProdSingRedoBetween,2021.2.3,59.969295933490585,
74,0,74,0,,,,,,,,,,,,,,,,,,,,,,,,,,418.2156977998093,None,minute,34,75,aloud,blue,416.2134802993387,None,None,416.2134802993387,None,,,,,,,,,,,,,,,,,,,,,,,,,,,,,,,,,,,92Aloud,001,2022_Nov_21_1126,ProdSingRedoBetween,2021.2.3,59.969295933490585,
75,0,75,0,,,,,,,,,,,,,,,,,,,,,,,,,,420.7345671998337,None,cousin,26,76,aloud,yellow,418.71985919959843,None,None,418.71985919959843,None,,,,,,,,,,,,,,,,,,,,,,,,,,,,,,,,,,,92Aloud,001,2022_Nov_21_1126,ProdSingRedoBetween,2021.2.3,59.969295933490585,
76,0,76,0,,,,,,,,,,,,,,,,,,,,,,,,,,423.25381159968674,None,budget,65,77,aloud,red,421.23878199979663,None,None,421.23878199979663,None,,,,,,,,,,,,,,,,,,,,,,,,,,,,,,,,,,,92Aloud,001,2022_Nov_21_1126,ProdSingRedoBetween,2021.2.3,59.969295933490585,
77,0,77,0,,,,,,,,,,,,,,,,,,,,,,,,,,425.7729431996122,None,count,7,78,aloud,yellow,423.7601112993434,None,None,423.7601112993434,None,,,,,,,,,,,,,,,,,,,,,,,,,,,,,,,,,,,92Aloud,001,2022_Nov_21_1126,ProdSingRedoBetween,2021.2.3,59.969295933490585,
78,0,78,0,,,,,,,,,,,,,,,,,,,,,,,,,,428.2754378002137,None,alert,17,79,aloud,yellow,426.2733619995415,None,None,426.2733619995415,None,,,,,,,,,,,,,,,,,,,,,,,,,,,,,,,,,,,92Aloud,001,2022_Nov_21_1126,ProdSingRedoBetween,2021.2.3,59.969295933490585,
79,0,79,0,,,,,,,,,,,,,,,,,,,,,,,,,,430.7780236992985,None,employment,71,80,aloud,red,428.7776835002005,None,None,428.7776835002005,None,,,,,,,,,,,,,,,,,,,,,,,,,,,,,,,,,,,92Aloud,001,2022_Nov_21_1126,ProdSingRedoBetween,2021.2.3,59.969295933490585,
80,0,80,0,,,,,,,,,,,,,,,,,,,,,,,,,,433.28055159933865,None,write,85,81,aloud,red,431.2801951998845,None,None,431.2801951998845,None,,,,,,,,,,,,,,,,,,,,,,,,,,,,,,,,,,,92Aloud,001,2022_Nov_21_1126,ProdSingRedoBetween,2021.2.3,59.969295933490585,
81,0,81,0,,,,,,,,,,,,,,,,,,,,,,,,,,435.79961219988763,None,broke,77,82,aloud,red,433.78658469952643,None,None,433.78658469952643,None,,,,,,,,,,,,,,,,,,,,,,,,,,,,,,,,,,,92Aloud,001,2022_Nov_21_1126,ProdSingRedoBetween,2021.2.3,59.969295933490585,
82,0,82,0,,,,,,,,,,,,,,,,,,,,,,,,,,438.31883849948645,None,appeal,67,83,aloud,red,436.3046587994322,None,None,436.3046587994322,None,,,,,,,,,,,,,,,,,,,,,,,,,,,,,,,,,,,92Aloud,001,2022_Nov_21_1126,ProdSingRedoBetween,2021.2.3,59.969295933490585,
83,0,83,0,,,,,,,,,,,,,,,,,,,,,,,,,,440.8212557993829,None,union,32,84,aloud,blue,438.8193459995091,None,None,438.8193459995091,None,,,,,,,,,,,,,,,,,,,,,,,,,,,,,,,,,,,92Aloud,001,2022_Nov_21_1126,ProdSingRedoBetween,2021.2.3,59.969295933490585,
84,0,84,0,,,,,,,,,,,,,,,,,,,,,,,,,,443.3237870000303,None,produce,73,85,aloud,red,441.32200179994106,None,None,441.32200179994106,None,,,,,,,,,,,,,,,,,,,,,,,,,,,,,,,,,,,92Aloud,001,2022_Nov_21_1126,ProdSingRedoBetween,2021.2.3,59.969295933490585,
85,0,85,0,,,,,,,,,,,,,,,,,,,,,,,,,,445.82632589992136,None,session,4,86,aloud,yellow,443.8249066993594,None,None,443.8249066993594,None,,,,,,,,,,,,,,,,,,,,,,,,,,,,,,,,,,,92Aloud,001,2022_Nov_21_1126,ProdSingRedoBetween,2021.2.3,59.969295933490585,
86,0,86,0,,,,,,,,,,,,,,,,,,,,,,,,,,448.3455296000466,None,couch,47,87,aloud,blue,446.3347958996892,None,None,446.3347958996892,None,,,,,,,,,,,,,,,,,,,,,,,,,,,,,,,,,,,92Aloud,001,2022_Nov_21_1126,ProdSingRedoBetween,2021.2.3,59.969295933490585,
87,0,87,0,,,,,,,,,,,,,,,,,,,,,,,,,,450.84803960006684,None,damage,55,88,aloud,blue,448.8458815999329,None,None,448.8458815999329,None,,,,,,,,,,,,,,,,,,,,,,,,,,,,,,,,,,,92Aloud,001,2022_Nov_21_1126,ProdSingRedoBetween,2021.2.3,59.969295933490585,
88,0,88,0,,,,,,,,,,,,,,,,,,,,,,,,,,453.36716059967875,None,design,74,89,aloud,red,451.3628083001822,None,None,451.3628083001822,None,,,,,,,,,,,,,,,,,,,,,,,,,,,,,,,,,,,92Aloud,001,2022_Nov_21_1126,ProdSingRedoBetween,2021.2.3,59.969295933490585,
89,0,89,0,,,,,,,,,,,,,,,,,,,,,,,,,,455.8694381993264,None,angle,89,90,aloud,red,453.86841669958085,None,None,453.86841669958085,None,,,,,,,,,,,,,,,,,,,,,,,,,,,,,,,,,,,92Aloud,001,2022_Nov_21_1126,ProdSingRedoBetween,2021.2.3,59.969295933490585,
,,,,,,,,,,,,,,,,,,,,,,,,,,,,,,,,,,,,,,,,,456.3701563999057,None,k,65.8883534995839,456.3701563999057,None,,,,,,,,,,,,,,,,,,,,,,,,,,,,,92Aloud,001,2022_Nov_21_1126,ProdSingRedoBetween,2021.2.3,59.969295933490585,
,,,,0,0,0,0,,,,,,,,,,,,,,,,,,,,,,535.9506510999054,None,,,,,,,,,,,,,,,,,colonel,72,1,aloud,old,red,522.7958952998742,None,522.7958952998742,None,6,10.334738999605179,522.7958952998742,None,10.334738999605179,533.1474358998239,None,533.647297299467,None,533.647297299467,None,r,2.283287599682808,533.647297299467,None,2.283287599682808,,,92Aloud,001,2022_Nov_21_1126,ProdSingRedoBetween,2021.2.3,59.969295933490585,
,,,,1,0,1,0,,,,,,,,,,,,,,,,,,,,,,544.7584320995957,None,,,,,,,,,,,,,,,,,ground,83,2,aloud,old,red,536.4571508998051,None,536.4571508998051,None,4,6.305325499735773,536.4571508998051,None,6.305325499735773,542.790191099979,None,543.2902376996353,None,543.2902376996353,None,f,1.4402970001101494,543.2902376996353,None,1.4402970001101494,,,92Aloud,001,2022_Nov_21_1126,ProdSingRedoBetween,2021.2.3,59.969295933490585,
,,,,2,0,2,0,,,,,,,,,,,,,,,,,,,,,,549.7494711000472,None,,,,,,,,,,,,,,,,,smooth,61,3,aloud,old,red,545.2618590993807,None,545.2618590993807,None,6,2.6846707994118333,545.2618590993807,None,2.6846707994118333,547.964343899861,None,548.4829247994348,None,548.4829247994348,None,r,1.239627000875771,548.4829247994348,None,1.239627000875771,,,92Aloud,001,2022_Nov_21_1126,ProdSingRedoBetween,2021.2.3,59.969295933490585,
,,,,3,0,3,0,,,,,,,,,,,,,,,,,,,,,,554.5180166997015,None,,,,,,,,,,,,,,,,,account,136,4,aloud,new,null,550.267108399421,None,550.267108399421,None,6,2.7275403002277017,550.267108399421,None,2.7275403002277017,553.0175216998905,None,553.5227545993403,None,553.5227545993403,None,r,0.9677437003701925,553.5227545993403,None,0.9677437003701925,,,92Aloud,001,2022_Nov_21_1126,ProdSingRedoBetween,2021.2.3,59.969295933490585,
,,,,4,0,4,0,,,,,,,,,,,,,,,,,,,,,,558.2742894999683,None,,,,,,,,,,,,,,,,,hunger,49,5,aloud,old,blue,555.0200143000111,None,555.0200143000111,None,6,2.0064406003803015,555.0200143000111,None,2.0064406003803015,557.0554246995598,None,557.559970899485,None,557.559970899485,None,r,0.682574300095439,557.559970899485,None,0.682574300095439,,,92Aloud,001,2022_Nov_21_1126,ProdSingRedoBetween,2021.2.3,59.969295933490585,
,,,,5,0,5,0,,,,,,,,,,,,,,,,,,,,,,562.645676699467,None,,,,,,,,,,,,,,,,,agency,126,6,aloud,new,null,558.7937688995153,None,558.7937688995153,None,1,1.9286754000931978,558.7937688995153,None,1.9286754000931978,560.7437713993713,None,561.2581540001556,None,561.2581540001556,None,n,1.3684454001486301,561.2581540001556,None,1.3684454001486301,,,92Aloud,001,2022_Nov_21_1126,ProdSingRedoBetween,2021.2.3,59.969295933490585,
,,,,6,0,6,0,,,,,,,,,,,,,,,,,,,,,,568.4318797001615,None,,,,,,,,,,,,,,,,,notice,158,7,aloud,new,null,563.1598148001358,None,563.1598148001358,None,1,2.99456449970603,563.1598148001358,None,2.99456449970603,566.1973314993083,None,566.6970179993659,None,566.6970179993659,None,n,1.7054506996646523,566.6970179993659,None,1.7054506996646523,,,92Aloud,001,2022_Nov_21_1126,ProdSingRedoBetween,2021.2.3,59.969295933490585,
,,,,7,0,7,0,,,,,,,,,,,,,,,,,,,,,,572.3358180001378,None,,,,,,,,,,,,,,,,,shape,162,8,aloud,new,null,568.9323058994487,None,568.9323058994487,None,1,1.6541138999164104,568.9323058994487,None,1.6541138999164104,570.619189299643,None,571.1381633998826,None,571.1381633998826,None,n,1.1683406000956893,571.1381633998826,None,1.1683406000956893,,,92Aloud,001,2022_Nov_21_1126,ProdSingRedoBetween,2021.2.3,59.969295933490585,
,,,,8,0,8,0,,,,,,,,,,,,,,,,,,,,,,578.0417331997305,None,,,,,,,,,,,,,,,,,store,79,9,aloud,old,red,572.847723999992,None,572.847723999992,None,4,3.6348588000983,572.847723999992,None,3.6348588000983,576.5078320996836,None,577.0137208998203,None,577.0137208998203,None,f,1.004784299992025,577.0137208998203,None,1.004784299992025,,,92Aloud,001,2022_Nov_21_1126,ProdSingRedoBetween,2021.2.3,59.969295933490585,
,,,,9,0,9,0,,,,,,,,,,,,,,,,,,,,,,581.8474488994107,None,,,,,,,,,,,,,,,,,benefit,46,10,aloud,old,blue,578.5523370001465,None,578.5523370001465,None,6,1.9381408002227545,578.5523370001465,None,1.9381408002227545,580.5149376001209,None,581.0283047994599,None,581.0283047994599,None,r,0.7982048997655511,581.0283047994599,None,0.7982048997655511,,,92Aloud,001,2022_Nov_21_1126,ProdSingRedoBetween,2021.2.3,59.969295933490585,
,,,,10,0,10,0,,,,,,,,,,,,,,,,,,,,,,587.0671894997358,None,,,,,,,,,,,,,,,,,opening,173,11,aloud,new,null,582.3655821997672,None,582.3655821997672,None,3,3.076864100061357,582.3655821997672,None,3.076864100061357,585.467885799706,None,585.9943691994995,None,585.9943691994995,None,n,1.0480682998895645,585.9943691994995,None,1.0480682998895645,,,92Aloud,001,2022_Nov_21_1126,ProdSingRedoBetween,2021.2.3,59.969295933490585,
,,,,11,0,11,0,,,,,,,,,,,,,,,,,,,,,,590.7374358996749,None,,,,,,,,,,,,,,,,,dream,163,12,aloud,new,null,587.5755923995748,None,587.5755923995748,None,1,1.5628100000321865,587.5755923995748,None,1.5628100000321865,589.1698362994939,None,589.6732252994552,None,589.6732252994552,None,n,1.0492666000500321,589.6732252994552,None,1.0492666000500321,,,92Aloud,001,2022_Nov_21_1126,ProdSingRedoBetween,2021.2.3,59.969295933490585,
,,,,12,0,12,0,,,,,,,,,,,,,,,,,,,,,,594.4074981994927,None,,,,,,,,,,,,,,,,,bright,128,13,aloud,new,null,591.2398402001709,None,591.2398402001709,None,1,1.5706703001633286,591.2398402001709,None,1.5706703001633286,592.8421983001754,None,593.3577029993758,None,593.3577029993758,None,n,1.020767499692738,593.3577029993758,None,1.020767499692738,,,92Aloud,001,2022_Nov_21_1126,ProdSingRedoBetween,2021.2.3,59.969295933490585,
,,,,13,0,13,0,,,,,,,,,,,,,,,,,,,,,,598.0282398993149,None,,,,,,,,,,,,,,,,,speech,42,14,aloud,old,blue,594.9110754998401,None,594.9110754998401,None,6,1.9393159002065659,594.9110754998401,None,1.9393159002065659,596.8800575993955,None,597.3983124000952,None,597.3983124000952,None,r,0.6041275998577476,597.3983124000952,None,0.6041275998577476,,,92Aloud,001,2022_Nov_21_1126,ProdSingRedoBetween,2021.2.3,59.969295933490585,
,,,,14,0,14,0,,,,,,,,,,,,,,,,,,,,,,602.0319192996249,None,,,,,,,,,,,,,,,,,tragedy,54,15,aloud,old,blue,598.5346423992887,None,598.5346423992887,None,6,2.355756999924779,598.5346423992887,None,2.355756999924779,600.9161682995036,None,601.4349294994026,None,601.4349294994026,None,r,0.5754817007109523,601.4349294994026,None,0.5754817007109523,,,92Aloud,001,2022_Nov_21_1126,ProdSingRedoBetween,2021.2.3,59.969295933490585,
,,,,15,0,15,0,,,,,,,,,,,,,,,,,,,,,,606.1542882993817,None,,,,,,,,,,,,,,,,,range,151,16,aloud,new,null,602.540051699616,None,602.540051699616,None,3,2.0303718000650406,602.540051699616,None,2.0303718000650406,604.603042899631,None,605.1185777001083,None,605.1185777001083,None,n,1.0038540000095963,605.1185777001083,None,1.0038540000095963,,,92Aloud,001,2022_Nov_21_1126,ProdSingRedoBetween,2021.2.3,59.969295933490585,
,,,,16,0,16,0,,,,,,,,,,,,,,,,,,,,,,609.6229721000418,None,,,,,,,,,,,,,,,,,individual,168,17,aloud,new,null,606.6590339001268,None,606.6590339001268,None,1,1.983363600447774,606.6590339001268,None,1.983363600447774,608.6724531995133,None,609.1777038993314,None,609.1777038993314,None,n,0.42472319956868887,609.1777038993314,None,0.42472319956868887,,,92Aloud,001,2022_Nov_21_1126,ProdSingRedoBetween,2021.2.3,59.969295933490585,
,,,,17,0,17,0,,,,,,,,,,,,,,,,,,,,,,614.1780698001385,None,,,,,,,,,,,,,,,,,article,121,18,aloud,new,null,610.1322245998308,None,610.1322245998308,None,6,3.13425310049206,610.1322245998308,None,3.13425310049206,613.3017882993445,None,613.8130267001688,None,613.8130267001688,None,r,0.3335402999073267,613.8130267001688,None,0.3335402999073267,,,92Aloud,001,2022_Nov_21_1126,ProdSingRedoBetween,2021.2.3,59.969295933490585,
,,,,18,0,18,0,,,,,,,,,,,,,,,,,,,,,,617.3473466997966,None,,,,,,,,,,,,,,,,,quick,160,19,aloud,new,null,614.6807581996545,None,614.6807581996545,None,1,1.233653400093317,614.6807581996545,None,1.233653400093317,615.9323894996196,None,616.4502253998071,None,616.4502253998071,None,n,0.8721863003447652,616.4502253998071,None,0.8721863003447652,,,92Aloud,001,2022_Nov_21_1126,ProdSingRedoBetween,2021.2.3,59.969295933490585,
,,,,19,0,19,0,,,,,,,,,,,,,,,,,,,,,,620.2877992996946,None,,,,,,,,,,,,,,,,,little,22,20,aloud,old,yellow,617.8544157994911,None,617.8544157994911,None,1,1.1799548994749784,617.8544157994911,None,1.1799548994749784,619.050827499479,None,619.5731381000951,None,619.5731381000951,None,n,0.6932709002867341,619.5731381000951,None,0.6932709002867341,,,92Aloud,001,2022_Nov_21_1126,ProdSingRedoBetween,2021.2.3,59.969295933490585,
,,,,20,0,20,0,,,,,,,,,,,,,,,,,,,,,,623.4268984999508,None,,,,,,,,,,,,,,,,,payment,56,21,aloud,old,blue,620.8073792997748,None,620.8073792997748,None,1,1.442925900220871,620.8073792997748,None,1.442925900220871,622.2701749000698,None,622.7694899998605,None,622.7694899998605,None,n,0.6330948006361723,622.7694899998605,None,0.6330948006361723,,,92Aloud,001,2022_Nov_21_1126,ProdSingRedoBetween,2021.2.3,59.969295933490585,
,,,,21,0,21,0,,,,,,,,,,,,,,,,,,,,,,626.3395949993283,None,,,,,,,,,,,,,,,,,provision,172,22,aloud,new,null,623.9492186997086,None,623.9492186997086,None,1,1.4772326005622745,623.9492186997086,None,1.4772326005622745,625.457496999763,None,625.972706399858,None,625.972706399858,None,n,0.34178159944713116,625.972706399858,None,0.34178159944713116,,,92Aloud,001,2022_Nov_21_1126,ProdSingRedoBetween,2021.2.3,59.969295933490585,
,,,,22,0,22,0,,,,,,,,,,,,,,,,,,,,,,629.0261433999985,None,,,,,,,,,,,,,,,,,pattern,161,23,aloud,new,null,626.8443876001984,None,626.8443876001984,None,1,1.2299220003187656,626.8443876001984,None,1.2299220003187656,628.0945288995281,None,628.6106345998123,None,628.6106345998123,None,n,0.3836083998903632,628.6106345998123,None,0.3836083998903632,,,92Aloud,001,2022_Nov_21_1126,ProdSingRedoBetween,2021.2.3,59.969295933490585,
,,,,23,0,23,0,,,,,,,,,,,,,,,,,,,,,,631.7450915994123,None,,,,,,,,,,,,,,,,,marriage,179,24,aloud,new,null,629.5262348996475,None,629.5262348996475,None,1,1.1722701005637646,629.5262348996475,None,1.1722701005637646,630.7318444997072,None,631.2467831997201,None,631.2467831997201,None,n,0.4676401000469923,631.2467831997201,None,0.4676401000469923,,,92Aloud,001,2022_Nov_21_1126,ProdSingRedoBetween,2021.2.3,59.969295933490585,
,,,,24,0,24,0,,,,,,,,,,,,,,,,,,,,,,634.5811436995864,None,,,,,,,,,,,,,,,,,edition,64,25,aloud,old,red,632.2483287993819,None,632.2483287993819,None,6,1.4180645002052188,632.2483287993819,None,1.4180645002052188,633.6976204998791,None,634.1975603001192,None,634.1975603001192,None,r,0.3649034993723035,634.1975603001192,None,0.3649034993723035,,,92Aloud,001,2022_Nov_21_1126,ProdSingRedoBetween,2021.2.3,59.969295933490585,
,,,,25,0,25,0,,,,,,,,,,,,,,,,,,,,,,637.0335256000981,None,,,,,,,,,,,,,,,,,education,20,26,aloud,old,yellow,635.0878953998908,None,635.0878953998908,None,6,1.1784927006810904,635.0878953998908,None,1.1784927006810904,636.2838010992855,None,636.7907526995987,None,636.7907526995987,None,r,0.21173179987818003,636.7907526995987,None,0.21173179987818003,,,92Aloud,001,2022_Nov_21_1126,ProdSingRedoBetween,2021.2.3,59.969295933490585,
,,,,26,0,26,0,,,,,,,,,,,,,,,,,,,,,,640.7378602996469,None,,,,,,,,,,,,,,,,,meeting,66,27,aloud,old,red,637.5375127000734,None,637.5375127000734,None,1,2.0248328000307083,637.5375127000734,None,2.0248328000307083,639.5880055995658,None,640.1049995999783,None,640.1049995999783,None,n,0.6173913003876805,640.1049995999783,None,0.6173913003876805,,,92Aloud,001,2022_Nov_21_1126,ProdSingRedoBetween,2021.2.3,59.969295933490585,
,,,,27,0,27,0,,,,,,,,,,,,,,,,,,,,,,644.0462437998503,None,,,,,,,,,,,,,,,,,health,144,28,aloud,new,null,641.239314599894,None,641.239314599894,None,1,1.7470648000016809,641.239314599894,None,1.7470648000016809,643.015790999867,None,643.52363099996,None,643.52363099996,None,n,0.49471989925950766,643.52363099996,None,0.49471989925950766,,,92Aloud,001,2022_Nov_21_1126,ProdSingRedoBetween,2021.2.3,59.969295933490585,
,,,,28,0,28,0,,,,,,,,,,,,,,,,,,,,,,646.8935186993331,None,,,,,,,,,,,,,,,,,appeal,67,29,aloud,old,red,644.5578811001033,None,644.5578811001033,None,6,1.5884530004113913,644.5578811001033,None,1.5884530004113913,646.1769886994734,None,646.6800060002133,None,646.6800060002133,None,r,0.18629230000078678,646.6800060002133,None,0.18629230000078678,,,92Aloud,001,2022_Nov_21_1126,ProdSingRedoBetween,2021.2.3,59.969295933490585,
,,,,29,0,29,0,,,,,,,,,,,,,,,,,,,,,,649.5961998999119,None,,,,,,,,,,,,,,,,,charter,140,30,aloud,new,null,647.4054335998371,None,647.4054335998371,None,1,1.3248916994780302,647.4054335998371,None,1.3248916994780302,648.7453517001122,None,649.2459220001474,None,649.2459220001474,None,n,0.33249269984662533,649.2459220001474,None,0.33249269984662533,,,92Aloud,001,2022_Nov_21_1126,ProdSingRedoBetween,2021.2.3,59.969295933490585,
,,,,30,0,30,0,,,,,,,,,,,,,,,,,,,,,,652.332212199457,None,,,,,,,,,,,,,,,,,corner,178,31,aloud,new,null,650.1006370997056,None,650.1006370997056,None,1,1.2775771003216505,650.1006370997056,None,1.2775771003216505,651.3979671001434,None,651.9029807001352,None,651.9029807001352,None,n,0.4113015001639724,651.9029807001352,None,0.4113015001639724,,,92Aloud,001,2022_Nov_21_1126,ProdSingRedoBetween,2021.2.3,59.969295933490585,
,,,,31,0,31,0,,,,,,,,,,,,,,,,,,,,,,656.1359771993011,None,,,,,,,,,,,,,,,,,watch,165,32,aloud,new,null,652.8398143993691,None,652.8398143993691,None,6,2.506510299630463,652.8398143993691,None,2.506510299630463,655.3696650993079,None,655.8714790996164,None,655.8714790996164,None,r,0.2348659997805953,655.8714790996164,None,0.2348659997805953,,,92Aloud,001,2022_Nov_21_1126,ProdSingRedoBetween,2021.2.3,59.969295933490585,
,,,,32,0,32,0,,,,,,,,,,,,,,,,,,,,,,658.7050466993824,None,,,,,,,,,,,,,,,,,length,92,33,aloud,new,null,656.6511205993593,None,656.6511205993593,None,1,1.1351464996114373,656.6511205993593,None,1.1351464996114373,657.8133683996275,None,658.3239541994408,None,658.3239541994408,None,n,0.35846969950944185,658.3239541994408,None,0.35846969950944185,,,92Aloud,001,2022_Nov_21_1126,ProdSingRedoBetween,2021.2.3,59.969295933490585,
,,,,33,0,33,0,,,,,,,,,,,,,,,,,,,,,,661.8083627996966,None,,,,,,,,,,,,,,,,,chief,60,34,aloud,old,red,659.206894800067,None,659.206894800067,None,1,1.643414800055325,659.206894800067,None,1.643414800055325,660.8763707997277,None,661.3927421001717,None,661.3927421001717,None,n,0.38550599943846464,661.3927421001717,None,0.38550599943846464,,,92Aloud,001,2022_Nov_21_1126,ProdSingRedoBetween,2021.2.3,59.969295933490585,
,,,,34,0,34,0,,,,,,,,,,,,,,,,,,,,,,665.4453310994431,None,,,,,,,,,,,,,,,,,session,4,35,aloud,old,yellow,662.3114171000198,None,662.3114171000198,None,1,1.8908818000927567,662.3114171000198,None,1.8908818000927567,664.2280842997134,None,664.7325903996825,None,664.7325903996825,None,n,0.68566960003227,664.7325903996825,None,0.68566960003227,,,92Aloud,001,2022_Nov_21_1126,ProdSingRedoBetween,2021.2.3,59.969295933490585,
,,,,35,0,35,0,,,,,,,,,,,,,,,,,,,,,,667.9311005994678,None,,,,,,,,,,,,,,,,,thing,138,36,aloud,new,null,665.9541016994044,None,665.9541016994044,None,1,1.152195000089705,665.9541016994044,None,1.152195000089705,667.1304411999881,None,667.631049499847,None,667.631049499847,None,n,0.27543510030955076,667.631049499847,None,0.27543510030955076,,,92Aloud,001,2022_Nov_21_1126,ProdSingRedoBetween,2021.2.3,59.969295933490585,
,,,,36,0,36,0,,,,,,,,,,,,,,,,,,,,,,671.2857176000252,None,,,,,,,,,,,,,,,,,court,125,37,aloud,new,null,668.4371144995093,None,668.4371144995093,None,1,1.677186000160873,668.4371144995093,None,1.677186000160873,670.1333623994142,None,670.6379720997065,None,670.6379720997065,None,n,0.6204622006043792,670.6379720997065,None,0.6204622006043792,,,92Aloud,001,2022_Nov_21_1126,ProdSingRedoBetween,2021.2.3,59.969295933490585,
,,,,37,0,37,0,,,,,,,,,,,,,,,,,,,,,,673.8564770994708,None,,,,,,,,,,,,,,,,,sleep,117,38,aloud,new,null,671.786249499768,None,671.786249499768,None,1,1.0800540000200272,671.786249499768,None,1.0800540000200272,672.8873181995004,None,673.3929703999311,None,673.3929703999311,None,n,0.44136300031095743,673.3929703999311,None,0.44136300031095743,,,92Aloud,001,2022_Nov_21_1126,ProdSingRedoBetween,2021.2.3,59.969295933490585,
,,,,38,0,38,0,,,,,,,,,,,,,,,,,,,,,,676.5561167001724,None,,,,,,,,,,,,,,,,,business,137,39,aloud,new,null,674.3790029995143,None,674.3790029995143,None,1,1.2313074003905058,674.3790029995143,None,1.2313074003905058,675.6426316993311,None,676.159286099486,None,676.159286099486,None,n,0.3710131999105215,676.159286099486,None,0.3710131999105215,,,92Aloud,001,2022_Nov_21_1126,ProdSingRedoBetween,2021.2.3,59.969295933490585,
,,,,39,0,39,0,,,,,,,,,,,,,,,,,,,,,,679.2590780993924,None,,,,,,,,,,,,,,,,,patient,141,40,aloud,new,null,677.0599381001666,None,677.0599381001666,None,1,1.1023788005113602,677.0599381001666,None,1.1023788005113602,678.193915899843,None,678.7087006000802,None,678.7087006000802,None,n,0.5335736991837621,678.7087006000802,None,0.5335736991837621,,,92Aloud,001,2022_Nov_21_1126,ProdSingRedoBetween,2021.2.3,59.969295933490585,
,,,,40,0,40,0,,,,,,,,,,,,,,,,,,,,,,681.9116203999147,None,,,,,,,,,,,,,,,,,committee,11,41,aloud,old,yellow,679.7748908996582,None,679.7748908996582,None,6,1.1715759998187423,679.7748908996582,None,1.1715759998187423,680.9840009994805,None,681.4952371995896,None,681.4952371995896,None,r,0.39506360050290823,681.4952371995896,None,0.39506360050290823,,,92Aloud,001,2022_Nov_21_1126,ProdSingRedoBetween,2021.2.3,59.969295933490585,
,,,,41,0,41,0,,,,,,,,,,,,,,,,,,,,,,684.6655300995335,None,,,,,,,,,,,,,,,,,thick,130,42,aloud,new,null,682.4139206996188,None,682.4139206996188,None,1,1.14046819973737,682.4139206996188,None,1.14046819973737,683.5868060002103,None,684.0998040996492,None,684.0998040996492,None,n,0.5425300002098083,684.0998040996492,None,0.5425300002098083,,,92Aloud,001,2022_Nov_21_1126,ProdSingRedoBetween,2021.2.3,59.969295933490585,
,,,,42,0,42,0,,,,,,,,,,,,,,,,,,,,,,688.0179123999551,None,,,,,,,,,,,,,,,,,suspect,142,43,aloud,new,null,685.1675175996497,None,685.1675175996497,None,1,1.874796699732542,685.1675175996497,None,1.874796699732542,687.0740299997851,None,687.5842452999204,None,687.5842452999204,None,n,0.4180016005411744,687.5842452999204,None,0.4180016005411744,,,92Aloud,001,2022_Nov_21_1126,ProdSingRedoBetween,2021.2.3,59.969295933490585,
,,,,43,0,43,0,,,,,,,,,,,,,,,,,,,,,,690.9584838999435,None,,,,,,,,,,,,,,,,,passage,95,44,aloud,new,null,688.5211490998045,None,688.5211490998045,None,1,1.3531365003436804,688.5211490998045,None,1.3531365003436804,689.9039666997269,None,690.4109764993191,None,690.4109764993191,None,n,0.519340300001204,690.4109764993191,None,0.519340300001204,,,92Aloud,001,2022_Nov_21_1126,ProdSingRedoBetween,2021.2.3,59.969295933490585,
,,,,44,0,44,0,,,,,,,,,,,,,,,,,,,,,,693.3731440994889,None,,,,,,,,,,,,,,,,,institute,52,45,aloud,old,blue,691.4747132994235,None,691.4747132994235,None,6,1.1435433002188802,691.4747132994235,None,1.1435433002188802,692.6395920999348,None,693.1396829998121,None,693.1396829998121,None,r,0.21462650038301945,693.1396829998121,None,0.21462650038301945,,,92Aloud,001,2022_Nov_21_1126,ProdSingRedoBetween,2021.2.3,59.969295933490585,
,,,,45,0,45,0,,,,,,,,,,,,,,,,,,,,,,695.8923316001892,None,,,,,,,,,,,,,,,,,design,74,46,aloud,old,red,693.8868036000058,None,693.8868036000058,None,1,1.1874504005536437,693.8868036000058,None,1.1874504005536437,695.096060199663,None,695.6110020000488,None,695.6110020000488,None,n,0.25536829978227615,695.6110020000488,None,0.25536829978227615,,,92Aloud,001,2022_Nov_21_1126,ProdSingRedoBetween,2021.2.3,59.969295933490585,
,,,,46,0,46,0,,,,,,,,,,,,,,,,,,,,,,698.1610555993393,None,,,,,,,,,,,,,,,,,minor,5,47,aloud,old,yellow,696.4019769001752,None,696.4019769001752,None,6,1.0242141000926495,696.4019769001752,None,1.0242141000926495,697.4437199998647,None,697.9444118998945,None,697.9444118998945,None,r,0.18575000017881393,697.9444118998945,None,0.18575000017881393,,,92Aloud,001,2022_Nov_21_1126,ProdSingRedoBetween,2021.2.3,59.969295933490585,
,,,,47,0,47,0,,,,,,,,,,,,,,,,,,,,,,700.6139738997445,None,,,,,,,,,,,,,,,,,impact,63,48,aloud,old,red,698.661835799925,None,698.661835799925,None,6,1.2204077998176217,698.661835799925,None,1.2204077998176217,699.9169656997547,None,700.4313268996775,None,700.4313268996775,None,r,0.16300739999860525,700.4313268996775,None,0.16300739999860525,,,92Aloud,001,2022_Nov_21_1126,ProdSingRedoBetween,2021.2.3,59.969295933490585,
,,,,48,0,48,0,,,,,,,,,,,,,,,,,,,,,,703.4330062000081,None,,,,,,,,,,,,,,,,,fellow,108,49,aloud,new,null,701.1192633993924,None,701.1192633993924,None,1,1.235038099810481,701.1192633993924,None,1.235038099810481,702.3881207993254,None,702.9103889996186,None,702.9103889996186,None,n,0.491966400295496,702.9103889996186,None,0.491966400295496,,,92Aloud,001,2022_Nov_21_1126,ProdSingRedoBetween,2021.2.3,59.969295933490585,
,,,,49,0,49,0,,,,,,,,,,,,,,,,,,,,,,706.769872199744,None,,,,,,,,,,,,,,,,,reading,80,50,aloud,old,red,703.9430831996724,None,703.9430831996724,None,1,1.9551744004711509,703.9430831996724,None,1.9551744004711509,705.9221351994202,None,706.4425074998289,None,706.4425074998289,None,n,0.3116468992084265,706.4425074998289,None,0.3116468992084265,,,92Aloud,001,2022_Nov_21_1126,ProdSingRedoBetween,2021.2.3,59.969295933490585,
,,,,50,0,50,0,,,,,,,,,,,,,,,,,,,,,,709.5223966995254,None,,,,,,,,,,,,,,,,,scale,145,51,aloud,new,null,707.2724104998633,None,707.2724104998633,None,1,1.409845600835979,707.2724104998633,None,1.409845600835979,708.7232259996235,None,709.2224867995828,None,709.2224867995828,None,n,0.28378709964454174,709.2224867995828,None,0.28378709964454174,,,92Aloud,001,2022_Nov_21_1126,ProdSingRedoBetween,2021.2.3,59.969295933490585,
,,,,51,0,51,0,,,,,,,,,,,,,,,,,,,,,,712.7592537999153,None,,,,,,,,,,,,,,,,,growth,133,52,aloud,new,null,710.0348573001102,None,710.0348573001102,None,1,1.703357799910009,710.0348573001102,None,1.703357799910009,711.7594048995525,None,712.2587518999353,None,712.2587518999353,None,n,0.47967039979994297,712.2587518999353,None,0.47967039979994297,,,92Aloud,001,2022_Nov_21_1126,ProdSingRedoBetween,2021.2.3,59.969295933490585,
,,,,52,0,52,0,,,,,,,,,,,,,,,,,,,,,,715.4294039001688,None,,,,,,,,,,,,,,,,,finish,40,53,aloud,old,blue,713.2654671994969,None,713.2654671994969,None,1,1.3208910999819636,713.2654671994969,None,1.3208910999819636,714.6184909995645,None,715.1280982000753,None,715.1280982000753,None,n,0.27420869935303926,715.1280982000753,None,0.27420869935303926,,,92Aloud,001,2022_Nov_21_1126,ProdSingRedoBetween,2021.2.3,59.969295933490585,
,,,,53,0,53,0,,,,,,,,,,,,,,,,,,,,,,718.2310056993738,None,,,,,,,,,,,,,,,,,beginning,174,54,aloud,new,null,715.9354718001559,None,715.9354718001559,None,1,1.3307169005274773,715.9354718001559,None,1.3307169005274773,717.2973540993407,None,717.8014285992831,None,717.8014285992831,None,n,0.4086796995252371,717.8014285992831,None,0.4086796995252371,,,92Aloud,001,2022_Nov_21_1126,ProdSingRedoBetween,2021.2.3,59.969295933490585,
,,,,54,0,54,0,,,,,,,,,,,,,,,,,,,,,,720.8172365995124,None,,,,,,,,,,,,,,,,,industry,143,55,aloud,new,null,718.7349875997752,None,718.7349875997752,None,1,1.1072246003895998,718.7349875997752,None,1.1072246003895998,719.869428999722,None,720.3834258997813,None,720.3834258997813,None,n,0.41888209991157055,720.3834258997813,None,0.41888209991157055,,,92Aloud,001,2022_Nov_21_1126,ProdSingRedoBetween,2021.2.3,59.969295933490585,
,,,,55,0,55,0,,,,,,,,,,,,,,,,,,,,,,723.523096700199,None,,,,,,,,,,,,,,,,,platform,149,56,aloud,new,null,721.3297875998542,None,721.3297875998542,None,1,1.2004121001809835,721.3297875998542,None,1.2004121001809835,722.5543562993407,None,723.06955049932,None,723.06955049932,None,n,0.4207000005990267,723.06955049932,None,0.4207000005990267,,,92Aloud,001,2022_Nov_21_1126,ProdSingRedoBetween,2021.2.3,59.969295933490585,
,,,,56,0,56,0,,,,,,,,,,,,,,,,,,,,,,726.0057291993871,None,,,,,,,,,,,,,,,,,title,97,57,aloud,new,null,724.0430765999481,None,724.0430765999481,None,1,1.1111281998455524,724.0430765999481,None,1.1111281998455524,725.1748510999605,None,725.688798699528,None,725.688798699528,None,n,0.2894338006153703,725.688798699528,None,0.2894338006153703,,,92Aloud,001,2022_Nov_21_1126,ProdSingRedoBetween,2021.2.3,59.969295933490585,
,,,,57,0,57,0,,,,,,,,,,,,,,,,,,,,,,728.808496600017,None,,,,,,,,,,,,,,,,,judge,150,58,aloud,new,null,726.509407799691,None,726.509407799691,None,1,1.3407832002267241,726.509407799691,None,1.3407832002267241,727.8742534993216,None,728.3745475998148,None,728.3745475998148,None,n,0.4116809004917741,728.3745475998148,None,0.4116809004917741,,,92Aloud,001,2022_Nov_21_1126,ProdSingRedoBetween,2021.2.3,59.969295933490585,
,,,,58,0,58,0,,,,,,,,,,,,,,,,,,,,,,731.4278612993658,None,,,,,,,,,,,,,,,,,department,59,59,aloud,old,yellow,729.3169379001483,None,729.3169379001483,None,1,1.189262199215591,729.3169379001483,None,1.189262199215591,730.5310768000782,None,731.0513261994347,None,731.0513261994347,None,n,0.3510378999635577,731.0513261994347,None,0.3510378999635577,,,92Aloud,001,2022_Nov_21_1126,ProdSingRedoBetween,2021.2.3,59.969295933490585,
,,,,59,0,59,0,,,,,,,,,,,,,,,,,,,,,,733.9468732997775,None,,,,,,,,,,,,,,,,,music,41,60,aloud,old,blue,731.9314933996648,None,731.9314933996648,None,1,1.1827386002987623,731.9314933996648,None,1.1827386002987623,733.1341818999499,None,733.6467512995005,None,733.6467512995005,None,n,0.2754443995654583,733.6467512995005,None,0.2754443995654583,,,92Aloud,001,2022_Nov_21_1126,ProdSingRedoBetween,2021.2.3,59.969295933490585,
,,,,60,0,60,0,,,,,,,,,,,,,,,,,,,,,,736.3327219001949,None,,,,,,,,,,,,,,,,,mayor,105,61,aloud,new,null,734.4565452998504,None,734.4565452998504,None,1,1.0977084999904037,734.4565452998504,None,1.0977084999904037,735.5969854993746,None,736.1001094998792,None,736.1001094998792,None,n,0.20600839983671904,736.1001094998792,None,0.20600839983671904,,,92Aloud,001,2022_Nov_21_1126,ProdSingRedoBetween,2021.2.3,59.969295933490585,
,,,,61,0,61,0,,,,,,,,,,,,,,,,,,,,,,739.2689470993355,None,,,,,,,,,,,,,,,,,volume,101,62,aloud,new,null,736.8467840999365,None,736.8467840999365,None,1,1.4833777993917465,736.8467840999365,None,1.4833777993917465,738.3526917994022,None,738.8578132996336,None,738.8578132996336,None,n,0.3923728000372648,738.8578132996336,None,0.3923728000372648,,,92Aloud,001,2022_Nov_21_1126,ProdSingRedoBetween,2021.2.3,59.969295933490585,
,,,,62,0,62,0,,,,,,,,,,,,,,,,,,,,,,742.1885577999055,None,,,,,,,,,,,,,,,,,portion,14,63,aloud,old,yellow,739.781750000082,None,739.781750000082,None,1,1.3644543997943401,739.781750000082,None,1.3644543997943401,741.1765259001404,None,741.6934520993382,None,741.6934520993382,None,n,0.4767332002520561,741.6934520993382,None,0.4767332002520561,,,92Aloud,001,2022_Nov_21_1126,ProdSingRedoBetween,2021.2.3,59.969295933490585,
,,,,63,0,63,0,,,,,,,,,,,,,,,,,,,,,,745.1913126995787,None,,,,,,,,,,,,,,,,,society,96,64,aloud,new,null,742.6970750000328,None,742.6970750000328,None,1,1.4651212999597192,742.6970750000328,None,1.4651212999597192,744.1930889999494,None,744.7077449001372,None,744.7077449001372,None,n,0.4545460995286703,744.7077449001372,None,0.4545460995286703,,,92Aloud,001,2022_Nov_21_1126,ProdSingRedoBetween,2021.2.3,59.969295933490585,
,,,,64,0,64,0,,,,,,,,,,,,,,,,,,,,,,748.011043199338,None,,,,,,,,,,,,,,,,,shock,148,65,aloud,new,null,745.7032204000279,None,745.7032204000279,None,1,1.050976200029254,745.7032204000279,None,1.050976200029254,746.7844104999676,None,747.2995493998751,None,747.2995493998751,None,n,0.6945235999301076,747.2995493998751,None,0.6945235999301076,,,92Aloud,001,2022_Nov_21_1126,ProdSingRedoBetween,2021.2.3,59.969295933490585,
,,,,65,0,65,0,,,,,,,,,,,,,,,,,,,,,,750.7305151000619,None,,,,,,,,,,,,,,,,,motion,176,66,aloud,new,null,748.5147781996056,None,748.5147781996056,None,1,1.2792915999889374,748.5147781996056,None,1.2792915999889374,749.8124716999009,None,750.3215546999127,None,750.3215546999127,None,n,0.39267029985785484,750.3215546999127,None,0.39267029985785484,,,92Aloud,001,2022_Nov_21_1126,ProdSingRedoBetween,2021.2.3,59.969295933490585,
,,,,66,0,66,0,,,,,,,,,,,,,,,,,,,,,,753.4330918993801,None,,,,,,,,,,,,,,,,,collection,6,67,aloud,old,yellow,751.2373933997005,None,751.2373933997005,None,1,1.1807861998677254,751.2373933997005,None,1.1807861998677254,752.4504332998767,None,752.970043499954,None,752.970043499954,None,n,0.44013680052012205,752.970043499954,None,0.44013680052012205,,,92Aloud,001,2022_Nov_21_1126,ProdSingRedoBetween,2021.2.3,59.969295933490585,
,,,,67,0,67,0,,,,,,,,,,,,,,,,,,,,,,755.918888299726,None,,,,,,,,,,,,,,,,,childhood,109,68,aloud,new,null,753.9402868999168,None,753.9402868999168,None,1,1.0378914000466466,753.9402868999168,None,1.0378914000466466,755.004597700201,None,755.518551199697,None,755.518551199697,None,n,0.3796033998951316,755.518551199697,None,0.3796033998951316,,,92Aloud,001,2022_Nov_21_1126,ProdSingRedoBetween,2021.2.3,59.969295933490585,
,,,,68,0,68,0,,,,,,,,,,,,,,,,,,,,,,758.5885175997391,None,,,,,,,,,,,,,,,,,production,18,69,aloud,old,yellow,756.422154000029,None,756.422154000029,None,1,1.3000177005305886,756.422154000029,None,1.3000177005305886,757.7417271994054,None,758.2543695997447,None,758.2543695997447,None,n,0.3157513001933694,758.2543695997447,None,0.3157513001933694,,,92Aloud,001,2022_Nov_21_1126,ProdSingRedoBetween,2021.2.3,59.969295933490585,
,,,,69,0,69,0,,,,,,,,,,,,,,,,,,,,,,761.0905545996502,None,,,,,,,,,,,,,,,,,sound,106,70,aloud,new,null,759.1014478001744,None,759.1014478001744,None,1,1.0848450995981693,759.1014478001744,None,1.0848450995981693,760.2076936000958,None,760.7111847000197,None,760.7111847000197,None,n,0.3629304999485612,760.7111847000197,None,0.3629304999485612,,,92Aloud,001,2022_Nov_21_1126,ProdSingRedoBetween,2021.2.3,59.969295933490585,
,,,,70,0,70,0,,,,,,,,,,,,,,,,,,,,,,763.6098841000348,None,,,,,,,,,,,,,,,,,signal,134,71,aloud,new,null,761.6025363001972,None,761.6025363001972,None,1,1.0475698998197913,761.6025363001972,None,1.0475698998197913,762.6768705993891,None,763.1811266001314,None,763.1811266001314,None,n,0.405074599198997,763.1811266001314,None,0.405074599198997,,,92Aloud,001,2022_Nov_21_1126,ProdSingRedoBetween,2021.2.3,59.969295933490585,
,,,,71,0,71,0,,,,,,,,,,,,,,,,,,,,,,766.3959684995934,None,,,,,,,,,,,,,,,,,literature,110,72,aloud,new,null,764.1193105001003,None,764.1193105001003,None,1,1.459064799360931,764.1193105001003,None,1.459064799360931,765.5994843998924,None,766.11796749942,None,766.11796749942,None,n,0.26019300054758787,766.11796749942,None,0.26019300054758787,,,92Aloud,001,2022_Nov_21_1126,ProdSingRedoBetween,2021.2.3,59.969295933490585,
,,,,72,0,72,0,,,,,,,,,,,,,,,,,,,,,,768.9485722994432,None,,,,,,,,,,,,,,,,,instrument,167,73,aloud,new,null,766.8994985995814,None,766.8994985995814,None,1,1.2146122995764017,766.8994985995814,None,1.2146122995764017,768.1320471996441,None,768.6357595995069,None,768.6357595995069,None,n,0.28631499968469143,768.6357595995069,None,0.28631499968469143,,,92Aloud,001,2022_Nov_21_1126,ProdSingRedoBetween,2021.2.3,59.969295933490585,
,,,,73,0,73,0,,,,,,,,,,,,,,,,,,,,,,771.3526217993349,None,,,,,,,,,,,,,,,,,space,30,74,aloud,old,blue,769.4579187994823,None,769.4579187994823,None,1,0.8965541999787092,769.4579187994823,None,0.8965541999787092,770.4106089994311,None,770.9173697996885,None,770.9173697996885,None,n,0.4127091998234391,770.9173697996885,None,0.4127091998234391,,,92Aloud,001,2022_Nov_21_1126,ProdSingRedoBetween,2021.2.3,59.969295933490585,
,,,,74,0,74,0,,,,,,,,,,,,,,,,,,,,,,773.7365210996941,None,,,,,,,,,,,,,,,,,suggestion,146,75,aloud,new,null,771.8736141994596,None,771.8736141994596,None,1,1.0245097996667027,771.8736141994596,None,1.0245097996667027,772.9212459996343,None,773.4364404994994,None,773.4364404994994,None,n,0.2777136992663145,773.4364404994994,None,0.2777136992663145,,,92Aloud,001,2022_Nov_21_1126,ProdSingRedoBetween,2021.2.3,59.969295933490585,
,,,,75,0,75,0,,,,,,,,,,,,,,,,,,,,,,776.2650362001732,None,,,,,,,,,,,,,,,,,error,119,76,aloud,new,null,774.2478256002069,None,774.2478256002069,None,1,1.0423368997871876,774.2478256002069,None,1.0423368997871876,775.3255784995854,None,775.8417432000861,None,775.8417432000861,None,n,0.39275809936225414,775.8417432000861,None,0.39275809936225414,,,92Aloud,001,2022_Nov_21_1126,ProdSingRedoBetween,2021.2.3,59.969295933490585,
,,,,76,0,76,0,,,,,,,,,,,,,,,,,,,,,,778.6755038993433,None,,,,,,,,,,,,,,,,,leader,98,77,aloud,new,null,776.7841691998765,None,776.7841691998765,None,1,1.145941799506545,776.7841691998765,None,1.145941799506545,777.962543499656,None,778.4746749997139,None,778.4746749997139,None,n,0.17548999935388565,778.4746749997139,None,0.17548999935388565,,,92Aloud,001,2022_Nov_21_1126,ProdSingRedoBetween,2021.2.3,59.969295933490585,
,,,,77,0,77,0,,,,,,,,,,,,,,,,,,,,,,780.9438579995185,None,,,,,,,,,,,,,,,,,strength,111,78,aloud,new,null,779.1752956993878,None,779.1752956993878,None,1,1.0027958005666733,779.1752956993878,None,1.0027958005666733,780.1941312998533,None,780.7005028994754,None,780.7005028994754,None,n,0.2217509001493454,780.7005028994754,None,0.2217509001493454,,,92Aloud,001,2022_Nov_21_1126,ProdSingRedoBetween,2021.2.3,59.969295933490585,
,,,,78,0,78,0,,,,,,,,,,,,,,,,,,,,,,783.4461528994143,None,,,,,,,,,,,,,,,,,month,44,79,aloud,old,blue,781.4511933000758,None,781.4511933000758,None,1,0.9909089002758265,781.4511933000758,None,0.9909089002758265,782.4629152994603,None,782.9664426995441,None,782.9664426995441,None,n,0.45167130045592785,782.9664426995441,None,0.45167130045592785,,,92Aloud,001,2022_Nov_21_1126,ProdSingRedoBetween,2021.2.3,59.969295933490585,
,,,,79,0,79,0,,,,,,,,,,,,,,,,,,,,,,786.1323049999774,None,,,,,,,,,,,,,,,,,employment,71,80,aloud,old,red,783.9508373998106,None,783.9508373998106,None,6,1.4192717000842094,783.9508373998106,None,1.4192717000842094,785.4026357000694,None,785.9211519993842,None,785.9211519993842,None,r,0.18492280039936304,785.9211519993842,None,0.18492280039936304,,,92Aloud,001,2022_Nov_21_1126,ProdSingRedoBetween,2021.2.3,59.969295933490585,
,,,,80,0,80,0,,,,,,,,,,,,,,,,,,,,,,788.7683630995452,None,,,,,,,,,,,,,,,,,brilliant,2,81,aloud,old,yellow,786.6392016001046,None,786.6392016001046,None,1,1.2669180007651448,786.6392016001046,None,1.2669180007651448,787.9347839001566,None,788.4374661995098,None,788.4374661995098,None,n,0.3086329000070691,788.4374661995098,None,0.3086329000070691,,,92Aloud,001,2022_Nov_21_1126,ProdSingRedoBetween,2021.2.3,59.969295933490585,
,,,,81,0,81,0,,,,,,,,,,,,,,,,,,,,,,791.1207192996517,None,,,,,,,,,,,,,,,,,broke,77,82,aloud,old,red,789.2770541999489,None,789.2770541999489,None,6,1.2530366005375981,789.2770541999489,None,1.2530366005375981,790.555555799976,None,791.0793449999765,None,791.0793449999765,None,r,0.01878019981086254,791.0793449999765,None,0.01878019981086254,,,92Aloud,001,2022_Nov_21_1126,ProdSingRedoBetween,2021.2.3,59.969295933490585,
,,,,82,0,82,0,,,,,,,,,,,,,,,,,,,,,,794.7576104002073,None,,,,,,,,,,,,,,,,,angle,89,83,aloud,old,red,791.6288941996172,None,791.6288941996172,None,1,1.8051779996603727,791.6288941996172,None,1.8051779996603727,793.4572030995041,None,793.9569581001997,None,793.9569581001997,None,n,0.7811218993738294,793.9569581001997,None,0.7811218993738294,,,92Aloud,001,2022_Nov_21_1126,ProdSingRedoBetween,2021.2.3,59.969295933490585,
,,,,83,0,83,0,,,,,,,,,,,,,,,,,,,,,,797.4603015994653,None,,,,,,,,,,,,,,,,,review,38,84,aloud,old,blue,795.2660425994545,None,795.2660425994545,None,1,1.4800948994234204,795.2660425994545,None,1.4800948994234204,796.7816121000797,None,797.2935892995447,None,797.2935892995447,None,n,0.14063389971852303,797.2935892995447,None,0.14063389971852303,,,92Aloud,001,2022_Nov_21_1126,ProdSingRedoBetween,2021.2.3,59.969295933490585,
,,,,84,0,84,0,,,,,,,,,,,,,,,,,,,,,,799.8794281994924,None,,,,,,,,,,,,,,,,,scene,51,85,aloud,old,blue,797.9702465999871,None,797.9702465999871,None,6,1.2718259999528527,797.9702465999871,None,1.2718259999528527,799.2633541999385,None,799.767245799303,None,799.767245799303,None,r,0.09079559985548258,799.767245799303,None,0.09079559985548258,,,92Aloud,001,2022_Nov_21_1126,ProdSingRedoBetween,2021.2.3,59.969295933490585,
,,,,85,0,85,0,,,,,,,,,,,,,,,,,,,,,,802.2317068995908,None,,,,,,,,,,,,,,,,,disease,9,86,aloud,old,yellow,800.3877104995772,None,800.3877104995772,None,1,1.206363300792873,800.3877104995772,None,1.206363300792873,801.6165100997314,None,802.1361207999289,None,802.1361207999289,None,n,0.07397759985178709,802.1361207999289,None,0.07397759985178709,,,92Aloud,001,2022_Nov_21_1126,ProdSingRedoBetween,2021.2.3,59.969295933490585,
,,,,86,0,86,0,,,,,,,,,,,,,,,,,,,,,,807.9539960995317,None,,,,,,,,,,,,,,,,,weight,15,87,aloud,old,yellow,802.7378161996603,None,802.7378161996603,None,6,1.2402591006830335,802.7378161996603,None,1.2402591006830335,804.0014552995563,None,804.500784999691,None,804.500784999691,None,r,3.429240900091827,804.500784999691,None,3.429240900091827,,,92Aloud,001,2022_Nov_21_1126,ProdSingRedoBetween,2021.2.3,59.969295933490585,
,,,,87,0,87,0,,,,,,,,,,,,,,,,,,,,,,811.2405996993184,None,,,,,,,,,,,,,,,,,quantity,82,88,aloud,old,red,808.466567799449,None,808.466567799449,None,1,2.0235625999048352,808.466567799449,None,2.0235625999048352,810.5156009001657,None,811.0290931994095,None,811.0290931994095,None,n,0.18099920079112053,811.0290931994095,None,0.18099920079112053,,,92Aloud,001,2022_Nov_21_1126,ProdSingRedoBetween,2021.2.3,59.969295933490585,
,,,,88,0,88,0,,,,,,,,,,,,,,,,,,,,,,813.813461699523,None,,,,,,,,,,,,,,,,,quiet,177,89,aloud,new,null,811.7443244000897,None,811.7443244000897,None,1,1.2497738003730774,811.7443244000897,None,1.2497738003730774,813.015104399994,None,813.5305452998728,None,813.5305452998728,None,n,0.25559179950505495,813.5305452998728,None,0.25559179950505495,,,92Aloud,001,2022_Nov_21_1126,ProdSingRedoBetween,2021.2.3,59.969295933490585,
,,,,89,0,89,0,,,,,,,,,,,,,,,,,,,,,,816.42984769959,None,,,,,,,,,,,,,,,,,discussion,58,90,aloud,old,blue,814.3326682001352,None,814.3326682001352,None,1,1.3335525002330542,814.3326682001352,None,1.3335525002330542,815.7031287997961,None,816.2193204993382,None,816.2193204993382,None,n,0.1908644000068307,816.2193204993382,None,0.1908644000068307,,,92Aloud,001,2022_Nov_21_1126,ProdSingRedoBetween,2021.2.3,59.969295933490585,
,,,,90,0,90,0,,,,,,,,,,,,,,,,,,,,,,819.1666757995263,None,,,,,,,,,,,,,,,,,interior,171,91,aloud,new,null,816.9339421000332,None,816.9339421000332,None,1,1.3401017002761364,816.9339421000332,None,1.3401017002761364,818.2976385001093,None,818.7982344999909,None,818.7982344999909,None,n,0.34801890049129725,818.7982344999909,None,0.34801890049129725,,,92Aloud,001,2022_Nov_21_1126,ProdSingRedoBetween,2021.2.3,59.969295933490585,
,,,,91,0,91,0,,,,,,,,,,,,,,,,,,,,,,821.8179757995531,None,,,,,,,,,,,,,,,,,group,147,92,aloud,new,null,819.6702568000183,None,819.6702568000183,None,1,1.2437904002144933,819.6702568000183,None,1.2437904002144933,820.9347687996924,None,821.4370697000995,None,821.4370697000995,None,n,0.36495190020650625,821.4370697000995,None,0.36495190020650625,,,92Aloud,001,2022_Nov_21_1126,ProdSingRedoBetween,2021.2.3,59.969295933490585,
,,,,92,0,92,0,,,,,,,,,,,,,,,,,,,,,,824.8543673995882,None,,,,,,,,,,,,,,,,,surprise,1,93,aloud,old,yellow,822.3223009994254,None,822.3223009994254,None,1,1.5436136005446315,822.3223009994254,None,1.5436136005446315,823.8919207993895,None,824.4040433000773,None,824.4040433000773,None,n,0.4220476998016238,824.4040433000773,None,0.4220476998016238,,,92Aloud,001,2022_Nov_21_1126,ProdSingRedoBetween,2021.2.3,59.969295933490585,
,,,,93,0,93,0,,,,,,,,,,,,,,,,,,,,,,827.8238417999819,None,,,,,,,,,,,,,,,,,blind,78,94,aloud,old,red,825.3633848996833,None,825.3633848996833,None,1,1.3986350996419787,825.3633848996833,None,1.3986350996419787,826.7953571993858,None,827.3098232001066,None,827.3098232001066,None,n,0.4921971997246146,827.3098232001066,None,0.4921971997246146,,,92Aloud,001,2022_Nov_21_1126,ProdSingRedoBetween,2021.2.3,59.969295933490585,
,,,,94,0,94,0,,,,,,,,,,,,,,,,,,,,,,830.8434028001502,None,,,,,,,,,,,,,,,,,material,39,95,aloud,old,blue,828.3271257998422,None,828.3271257998422,None,1,1.578907199203968,828.3271257998422,None,1.578907199203968,829.9269741000608,None,830.4266282999888,None,830.4266282999888,None,n,0.3993499996140599,830.4266282999888,None,0.3993499996140599,,,92Aloud,001,2022_Nov_21_1126,ProdSingRedoBetween,2021.2.3,59.969295933490585,
,,,,95,0,95,0,,,,,,,,,,,,,,,,,,,,,,834.1132327001542,None,,,,,,,,,,,,,,,,,route,156,96,aloud,new,null,831.34959719982,None,831.34959719982,None,1,1.9483709996566176,831.34959719982,None,1.9483709996566176,833.3243861999363,None,833.8297411995009,None,833.8297411995009,None,n,0.26026499923318624,833.8297411995009,None,0.26026499923318624,,,92Aloud,001,2022_Nov_21_1126,ProdSingRedoBetween,2021.2.3,59.969295933490585,
,,,,96,0,96,0,,,,,,,,,,,,,,,,,,,,,,837.2666462995112,None,,,,,,,,,,,,,,,,,beauty,114,97,aloud,new,null,834.6151943998411,None,834.6151943998411,None,1,1.7628210000693798,834.6151943998411,None,1.7628210000693798,836.4003465995193,None,836.9040896994993,None,836.9040896994993,None,n,0.3379263002425432,836.9040896994993,None,0.3379263002425432,,,92Aloud,001,2022_Nov_21_1126,ProdSingRedoBetween,2021.2.3,59.969295933490585,
,,,,97,0,97,0,,,,,,,,,,,,,,,,,,,,,,839.8692505992949,None,,,,,,,,,,,,,,,,,income,116,98,aloud,new,null,837.7753641000018,None,837.7753641000018,None,1,1.1545152002945542,837.7753641000018,None,1.1545152002945542,838.953578799963,None,839.4686923995614,None,839.4686923995614,None,n,0.3732666000723839,839.4686923995614,None,0.3732666000723839,,,92Aloud,001,2022_Nov_21_1126,ProdSingRedoBetween,2021.2.3,59.969295933490585,
,,,,98,0,98,0,,,,,,,,,,,,,,,,,,,,,,842.655295399949,None,,,,,,,,,,,,,,,,,history,21,99,aloud,old,yellow,840.3784485999495,None,840.3784485999495,None,6,1.5356180993840098,840.3784485999495,None,1.5356180993840098,841.9469559993595,None,842.4553438993171,None,842.4553438993171,None,r,0.17864799965173006,842.4553438993171,None,0.17864799965173006,,,92Aloud,001,2022_Nov_21_1126,ProdSingRedoBetween,2021.2.3,59.969295933490585,
,,,,99,0,99,0,,,,,,,,,,,,,,,,,,,,,,845.3951070001349,None,,,,,,,,,,,,,,,,,revolution,86,100,aloud,old,red,843.1567502999678,None,843.1567502999678,None,1,1.4612859999760985,843.1567502999678,None,1.4612859999760985,844.6427675997838,None,845.1602473994717,None,845.1602473994717,None,n,0.20997790060937405,845.1602473994717,None,0.20997790060937405,,,92Aloud,001,2022_Nov_21_1126,ProdSingRedoBetween,2021.2.3,59.969295933490585,
,,,,100,0,100,0,,,,,,,,,,,,,,,,,,,,,,847.8605025997385,None,,,,,,,,,,,,,,,,,problem,25,101,aloud,old,yellow,845.9146376997232,None,845.9146376997232,None,1,1.1513144997879863,845.9146376997232,None,1.1513144997879863,847.093879699707,None,847.5992580000311,None,847.5992580000311,None,n,0.23475300054997206,847.5992580000311,None,0.23475300054997206,,,92Aloud,001,2022_Nov_21_1126,ProdSingRedoBetween,2021.2.3,59.969295933490585,
,,,,101,0,101,0,,,,,,,,,,,,,,,,,,,,,,850.3630855996162,None,,,,,,,,,,,,,,,,,military,62,102,aloud,old,red,848.3627730999142,None,848.3627730999142,None,6,1.3112676003947854,848.3627730999142,None,1.3112676003947854,849.7020745994523,None,850.2130472995341,None,850.2130472995341,None,r,0.1249941997230053,850.2130472995341,None,0.1249941997230053,,,92Aloud,001,2022_Nov_21_1126,ProdSingRedoBetween,2021.2.3,59.969295933490585,
,,,,102,0,102,0,,,,,,,,,,,,,,,,,,,,,,852.848912499845,None,,,,,,,,,,,,,,,,,defeat,157,103,aloud,new,null,850.8758106995374,None,850.8758106995374,None,1,1.0221939999610186,850.8758106995374,None,1.0221939999610186,851.9157491000369,None,852.4158536996692,None,852.4158536996692,None,n,0.40205799974501133,852.4158536996692,None,0.40205799974501133,,,92Aloud,001,2022_Nov_21_1126,ProdSingRedoBetween,2021.2.3,59.969295933490585,
,,,,103,0,103,0,,,,,,,,,,,,,,,,,,,,,,855.1177717996761,None,,,,,,,,,,,,,,,,,carry,124,104,aloud,new,null,853.3572562998161,None,853.3572562998161,None,1,0.9967924999073148,853.3572562998161,None,0.9967924999073148,854.3908441001549,None,854.9010169999674,None,854.9010169999674,None,n,0.19699019938707352,854.9010169999674,None,0.19699019938707352,,,92Aloud,001,2022_Nov_21_1126,ProdSingRedoBetween,2021.2.3,59.969295933490585,
,,,,104,0,104,0,,,,,,,,,,,,,,,,,,,,,,857.5701649999246,None,,,,,,,,,,,,,,,,,population,75,105,aloud,old,red,855.6303040999919,None,855.6303040999919,None,1,1.091622400097549,855.6303040999919,None,1.091622400097549,856.754089999944,None,857.2606937000528,None,857.2606937000528,None,n,0.2852953998371959,857.2606937000528,None,0.2852953998371959,,,92Aloud,001,2022_Nov_21_1126,ProdSingRedoBetween,2021.2.3,59.969295933490585,
,,,,105,0,105,0,,,,,,,,,,,,,,,,,,,,,,859.7724503995851,None,,,,,,,,,,,,,,,,,graduate,13,106,aloud,old,yellow,858.0770308999345,None,858.0770308999345,None,6,1.0608851006254554,858.0770308999345,None,1.0608851006254554,859.1579114999622,None,859.673720699735,None,859.673720699735,None,r,0.08028309978544712,859.673720699735,None,0.08028309978544712,,,92Aloud,001,2022_Nov_21_1126,ProdSingRedoBetween,2021.2.3,59.969295933490585,
,,,,106,0,106,0,,,,,,,,,,,,,,,,,,,,,,862.3095054998994,None,,,,,,,,,,,,,,,,,territory,48,107,aloud,old,blue,860.286842700094,None,860.286842700094,None,1,1.211175600066781,860.286842700094,None,1.211175600066781,861.5268755992875,None,862.0450602993369,None,862.0450602993369,None,n,0.24480880051851273,862.0450602993369,None,0.24480880051851273,,,92Aloud,001,2022_Nov_21_1126,ProdSingRedoBetween,2021.2.3,59.969295933490585,
,,,,107,0,107,0,,,,,,,,,,,,,,,,,,,,,,864.8107591997832,None,,,,,,,,,,,,,,,,,comfort,23,108,aloud,old,yellow,862.8278115000576,None,862.8278115000576,None,1,1.0380221996456385,862.8278115000576,None,1.0380221996456385,863.8934749998152,None,864.4001521999016,None,864.4001521999016,None,n,0.3937764996662736,864.4001521999016,None,0.3937764996662736,,,92Aloud,001,2022_Nov_21_1126,ProdSingRedoBetween,2021.2.3,59.969295933490585,
,,,,108,0,108,0,,,,,,,,,,,,,,,,,,,,,,867.8471373999491,None,,,,,,,,,,,,,,,,,harmony,129,109,aloud,new,null,865.320618099533,None,865.320618099533,None,1,1.0733009995892644,865.320618099533,None,1.0733009995892644,866.4143774993718,None,866.9296686993912,None,866.9296686993912,None,n,0.8883734997361898,866.9296686993912,None,0.8883734997361898,,,92Aloud,001,2022_Nov_21_1126,ProdSingRedoBetween,2021.2.3,59.969295933490585,
,,,,109,0,109,0,,,,,,,,,,,,,,,,,,,,,,870.5163059998304,None,,,,,,,,,,,,,,,,,breath,28,110,aloud,old,yellow,868.3478072993457,None,868.3478072993457,None,6,1.4461591998115182,868.3478072993457,None,1.4461591998115182,869.8156498996541,None,870.3207646999508,None,870.3207646999508,None,r,0.17719309963285923,870.3207646999508,None,0.17719309963285923,,,92Aloud,001,2022_Nov_21_1126,ProdSingRedoBetween,2021.2.3,59.969295933490585,
,,,,110,0,110,0,,,,,,,,,,,,,,,,,,,,,,873.0523491995409,None,,,,,,,,,,,,,,,,,trail,43,111,aloud,old,blue,871.0272853998467,None,871.0272853998467,None,1,1.1666895998641849,871.0272853998467,None,1.1666895998641849,872.2262402996421,None,872.7354685999453,None,872.7354685999453,None,n,0.29846360068768263,872.7354685999453,None,0.29846360068768263,,,92Aloud,001,2022_Nov_21_1126,ProdSingRedoBetween,2021.2.3,59.969295933490585,
,,,,111,0,111,0,,,,,,,,,,,,,,,,,,,,,,876.3890207000077,None,,,,,,,,,,,,,,,,,murder,155,112,aloud,new,null,873.5547517994419,None,873.5547517994419,None,1,1.271220300346613,873.5547517994419,None,1.271220300346613,874.8547724997625,None,875.3547591995448,None,875.3547591995448,None,n,1.0152960997074842,875.3547591995448,None,1.0152960997074842,,,92Aloud,001,2022_Nov_21_1126,ProdSingRedoBetween,2021.2.3,59.969295933490585,
,,,,112,0,112,0,,,,,,,,,,,,,,,,,,,,,,878.9246614994481,None,,,,,,,,,,,,,,,,,power,99,113,aloud,new,null,876.8991776993498,None,876.8991776993498,None,1,1.0707932999357581,876.8991776993498,None,1.0707932999357581,877.9944182001054,None,878.5078656999394,None,878.5078656999394,None,n,0.3900980995967984,878.5078656999394,None,0.3900980995967984,,,92Aloud,001,2022_Nov_21_1126,ProdSingRedoBetween,2021.2.3,59.969295933490585,
,,,,113,0,113,0,,,,,,,,,,,,,,,,,,,,,,881.3105496997014,None,,,,,,,,,,,,,,,,,religion,123,114,aloud,new,null,879.4390091998503,None,879.4390091998503,None,1,1.0908938003703952,879.4390091998503,None,1.0908938003703952,880.5604484993964,None,881.0660493997857,None,881.0660493997857,None,n,0.21589439921081066,881.0660493997857,None,0.21589439921081066,,,92Aloud,001,2022_Nov_21_1126,ProdSingRedoBetween,2021.2.3,59.969295933490585,
,,,,114,0,114,0,,,,,,,,,,,,,,,,,,,,,,883.6296189995483,None,,,,,,,,,,,,,,,,,enemy,104,115,aloud,new,null,881.8142619999126,None,881.8142619999126,None,1,1.0038636000826955,881.8142619999126,None,1.0038636000826955,882.8542730994523,None,883.364401999861,None,883.364401999861,None,n,0.2374905999749899,883.364401999861,None,0.2374905999749899,,,92Aloud,001,2022_Nov_21_1126,ProdSingRedoBetween,2021.2.3,59.969295933490585,
,,,,115,0,115,0,,,,,,,,,,,,,,,,,,,,,,885.9985894998536,None,,,,,,,,,,,,,,,,,bicycle,24,116,aloud,old,yellow,884.1414914997295,None,884.1414914997295,None,1,1.0284158000722528,884.1414914997295,None,1.0284158000722528,885.198781799525,None,885.7011051001027,None,885.7011051001027,None,n,0.26881369948387146,885.7011051001027,None,0.26881369948387146,,,92Aloud,001,2022_Nov_21_1126,ProdSingRedoBetween,2021.2.3,59.969295933490585,
,,,,116,0,116,0,,,,,,,,,,,,,,,,,,,,,,888.2841982999817,None,,,,,,,,,,,,,,,,,budget,65,117,aloud,old,red,886.5080256992951,None,886.5080256992951,None,1,1.0698163006454706,886.5080256992951,None,1.0698163006454706,887.6001798994839,None,888.103308999911,None,888.103308999911,None,n,0.16251009982079268,888.103308999911,None,0.16251009982079268,,,92Aloud,001,2022_Nov_21_1126,ProdSingRedoBetween,2021.2.3,59.969295933490585,
,,,,117,0,117,0,,,,,,,,,,,,,,,,,,,,,,890.7199486996979,None,,,,,,,,,,,,,,,,,discovery,68,118,aloud,old,red,888.7978598996997,None,888.7978598996997,None,1,1.0599720003083348,888.7978598996997,None,1.0599720003083348,889.8879726994783,None,890.4112048996612,None,890.4112048996612,None,n,0.28680829983204603,890.4112048996612,None,0.28680829983204603,,,92Aloud,001,2022_Nov_21_1126,ProdSingRedoBetween,2021.2.3,59.969295933490585,
,,,,118,0,118,0,,,,,,,,,,,,,,,,,,,,,,893.1891085999086,None,,,,,,,,,,,,,,,,,drama,112,119,aloud,new,null,891.226127599366,None,891.226127599366,None,1,1.0718819005414844,891.226127599366,None,1.0718819005414844,892.3303177999333,None,892.8403912000358,None,892.8403912000358,None,n,0.3295272998511791,892.8403912000358,None,0.3295272998511791,,,92Aloud,001,2022_Nov_21_1126,ProdSingRedoBetween,2021.2.3,59.969295933490585,
,,,,119,0,119,0,,,,,,,,,,,,,,,,,,,,,,896.4089741995558,None,,,,,,,,,,,,,,,,,couch,47,120,aloud,old,blue,893.6963398000225,None,893.6963398000225,None,6,1.1294870004057884,893.6963398000225,None,1.1294870004057884,894.857555099763,None,895.36049669981,None,895.36049669981,None,r,1.0173694007098675,895.36049669981,None,1.0173694007098675,,,92Aloud,001,2022_Nov_21_1126,ProdSingRedoBetween,2021.2.3,59.969295933490585,
,,,,120,0,120,0,,,,,,,,,,,,,,,,,,,,,,899.3638786999509,None,,,,,,,,,,,,,,,,,skill,103,121,aloud,new,null,896.9252354996279,None,896.9252354996279,None,1,1.7326659001410007,896.9252354996279,None,1.7326659001410007,898.6790610998869,None,899.1784985000268,None,899.1784985000268,None,n,0.16728429961949587,899.1784985000268,None,0.16728429961949587,,,92Aloud,001,2022_Nov_21_1126,ProdSingRedoBetween,2021.2.3,59.969295933490585,
,,,,121,0,121,0,,,,,,,,,,,,,,,,,,,,,,901.9645529994741,None,,,,,,,,,,,,,,,,,author,33,122,aloud,old,blue,899.8884968999773,None,899.8884968999773,None,1,1.3373953001573682,899.8884968999773,None,1.3373953001573682,901.2481924993917,None,901.7525225998834,None,901.7525225998834,None,n,0.18541899975389242,901.7525225998834,None,0.18541899975389242,,,92Aloud,001,2022_Nov_21_1126,ProdSingRedoBetween,2021.2.3,59.969295933490585,
,,,,122,0,122,0,,,,,,,,,,,,,,,,,,,,,,904.9508531000465,None,,,,,,,,,,,,,,,,,right,152,123,aloud,new,null,902.4677951997146,None,902.4677951997146,None,1,1.4140567006543279,902.4677951997146,None,1.4140567006543279,903.9007719000801,None,904.4078433001414,None,904.4078433001414,None,n,0.522091600112617,904.4078433001414,None,0.522091600112617,,,92Aloud,001,2022_Nov_21_1126,ProdSingRedoBetween,2021.2.3,59.969295933490585,
,,,,123,0,123,0,,,,,,,,,,,,,,,,,,,,,,907.4700363995507,None,,,,,,,,,,,,,,,,,public,107,124,aloud,new,null,905.4650678997859,None,905.4650678997859,None,1,1.2408146001398563,905.4650678997859,None,1.2408146001398563,906.7382963001728,None,907.2590013993904,None,907.2590013993904,None,n,0.18290060013532639,907.2590013993904,None,0.18290060013532639,,,92Aloud,001,2022_Nov_21_1126,ProdSingRedoBetween,2021.2.3,59.969295933490585,
,,,,124,0,124,0,,,,,,,,,,,,,,,,,,,,,,910.0552709000185,None,,,,,,,,,,,,,,,,,front,35,125,aloud,old,blue,907.9734594998881,None,907.9734594998881,None,1,1.228431699797511,907.9734594998881,None,1.228431699797511,909.2238692995161,None,909.7466044994071,None,909.7466044994071,None,n,0.2632820997387171,909.7466044994071,None,0.2632820997387171,,,92Aloud,001,2022_Nov_21_1126,ProdSingRedoBetween,2021.2.3,59.969295933490585,
,,,,125,0,125,0,,,,,,,,,,,,,,,,,,,,,,912.3248512996361,None,,,,,,,,,,,,,,,,,alert,17,126,aloud,old,yellow,910.5629893001169,None,910.5629893001169,None,6,1.1989589994773269,910.5629893001169,None,1.1989589994773269,911.792351199314,None,912.2941333996132,None,912.2941333996132,None,r,0.01188809983432293,912.2941333996132,None,0.01188809983432293,,,92Aloud,001,2022_Nov_21_1126,ProdSingRedoBetween,2021.2.3,59.969295933490585,
,,,,126,0,126,0,,,,,,,,,,,,,,,,,,,,,,915.4947224995121,None,,,,,,,,,,,,,,,,,relation,88,127,aloud,old,red,912.8340983996168,None,912.8340983996168,None,1,1.815730300731957,912.8340983996168,None,1.815730300731957,914.6776540996507,None,915.1797422999516,None,915.1797422999516,None,n,0.2860570000484586,915.1797422999516,None,0.2860570000484586,,,92Aloud,001,2022_Nov_21_1126,ProdSingRedoBetween,2021.2.3,59.969295933490585,
,,,,127,0,127,0,,,,,,,,,,,,,,,,,,,,,,919.4151849998161,None,,,,,,,,,,,,,,,,,tough,175,128,aloud,new,null,916.0058942995965,None,916.0058942995965,None,1,2.4920028001070023,916.0058942995965,None,2.4920028001070023,918.5152382999659,None,919.017696400173,None,919.017696400173,None,n,0.3681374005973339,919.017696400173,None,0.3681374005973339,,,92Aloud,001,2022_Nov_21_1126,ProdSingRedoBetween,2021.2.3,59.969295933490585,
,,,,128,0,128,0,,,,,,,,,,,,,,,,,,,,,,922.1346546998248,None,,,,,,,,,,,,,,,,,appearance,57,129,aloud,old,blue,919.9258610997349,None,919.9258610997349,None,6,1.6039869002997875,919.9258610997349,None,1.6039869002997875,921.5520195998251,None,922.0578128993511,None,922.0578128993511,None,r,0.04805599991232157,922.0578128993511,None,0.04805599991232157,,,92Aloud,001,2022_Nov_21_1126,ProdSingRedoBetween,2021.2.3,59.969295933490585,
,,,,129,0,129,0,,,,,,,,,,,,,,,,,,,,,,924.9040908999741,None,,,,,,,,,,,,,,,,,season,87,130,aloud,old,red,922.6456300998107,None,922.6456300998107,None,6,1.5002812994644046,922.6456300998107,None,1.5002812994644046,924.1759252995253,None,924.6887432998046,None,924.6887432998046,None,r,0.193104799836874,924.6887432998046,None,0.193104799836874,,,92Aloud,001,2022_Nov_21_1126,ProdSingRedoBetween,2021.2.3,59.969295933490585,
,,,,130,0,130,0,,,,,,,,,,,,,,,,,,,,,,927.7068443000317,None,,,,,,,,,,,,,,,,,grade,53,131,aloud,old,blue,925.4133016997948,None,925.4133016997948,None,1,1.5725608998909593,925.4133016997948,None,1.5725608998909593,927.007068099454,None,927.5067266998813,None,927.5067266998813,None,n,0.1751493001356721,927.5067266998813,None,0.1751493001356721,,,92Aloud,001,2022_Nov_21_1126,ProdSingRedoBetween,2021.2.3,59.969295933490585,
,,,,131,0,131,0,,,,,,,,,,,,,,,,,,,,,,930.2260210001841,None,,,,,,,,,,,,,,,,,evidence,164,132,aloud,new,null,928.2104903999716,None,928.2104903999716,None,1,1.3032834995537996,928.2104903999716,None,1.3032834995537996,929.5419576996937,None,930.0426016999409,None,930.0426016999409,None,n,0.1591362999752164,930.0426016999409,None,0.1591362999752164,,,92Aloud,001,2022_Nov_21_1126,ProdSingRedoBetween,2021.2.3,59.969295933490585,
,,,,132,0,132,0,,,,,,,,,,,,,,,,,,,,,,932.5616622995585,None,,,,,,,,,,,,,,,,,afternoon,169,133,aloud,new,null,930.7354881996289,None,930.7354881996289,None,1,1.090238799341023,930.7354881996289,None,1.090238799341023,931.846026099287,None,932.3647269001231,None,932.3647269001231,None,n,0.17314180079847574,932.3647269001231,None,0.17314180079847574,,,92Aloud,001,2022_Nov_21_1126,ProdSingRedoBetween,2021.2.3,59.969295933490585,
,,,,133,0,133,0,,,,,,,,,,,,,,,,,,,,,,935.2310779998079,None,,,,,,,,,,,,,,,,,number,131,134,aloud,new,null,933.0719074001536,None,933.0719074001536,None,1,1.0020415000617504,933.0719074001536,None,1.0020415000617504,934.0992460995913,None,934.6137434002012,None,934.6137434002012,None,n,0.5881772004067898,934.6137434002012,None,0.5881772004067898,,,92Aloud,001,2022_Nov_21_1126,ProdSingRedoBetween,2021.2.3,59.969295933490585,
,,,,134,0,134,0,,,,,,,,,,,,,,,,,,,,,,938.217320099473,None,,,,,,,,,,,,,,,,,count,7,135,aloud,old,yellow,935.7400142997503,None,935.7400142997503,None,1,1.7738194996491075,935.7400142997503,None,1.7738194996491075,937.5342725999653,None,938.0387183995917,None,938.0387183995917,None,n,0.1471653003245592,938.0387183995917,None,0.1471653003245592,,,92Aloud,001,2022_Nov_21_1126,ProdSingRedoBetween,2021.2.3,59.969295933490585,
,,,,135,0,135,0,,,,,,,,,,,,,,,,,,,,,,940.654473000206,None,,,,,,,,,,,,,,,,,minute,34,136,aloud,old,blue,938.7264701994136,None,938.7264701994136,None,6,1.3233446003869176,938.7264701994136,None,1.3233446003869176,940.0700944000855,None,940.5724897999316,None,940.5724897999316,None,r,0.061452699825167656,940.5724897999316,None,0.061452699825167656,,,92Aloud,001,2022_Nov_21_1126,ProdSingRedoBetween,2021.2.3,59.969295933490585,
,,,,136,0,136,0,,,,,,,,,,,,,,,,,,,,,,943.2389366999269,None,,,,,,,,,,,,,,,,,finance,93,137,aloud,new,null,941.1680080993101,None,941.1680080993101,None,1,1.2737901005893946,941.1680080993101,None,1.2737901005893946,942.4725208999589,None,942.9721625000238,None,942.9721625000238,None,n,0.23773420043289661,942.9721625000238,None,0.23773420043289661,,,92Aloud,001,2022_Nov_21_1126,ProdSingRedoBetween,2021.2.3,59.969295933490585,
,,,,137,0,137,0,,,,,,,,,,,,,,,,,,,,,,946.1252039000392,None,,,,,,,,,,,,,,,,,short,102,138,aloud,new,null,943.7507719993591,None,943.7507719993591,None,1,1.451061200350523,943.7507719993591,None,1.451061200350523,945.2273685997352,None,945.7417175993323,None,945.7417175993323,None,n,0.3560222005471587,945.7417175993323,None,0.3560222005471587,,,92Aloud,001,2022_Nov_21_1126,ProdSingRedoBetween,2021.2.3,59.969295933490585,
,,,,138,0,138,0,,,,,,,,,,,,,,,,,,,,,,948.6277184998617,None,,,,,,,,,,,,,,,,,worker,94,139,aloud,new,null,946.6298607001081,None,946.6298607001081,None,1,1.11612160038203,946.6298607001081,None,1.11612160038203,947.7841946994886,None,948.3012568000704,None,948.3012568000704,None,n,0.3004573993384838,948.3012568000704,None,0.3004573993384838,,,92Aloud,001,2022_Nov_21_1126,ProdSingRedoBetween,2021.2.3,59.969295933490585,
,,,,139,0,139,0,,,,,,,,,,,,,,,,,,,,,,951.1132841994986,None,,,,,,,,,,,,,,,,,present,122,140,aloud,new,null,949.1407789001241,None,949.1407789001241,None,1,1.1890078000724316,949.1407789001241,None,1.1890078000724316,950.3481525992975,None,950.8664318993688,None,950.8664318993688,None,n,0.22348560020327568,950.8664318993688,None,0.22348560020327568,,,92Aloud,001,2022_Nov_21_1126,ProdSingRedoBetween,2021.2.3,59.969295933490585,
,,,,140,0,140,0,,,,,,,,,,,,,,,,,,,,,,953.6827932996675,None,,,,,,,,,,,,,,,,,substance,166,141,aloud,new,null,951.6146786995232,None,951.6146786995232,None,1,1.2832655999809504,951.6146786995232,None,1.2832655999809504,952.9189222995192,None,953.4388021994382,None,953.4388021994382,None,n,0.22698580008000135,953.4388021994382,None,0.22698580008000135,,,92Aloud,001,2022_Nov_21_1126,ProdSingRedoBetween,2021.2.3,59.969295933490585,
,,,,141,0,141,0,,,,,,,,,,,,,,,,,,,,,,956.5688378997147,None,,,,,,,,,,,,,,,,,council,69,142,aloud,old,red,954.1908497000113,None,954.1908497000113,None,1,1.6509916000068188,954.1908497000113,None,1.6509916000068188,955.8726226994768,None,956.3853068994358,None,956.3853068994358,None,n,0.16040639951825142,956.3853068994358,None,0.16040639951825142,,,92Aloud,001,2022_Nov_21_1126,ProdSingRedoBetween,2021.2.3,59.969295933490585,
,,,,142,0,142,0,,,,,,,,,,,,,,,,,,,,,,959.109403599985,None,,,,,,,,,,,,,,,,,piece,31,143,aloud,old,blue,957.0729820998386,None,957.0729820998386,None,1,1.2328365007415414,957.0729820998386,None,1.2328365007415414,958.3217340996489,None,958.8476762995124,None,958.8476762995124,None,n,0.23405479919165373,958.8476762995124,None,0.23405479919165373,,,92Aloud,001,2022_Nov_21_1126,ProdSingRedoBetween,2021.2.3,59.969295933490585,
,,,,143,0,143,0,,,,,,,,,,,,,,,,,,,,,,961.5906841000542,None,,,,,,,,,,,,,,,,,executive,100,144,aloud,new,null,959.6248271996155,None,959.6248271996155,None,1,1.2088756002485752,959.6248271996155,None,1.2088756002485752,960.8598350994289,None,961.3739752992988,None,961.3739752992988,None,n,0.19586910028010607,961.3739752992988,None,0.19586910028010607,,,92Aloud,001,2022_Nov_21_1126,ProdSingRedoBetween,2021.2.3,59.969295933490585,
,,,,144,0,144,0,,,,,,,,,,,,,,,,,,,,,,964.4107205998152,None,,,,,,,,,,,,,,,,,welcome,10,145,aloud,old,yellow,962.0948778996244,None,962.0948778996244,None,6,1.4029495008289814,962.0948778996244,None,1.4029495008289814,963.5270691998303,None,964.0329249994829,None,964.0329249994829,None,r,0.36114219948649406,964.0329249994829,None,0.36114219948649406,,,92Aloud,001,2022_Nov_21_1126,ProdSingRedoBetween,2021.2.3,59.969295933490585,
,,,,145,0,145,0,,,,,,,,,,,,,,,,,,,,,,966.8960098000243,None,,,,,,,,,,,,,,,,,novel,27,146,aloud,old,yellow,964.9105004994199,None,964.9105004994199,None,1,1.2033027997240424,964.9105004994199,None,1.2033027997240424,966.1459793997929,None,966.6457471996546,None,966.6457471996546,None,n,0.22016789950430393,966.6457471996546,None,0.22016789950430393,,,92Aloud,001,2022_Nov_21_1126,ProdSingRedoBetween,2021.2.3,59.969295933490585,
,,,,146,0,146,0,,,,,,,,,,,,,,,,,,,,,,969.748768299818,None,,,,,,,,,,,,,,,,,recall,127,147,aloud,new,null,967.400054499507,None,967.400054499507,None,1,1.5697935000061989,967.400054499507,None,1.5697935000061989,968.9979954995215,None,969.4986088993028,None,969.4986088993028,None,n,0.22310039959847927,969.4986088993028,None,0.22310039959847927,,,92Aloud,001,2022_Nov_21_1126,ProdSingRedoBetween,2021.2.3,59.969295933490585,
,,,,147,0,147,0,,,,,,,,,,,,,,,,,,,,,,973.152182799764,None,,,,,,,,,,,,,,,,,estate,0,148,aloud,old,yellow,970.252448500134,None,970.252448500134,None,6,2.3092515002936125,970.252448500134,None,2.3092515002936125,972.5853287000209,None,973.0912704998627,None,973.0912704998627,None,r,0.03859169967472553,973.0912704998627,None,0.03859169967472553,,,92Aloud,001,2022_Nov_21_1126,ProdSingRedoBetween,2021.2.3,59.969295933490585,
,,,,148,0,148,0,,,,,,,,,,,,,,,,,,,,,,975.6713304994628,None,,,,,,,,,,,,,,,,,character,3,149,aloud,old,yellow,973.6595155997202,None,973.6595155997202,None,1,1.2543064001947641,973.6595155997202,None,1.2543064001947641,974.9418027997017,None,975.4577476000413,None,975.4577476000413,None,n,0.18390939943492413,975.4577476000413,None,0.18390939943492413,,,92Aloud,001,2022_Nov_21_1126,ProdSingRedoBetween,2021.2.3,59.969295933490585,
,,,,149,0,149,0,,,,,,,,,,,,,,,,,,,,,,978.3571116998792,None,,,,,,,,,,,,,,,,,force,84,150,aloud,old,red,976.1784634999931,None,976.1784634999931,None,1,1.2394463000819087,976.1784634999931,None,1.2394463000819087,977.4425382995978,None,977.9583986001089,None,977.9583986001089,None,n,0.3714266000315547,977.9583986001089,None,0.3714266000315547,,,92Aloud,001,2022_Nov_21_1126,ProdSingRedoBetween,2021.2.3,59.969295933490585,
,,,,150,0,150,0,,,,,,,,,,,,,,,,,,,,,,981.1435447996482,None,,,,,,,,,,,,,,,,,tennis,170,151,aloud,new,null,978.8611089996994,None,978.8611089996994,None,1,1.4126426000148058,978.8611089996994,None,1.4126426000148058,980.2955872993916,None,980.815400400199,None,980.815400400199,None,n,0.3063701996579766,980.815400400199,None,0.3063701996579766,,,92Aloud,001,2022_Nov_21_1126,ProdSingRedoBetween,2021.2.3,59.969295933490585,
,,,,151,0,151,0,,,,,,,,,,,,,,,,,,,,,,984.0463659996167,None,,,,,,,,,,,,,,,,,owner,29,152,aloud,old,blue,981.6532793994993,None,981.6532793994993,None,1,1.5965019995346665,981.6532793994993,None,1.5965019995346665,983.2820063000545,None,983.8002348998562,None,983.8002348998562,None,n,0.21754130069166422,983.8002348998562,None,0.21754130069166422,,,92Aloud,001,2022_Nov_21_1126,ProdSingRedoBetween,2021.2.3,59.969295933490585,
,,,,152,0,152,0,,,,,,,,,,,,,,,,,,,,,,987.3010502001271,None,,,,,,,,,,,,,,,,,damage,55,153,aloud,old,blue,984.5521772000939,None,984.5521772000939,None,1,2.0176636995747685,984.5521772000939,None,2.0176636995747685,986.6012947997078,None,987.1207277001813,None,987.1207277001813,None,n,0.15319360047578812,987.1207277001813,None,0.15319360047578812,,,92Aloud,001,2022_Nov_21_1126,ProdSingRedoBetween,2021.2.3,59.969295933490585,
,,,,153,0,153,0,,,,,,,,,,,,,,,,,,,,,,991.4703602995723,None,,,,,,,,,,,,,,,,,write,85,154,aloud,old,red,987.8020119993016,None,987.8020119993016,None,6,1.8717837007716298,987.8020119993016,None,1.8717837007716298,989.7035058001056,None,990.2031207997352,None,990.2031207997352,None,r,1.2466641999781132,990.2031207997352,None,1.2466641999781132,,,92Aloud,001,2022_Nov_21_1126,ProdSingRedoBetween,2021.2.3,59.969295933490585,
,,,,154,0,154,0,,,,,,,,,,,,,,,,,,,,,,993.8728465000167,None,,,,,,,,,,,,,,,,,track,135,155,aloud,new,null,991.9830026999116,None,991.9830026999116,None,1,1.1867134999483824,991.9830026999116,None,1.1867134999483824,993.1928710993379,None,993.7062029000372,None,993.7062029000372,None,n,0.1357447002083063,993.7062029000372,None,0.1357447002083063,,,92Aloud,001,2022_Nov_21_1126,ProdSingRedoBetween,2021.2.3,59.969295933490585,
,,,,155,0,155,0,,,,,,,,,,,,,,,,,,,,,,996.2837009998038,None,,,,,,,,,,,,,,,,,medicine,118,156,aloud,new,null,994.3747148998082,None,994.3747148998082,None,1,1.115124199539423,994.3747148998082,None,1.115124199539423,995.5111723998562,None,996.0346636995673,None,996.0346636995673,None,n,0.22326379921287298,996.0346636995673,None,0.22326379921287298,,,92Aloud,001,2022_Nov_21_1126,ProdSingRedoBetween,2021.2.3,59.969295933490585,
,,,,156,0,156,0,,,,,,,,,,,,,,,,,,,,,,998.5775586999953,None,,,,,,,,,,,,,,,,,escape,132,157,aloud,new,null,996.7993223993108,None,996.7993223993108,None,1,0.9944337997585535,996.7993223993108,None,0.9944337997585535,997.8162310998887,None,998.3329027993605,None,998.3329027993605,None,n,0.22084760013967752,998.3329027993605,None,0.22084760013967752,,,92Aloud,001,2022_Nov_21_1126,ProdSingRedoBetween,2021.2.3,59.969295933490585,
,,,,157,0,157,0,,,,,,,,,,,,,,,,,,,,,,1001.5652620000765,None,,,,,,,,,,,,,,,,,capital,76,158,aloud,old,red,999.0870734993368,None,999.0870734993368,None,1,1.6906038001179695,999.0870734993368,None,1.6906038001179695,1000.7978078993037,None,1001.3038857998326,None,1001.3038857998326,None,n,0.23389240074902773,1001.3038857998326,None,0.23389240074902773,,,92Aloud,001,2022_Nov_21_1126,ProdSingRedoBetween,2021.2.3,59.969295933490585,
,,,,158,0,158,0,,,,,,,,,,,,,,,,,,,,,,1004.0163570996374,None,,,,,,,,,,,,,,,,,attack,50,159,aloud,old,blue,1002.0671899002045,None,1002.0671899002045,None,1,1.1986084003001451,1002.0671899002045,None,1.1986084003001451,1003.28705789987,None,1003.802902199328,None,1003.802902199328,None,n,0.1828065998852253,1003.802902199328,None,0.1828065998852253,,,92Aloud,001,2022_Nov_21_1126,ProdSingRedoBetween,2021.2.3,59.969295933490585,
,,,,159,0,159,0,,,,,,,,,,,,,,,,,,,,,,1006.5686336001381,None,,,,,,,,,,,,,,,,,cousin,26,160,aloud,old,yellow,1004.52986219991,None,1004.52986219991,None,6,1.3118187002837658,1004.52986219991,None,1.3118187002837658,1005.8699324997142,None,1006.3926830999553,None,1006.3926830999553,None,r,0.1530696004629135,1006.3926830999553,None,0.1530696004629135,,,92Aloud,001,2022_Nov_21_1126,ProdSingRedoBetween,2021.2.3,59.969295933490585,
,,,,160,0,160,0,,,,,,,,,,,,,,,,,,,,,,1010.3392579993233,None,,,,,,,,,,,,,,,,,union,32,161,aloud,old,blue,1007.0712238997221,None,1007.0712238997221,None,1,2.5544948000460863,1007.0712238997221,None,2.5544948000460863,1009.657728199847,None,1010.1734818993136,None,1010.1734818993136,None,n,0.1404066001996398,1010.1734818993136,None,0.1404066001996398,,,92Aloud,001,2022_Nov_21_1126,ProdSingRedoBetween,2021.2.3,59.969295933490585,
,,,,161,0,161,0,,,,,,,,,,,,,,,,,,,,,,1012.9419411001727,None,,,,,,,,,,,,,,,,,answer,113,162,aloud,new,null,1010.8428365001455,None,1010.8428365001455,None,1,1.3668694999068975,1010.8428365001455,None,1.3668694999068975,1012.2275641001761,None,1012.7418232997879,None,1012.7418232997879,None,n,0.17991789989173412,1012.7418232997879,None,0.17991789989173412,,,92Aloud,001,2022_Nov_21_1126,ProdSingRedoBetween,2021.2.3,59.969295933490585,
,,,,162,0,162,0,,,,,,,,,,,,,,,,,,,,,,1015.644593199715,None,,,,,,,,,,,,,,,,,question,81,163,aloud,old,red,1013.446744799614,None,1013.446744799614,None,1,1.491159800440073,1013.446744799614,None,1.491159800440073,1014.9629525998607,None,1015.4808684000745,None,1015.4808684000745,None,n,0.13678070064634085,1015.4808684000745,None,0.13678070064634085,,,92Aloud,001,2022_Nov_21_1126,ProdSingRedoBetween,2021.2.3,59.969295933490585,
,,,,163,0,163,0,,,,,,,,,,,,,,,,,,,,,,1017.9811685001478,None,,,,,,,,,,,,,,,,,majority,159,164,aloud,new,null,1016.156831599772,None,1016.156831599772,None,1,1.1009508995339274,1016.156831599772,None,1.1009508995339274,1017.284574800171,None,1017.796832899563,None,1017.796832899563,None,n,0.16481509990990162,1017.796832899563,None,0.16481509990990162,,,92Aloud,001,2022_Nov_21_1126,ProdSingRedoBetween,2021.2.3,59.969295933490585,
,,,,164,0,164,0,,,,,,,,,,,,,,,,,,,,,,1020.3660010993481,None,,,,,,,,,,,,,,,,,light,139,165,aloud,new,null,1018.4839622993022,None,1018.4839622993022,None,1,1.0616210997104645,1018.4839622993022,None,1.0616210997104645,1019.5759430993348,None,1020.0823617996648,None,1020.0823617996648,None,n,0.2553525995463133,1020.0823617996648,None,0.2553525995463133,,,92Aloud,001,2022_Nov_21_1126,ProdSingRedoBetween,2021.2.3,59.969295933490585,
,,,,165,0,165,0,,,,,,,,,,,,,,,,,,,,,,1023.5187935000286,None,,,,,,,,,,,,,,,,,pancakes,19,166,aloud,old,yellow,1020.8706172993407,None,1020.8706172993407,None,6,1.6270103994756937,1020.8706172993407,None,1.6270103994756937,1022.5300489999354,None,1023.0352651001886,None,1023.0352651001886,None,r,0.45433690026402473,1023.0352651001886,None,0.45433690026402473,,,92Aloud,001,2022_Nov_21_1126,ProdSingRedoBetween,2021.2.3,59.969295933490585,
,,,,166,0,166,0,,,,,,,,,,,,,,,,,,,,,,1026.0716754999012,None,,,,,,,,,,,,,,,,,gesture,91,167,aloud,new,null,1024.0324371997267,None,1024.0324371997267,None,1,1.2813162002712488,1024.0324371997267,None,1.2813162002712488,1025.3435958996415,None,1025.8548280997202,None,1025.8548280997202,None,n,0.1868174998089671,1025.8548280997202,None,0.1868174998089671,,,92Aloud,001,2022_Nov_21_1126,ProdSingRedoBetween,2021.2.3,59.969295933490585,
,,,,167,0,167,0,,,,,,,,,,,,,,,,,,,,,,1028.440699099563,None,,,,,,,,,,,,,,,,,pressure,120,168,aloud,new,null,1026.5797156998888,None,1026.5797156998888,None,1,1.0459416005760431,1026.5797156998888,None,1.0459416005760431,1027.6582271996886,None,1028.1766470000148,None,1028.1766470000148,None,n,0.23301379941403866,1028.1766470000148,None,0.23301379941403866,,,92Aloud,001,2022_Nov_21_1126,ProdSingRedoBetween,2021.2.3,59.969295933490585,
,,,,168,0,168,0,,,,,,,,,,,,,,,,,,,,,,1030.8931163996458,None,,,,,,,,,,,,,,,,,center,90,169,aloud,new,null,1028.9433287000284,None,1028.9433287000284,None,1,1.1783616002649069,1028.9433287000284,None,1.1783616002649069,1030.143301599659,None,1030.647020299919,None,1030.647020299919,None,n,0.22667769994586706,1030.647020299919,None,0.22667769994586706,,,92Aloud,001,2022_Nov_21_1126,ProdSingRedoBetween,2021.2.3,59.969295933490585,
,,,,169,0,169,0,,,,,,,,,,,,,,,,,,,,,,1033.3789059994742,None,,,,,,,,,,,,,,,,,listen,154,170,aloud,new,null,1031.4052292993292,None,1031.4052292993292,None,1,1.0924321003258228,1031.4052292993292,None,1.0924321003258228,1032.5297997994348,None,1033.0469434000552,None,1033.0469434000552,None,n,0.31470439955592155,1033.0469434000552,None,0.31470439955592155,,,92Aloud,001,2022_Nov_21_1126,ProdSingRedoBetween,2021.2.3,59.969295933490585,
,,,,170,0,170,0,,,,,,,,,,,,,,,,,,,,,,1035.931439699605,None,,,,,,,,,,,,,,,,,husband,70,171,aloud,old,red,1033.887315299362,None,1033.887315299362,None,1,1.2903335997834802,1033.887315299362,None,1.2903335997834802,1035.1997502995655,None,1035.7188641997054,None,1035.7188641997054,None,n,0.18673539999872446,1035.7188641997054,None,0.18673539999872446,,,92Aloud,001,2022_Nov_21_1126,ProdSingRedoBetween,2021.2.3,59.969295933490585,
,,,,171,0,171,0,,,,,,,,,,,,,,,,,,,,,,1039.3681987999007,None,,,,,,,,,,,,,,,,,produce,73,172,aloud,old,red,1036.4424986001104,None,1036.4424986001104,None,6,2.1910976003855467,1036.4424986001104,None,2.1910976003855467,1038.653771999292,None,1039.170879399404,None,1039.170879399404,None,r,0.17486749961972237,1039.170879399404,None,0.17486749961972237,,,92Aloud,001,2022_Nov_21_1126,ProdSingRedoBetween,2021.2.3,59.969295933490585,
,,,,172,0,172,0,,,,,,,,,,,,,,,,,,,,,,1041.9208182999864,None,,,,,,,,,,,,,,,,,series,45,173,aloud,old,blue,1039.8754896000028,None,1039.8754896000028,None,1,1.1822111001238227,1039.8754896000028,None,1.1822111001238227,1041.0875781001523,None,1041.5875501995906,None,1041.5875501995906,None,n,0.3181153004989028,1041.5875501995906,None,0.3181153004989028,,,92Aloud,001,2022_Nov_21_1126,ProdSingRedoBetween,2021.2.3,59.969295933490585,
,,,,173,0,173,0,,,,,,,,,,,,,,,,,,,,,,1044.256335100159,None,,,,,,,,,,,,,,,,,citizen,12,174,aloud,old,yellow,1042.4300670996308,None,1042.4300670996308,None,1,1.0357355996966362,1042.4300670996308,None,1.0357355996966362,1043.493497800082,None,1044.0106811998412,None,1044.0106811998412,None,n,0.22310000006109476,1044.0106811998412,None,0.22310000006109476,,,92Aloud,001,2022_Nov_21_1126,ProdSingRedoBetween,2021.2.3,59.969295933490585,
,,,,174,0,174,0,,,,,,,,,,,,,,,,,,,,,,1046.7755959993228,None,,,,,,,,,,,,,,,,,comedy,115,175,aloud,new,null,1044.7620642995462,None,1044.7620642995462,None,1,1.1756779998540878,1044.7620642995462,None,1.1756779998540878,1045.965723999776,None,1046.4752902993932,None,1046.4752902993932,None,n,0.27837720047682524,1046.4752902993932,None,0.27837720047682524,,,92Aloud,001,2022_Nov_21_1126,ProdSingRedoBetween,2021.2.3,59.969295933490585,
,,,,175,0,175,0,,,,,,,,,,,,,,,,,,,,,,1049.0489722993225,None,,,,,,,,,,,,,,,,,figure,153,176,aloud,new,null,1047.284092599526,None,1047.284092599526,None,1,0.9815649995580316,1047.284092599526,None,0.9815649995580316,1048.2949328999966,None,1048.7940760999918,None,1048.7940760999918,None,n,0.2234649993479252,1048.7940760999918,None,0.2234649993479252,,,92Aloud,001,2022_Nov_21_1126,ProdSingRedoBetween,2021.2.3,59.969295933490585,
,,,,176,0,176,0,,,,,,,,,,,,,,,,,,,,,,1051.399358799681,None,,,,,,,,,,,,,,,,,career,8,177,aloud,old,yellow,1049.5616937000304,None,1049.5616937000304,None,1,1.055909899994731,1049.5616937000304,None,1.055909899994731,1050.6467127995566,None,1051.1466501997784,None,1051.1466501997784,None,n,0.23159939981997013,1051.1466501997784,None,0.23159939981997013,,,92Aloud,001,2022_Nov_21_1126,ProdSingRedoBetween,2021.2.3,59.969295933490585,
