StudyLoop.thisRepN,StudyLoop.thisTrialN,StudyLoop.thisN,StudyLoop.thisIndex,TestLoop.thisRepN,TestLoop.thisTrialN,TestLoop.thisN,TestLoop.thisIndex,textCondition.started,textCondition.stopped,keyCondition.keys,keyCondition.rt,keyCondition.started,keyCondition.stopped,Condition,textWelcome.started,textWelcome.stopped,keyWelcome.keys,keyWelcome.rt,keyWelcome.started,keyWelcome.stopped,textAloud.started,textAloud.stopped,textSilent.started,textSilent.stopped,textSing.started,textSing.stopped,conditional_text.started,conditional_text.stopped,textBlank500.started,textBlank500.stopped,study_word,study_num,study_order,study_type,word_color,textStudy.started,textStudy.stopped,keyStudy.keys,keyStudy.started,keyStudy.stopped,textTestInstructions.started,textTestInstructions.stopped,key_resp_3.keys,key_resp_3.rt,key_resp_3.started,key_resp_3.stopped,test_word,test_num,test_order,test_condition,old_new_test,test_word_original_color,textConf.started,textConf.stopped,textConfScale.started,textConfScale.stopped,keyConf.keys,keyConf.rt,keyConf.started,keyConf.stopped,confidence response time,textTestBlank.started,textTestBlank.stopped,textRKN.started,textRKN.stopped,textRKNScale.started,textRKNScale.stopped,keyRKN.keys,keyRKN.rt,keyRKN.started,keyRKN.stopped,rkn response time,textEnd.started,textEnd.stopped,participant,session,date,expName,psychopyVersion,frameRate,
,,,,,,,,78.16914639994502,None,c,1.1871410002931952,78.16914639994502,None,,,,,,,,,,,,,,,,,,,,,,,,,,,,,,,,,,,,,,,,,,,,,,,,,,,,,,,,,,,,,,93Sing,001,2022_Nov_21_1146,ProdSingRedoBetween,2021.2.3,59.98123767013078,
,,,,,,,,,,,,,,SingTest,79.4094642996788,None,space,1088.6489611994475,79.4094642996788,None,,,,,,,,,,,,,,,,,,,,,,,,,,,,,,,,,,,,,,,,,,,,,,,,,,,,,,,93Sing,001,2022_Nov_21_1146,ProdSingRedoBetween,2021.2.3,59.98123767013078,
0,0,0,0,,,,,,,,,,,,,,,,,,79.4094642996788,None,79.4094642996788,None,79.4094642996788,None,79.4094642996788,None,1170.6081439992413,None,plane,85,1,sing,red,1168.5962267993018,None,None,1168.5962267993018,None,,,,,,,,,,,,,,,,,,,,,,,,,,,,,,,,,,,93Sing,001,2022_Nov_21_1146,ProdSingRedoBetween,2021.2.3,59.98123767013078,
1,0,1,0,,,,,,,,,,,,,,,,,,,,,,,,,,1173.110523100011,None,grade,27,2,sing,yellow,1171.1094129998237,None,None,1171.1094129998237,None,,,,,,,,,,,,,,,,,,,,,,,,,,,,,,,,,,,93Sing,001,2022_Nov_21_1146,ProdSingRedoBetween,2021.2.3,59.98123767013078,
2,0,2,0,,,,,,,,,,,,,,,,,,,,,,,,,,1175.613137099892,None,candidate,3,3,sing,yellow,1173.6110219992697,None,None,1173.6110219992697,None,,,,,,,,,,,,,,,,,,,,,,,,,,,,,,,,,,,93Sing,001,2022_Nov_21_1146,ProdSingRedoBetween,2021.2.3,59.98123767013078,
3,0,3,0,,,,,,,,,,,,,,,,,,,,,,,,,,1178.115704499185,None,foundation,84,4,sing,red,1176.114361799322,None,None,1176.114361799322,None,,,,,,,,,,,,,,,,,,,,,,,,,,,,,,,,,,,93Sing,001,2022_Nov_21_1146,ProdSingRedoBetween,2021.2.3,59.98123767013078,
4,0,4,0,,,,,,,,,,,,,,,,,,,,,,,,,,1180.6181614995003,None,clear,73,5,sing,red,1178.6162144998088,None,None,1178.6162144998088,None,,,,,,,,,,,,,,,,,,,,,,,,,,,,,,,,,,,93Sing,001,2022_Nov_21_1146,ProdSingRedoBetween,2021.2.3,59.98123767013078,
5,0,5,0,,,,,,,,,,,,,,,,,,,,,,,,,,1183.1206485992298,None,attack,4,6,sing,yellow,1181.1184630999342,None,None,1181.1184630999342,None,,,,,,,,,,,,,,,,,,,,,,,,,,,,,,,,,,,93Sing,001,2022_Nov_21_1146,ProdSingRedoBetween,2021.2.3,59.98123767013078,
6,0,6,0,,,,,,,,,,,,,,,,,,,,,,,,,,1185.6398147996515,None,block,28,7,sing,yellow,1183.6253174999729,None,None,1183.6253174999729,None,,,,,,,,,,,,,,,,,,,,,,,,,,,,,,,,,,,93Sing,001,2022_Nov_21_1146,ProdSingRedoBetween,2021.2.3,59.98123767013078,
7,0,7,0,,,,,,,,,,,,,,,,,,,,,,,,,,1188.142235999927,None,smooth,19,8,sing,yellow,1186.1401910996065,None,None,1186.1401910996065,None,,,,,,,,,,,,,,,,,,,,,,,,,,,,,,,,,,,93Sing,001,2022_Nov_21_1146,ProdSingRedoBetween,2021.2.3,59.98123767013078,
8,0,8,0,,,,,,,,,,,,,,,,,,,,,,,,,,1190.6445158999413,None,spoke,34,9,sing,blue,1188.6452257996425,None,None,1188.6452257996425,None,,,,,,,,,,,,,,,,,,,,,,,,,,,,,,,,,,,93Sing,001,2022_Nov_21_1146,ProdSingRedoBetween,2021.2.3,59.98123767013078,
9,0,9,0,,,,,,,,,,,,,,,,,,,,,,,,,,1193.1471837991849,None,fight,33,10,sing,blue,1191.1456441991031,None,None,1191.1456441991031,None,,,,,,,,,,,,,,,,,,,,,,,,,,,,,,,,,,,93Sing,001,2022_Nov_21_1146,ProdSingRedoBetween,2021.2.3,59.98123767013078,
10,0,10,0,,,,,,,,,,,,,,,,,,,,,,,,,,1195.6664399998263,None,entrance,87,11,sing,red,1193.6519379997626,None,None,1193.6519379997626,None,,,,,,,,,,,,,,,,,,,,,,,,,,,,,,,,,,,93Sing,001,2022_Nov_21_1146,ProdSingRedoBetween,2021.2.3,59.98123767013078,
11,0,11,0,,,,,,,,,,,,,,,,,,,,,,,,,,1198.1689609996974,None,shape,74,12,sing,red,1196.167241299525,None,None,1196.167241299525,None,,,,,,,,,,,,,,,,,,,,,,,,,,,,,,,,,,,93Sing,001,2022_Nov_21_1146,ProdSingRedoBetween,2021.2.3,59.98123767013078,
12,0,12,0,,,,,,,,,,,,,,,,,,,,,,,,,,1200.6712687993422,None,discovery,35,13,sing,blue,1198.6707924995571,None,None,1198.6707924995571,None,,,,,,,,,,,,,,,,,,,,,,,,,,,,,,,,,,,93Sing,001,2022_Nov_21_1146,ProdSingRedoBetween,2021.2.3,59.98123767013078,
13,0,13,0,,,,,,,,,,,,,,,,,,,,,,,,,,1203.1739650992677,None,audience,18,14,sing,yellow,1201.1720179999247,None,None,1201.1720179999247,None,,,,,,,,,,,,,,,,,,,,,,,,,,,,,,,,,,,93Sing,001,2022_Nov_21_1146,ProdSingRedoBetween,2021.2.3,59.98123767013078,
14,0,14,0,,,,,,,,,,,,,,,,,,,,,,,,,,1205.6765205999836,None,travel,40,15,sing,blue,1203.6758954999968,None,None,1203.6758954999968,None,,,,,,,,,,,,,,,,,,,,,,,,,,,,,,,,,,,93Sing,001,2022_Nov_21_1146,ProdSingRedoBetween,2021.2.3,59.98123767013078,
15,0,15,0,,,,,,,,,,,,,,,,,,,,,,,,,,1208.1787467999384,None,material,77,16,sing,red,1206.178445099853,None,None,1206.178445099853,None,,,,,,,,,,,,,,,,,,,,,,,,,,,,,,,,,,,93Sing,001,2022_Nov_21_1146,ProdSingRedoBetween,2021.2.3,59.98123767013078,
16,0,16,0,,,,,,,,,,,,,,,,,,,,,,,,,,1210.681259199977,None,heavy,63,17,sing,red,1208.6792780999094,None,None,1208.6792780999094,None,,,,,,,,,,,,,,,,,,,,,,,,,,,,,,,,,,,93Sing,001,2022_Nov_21_1146,ProdSingRedoBetween,2021.2.3,59.98123767013078,
17,0,17,0,,,,,,,,,,,,,,,,,,,,,,,,,,1213.183941599913,None,staff,65,18,sing,red,1211.1842420995235,None,None,1211.1842420995235,None,,,,,,,,,,,,,,,,,,,,,,,,,,,,,,,,,,,93Sing,001,2022_Nov_21_1146,ProdSingRedoBetween,2021.2.3,59.98123767013078,
18,0,18,0,,,,,,,,,,,,,,,,,,,,,,,,,,1215.6864659991115,None,whole,80,19,sing,red,1213.6867317995057,None,None,1213.6867317995057,None,,,,,,,,,,,,,,,,,,,,,,,,,,,,,,,,,,,93Sing,001,2022_Nov_21_1146,ProdSingRedoBetween,2021.2.3,59.98123767013078,
19,0,19,0,,,,,,,,,,,,,,,,,,,,,,,,,,1218.1889120992273,None,minor,60,20,sing,red,1216.1897424999624,None,None,1216.1897424999624,None,,,,,,,,,,,,,,,,,,,,,,,,,,,,,,,,,,,93Sing,001,2022_Nov_21_1146,ProdSingRedoBetween,2021.2.3,59.98123767013078,
20,0,20,0,,,,,,,,,,,,,,,,,,,,,,,,,,1220.7081863991916,None,benefit,45,21,sing,blue,1218.6927282996476,None,None,1218.6927282996476,None,,,,,,,,,,,,,,,,,,,,,,,,,,,,,,,,,,,93Sing,001,2022_Nov_21_1146,ProdSingRedoBetween,2021.2.3,59.98123767013078,
21,0,21,0,,,,,,,,,,,,,,,,,,,,,,,,,,1223.2106557991356,None,taste,81,22,sing,red,1221.2115146992728,None,None,1221.2115146992728,None,,,,,,,,,,,,,,,,,,,,,,,,,,,,,,,,,,,93Sing,001,2022_Nov_21_1146,ProdSingRedoBetween,2021.2.3,59.98123767013078,
22,0,22,0,,,,,,,,,,,,,,,,,,,,,,,,,,1225.7294735992327,None,build,52,23,sing,blue,1223.718108999543,None,None,1223.718108999543,None,,,,,,,,,,,,,,,,,,,,,,,,,,,,,,,,,,,93Sing,001,2022_Nov_21_1146,ProdSingRedoBetween,2021.2.3,59.98123767013078,
23,0,23,0,,,,,,,,,,,,,,,,,,,,,,,,,,1228.2322785994038,None,treatment,1,24,sing,yellow,1226.2301774993539,None,None,1226.2301774993539,None,,,,,,,,,,,,,,,,,,,,,,,,,,,,,,,,,,,93Sing,001,2022_Nov_21_1146,ProdSingRedoBetween,2021.2.3,59.98123767013078,
24,0,24,0,,,,,,,,,,,,,,,,,,,,,,,,,,1230.7348208995536,None,little,86,25,sing,red,1228.7332653999329,None,None,1228.7332653999329,None,,,,,,,,,,,,,,,,,,,,,,,,,,,,,,,,,,,93Sing,001,2022_Nov_21_1146,ProdSingRedoBetween,2021.2.3,59.98123767013078,
25,0,25,0,,,,,,,,,,,,,,,,,,,,,,,,,,1233.2537865992635,None,institute,66,26,sing,red,1231.238366799429,None,None,1231.238366799429,None,,,,,,,,,,,,,,,,,,,,,,,,,,,,,,,,,,,93Sing,001,2022_Nov_21_1146,ProdSingRedoBetween,2021.2.3,59.98123767013078,
26,0,26,0,,,,,,,,,,,,,,,,,,,,,,,,,,1235.75652469974,None,comedy,68,27,sing,red,1233.7563901999965,None,None,1233.7563901999965,None,,,,,,,,,,,,,,,,,,,,,,,,,,,,,,,,,,,93Sing,001,2022_Nov_21_1146,ProdSingRedoBetween,2021.2.3,59.98123767013078,
27,0,27,0,,,,,,,,,,,,,,,,,,,,,,,,,,1238.2754501998425,None,research,70,28,sing,red,1236.260360499844,None,None,1236.260360499844,None,,,,,,,,,,,,,,,,,,,,,,,,,,,,,,,,,,,93Sing,001,2022_Nov_21_1146,ProdSingRedoBetween,2021.2.3,59.98123767013078,
28,0,28,0,,,,,,,,,,,,,,,,,,,,,,,,,,1240.778121699579,None,company,88,29,sing,red,1238.7786024995148,None,None,1238.7786024995148,None,,,,,,,,,,,,,,,,,,,,,,,,,,,,,,,,,,,93Sing,001,2022_Nov_21_1146,ProdSingRedoBetween,2021.2.3,59.98123767013078,
29,0,29,0,,,,,,,,,,,,,,,,,,,,,,,,,,1243.2972752992064,None,beginning,23,30,sing,yellow,1241.28345109988,None,None,1241.28345109988,None,,,,,,,,,,,,,,,,,,,,,,,,,,,,,,,,,,,93Sing,001,2022_Nov_21_1146,ProdSingRedoBetween,2021.2.3,59.98123767013078,
30,0,30,0,,,,,,,,,,,,,,,,,,,,,,,,,,1245.8164756996557,None,committee,38,31,sing,blue,1243.8037705998868,None,None,1243.8037705998868,None,,,,,,,,,,,,,,,,,,,,,,,,,,,,,,,,,,,93Sing,001,2022_Nov_21_1146,ProdSingRedoBetween,2021.2.3,59.98123767013078,
31,0,31,0,,,,,,,,,,,,,,,,,,,,,,,,,,1248.33545699995,None,executive,20,32,sing,yellow,1246.319848199375,None,None,1246.319848199375,None,,,,,,,,,,,,,,,,,,,,,,,,,,,,,,,,,,,93Sing,001,2022_Nov_21_1146,ProdSingRedoBetween,2021.2.3,59.98123767013078,
32,0,32,0,,,,,,,,,,,,,,,,,,,,,,,,,,1250.8381706997752,None,education,47,33,sing,blue,1248.836241199635,None,None,1248.836241199635,None,,,,,,,,,,,,,,,,,,,,,,,,,,,,,,,,,,,93Sing,001,2022_Nov_21_1146,ProdSingRedoBetween,2021.2.3,59.98123767013078,
33,0,33,0,,,,,,,,,,,,,,,,,,,,,,,,,,1253.3403687998652,None,point,31,34,sing,blue,1251.3386820992455,None,None,1251.3386820992455,None,,,,,,,,,,,,,,,,,,,,,,,,,,,,,,,,,,,93Sing,001,2022_Nov_21_1146,ProdSingRedoBetween,2021.2.3,59.98123767013078,
34,0,34,0,,,,,,,,,,,,,,,,,,,,,,,,,,1255.8431211998686,None,drink,24,35,sing,yellow,1253.8408901998773,None,None,1253.8408901998773,None,,,,,,,,,,,,,,,,,,,,,,,,,,,,,,,,,,,93Sing,001,2022_Nov_21_1146,ProdSingRedoBetween,2021.2.3,59.98123767013078,
35,0,35,0,,,,,,,,,,,,,,,,,,,,,,,,,,1258.3455075994134,None,light,49,36,sing,blue,1256.343736499548,None,None,1256.343736499548,None,,,,,,,,,,,,,,,,,,,,,,,,,,,,,,,,,,,93Sing,001,2022_Nov_21_1146,ProdSingRedoBetween,2021.2.3,59.98123767013078,
36,0,36,0,,,,,,,,,,,,,,,,,,,,,,,,,,1260.8482025992125,None,finish,14,37,sing,yellow,1258.8469285992905,None,None,1258.8469285992905,None,,,,,,,,,,,,,,,,,,,,,,,,,,,,,,,,,,,93Sing,001,2022_Nov_21_1146,ProdSingRedoBetween,2021.2.3,59.98123767013078,
37,0,37,0,,,,,,,,,,,,,,,,,,,,,,,,,,1263.3506695991382,None,leader,58,38,sing,blue,1261.3501870995387,None,None,1261.3501870995387,None,,,,,,,,,,,,,,,,,,,,,,,,,,,,,,,,,,,93Sing,001,2022_Nov_21_1146,ProdSingRedoBetween,2021.2.3,59.98123767013078,
38,0,38,0,,,,,,,,,,,,,,,,,,,,,,,,,,1265.853214399889,None,tennis,46,39,sing,blue,1263.8511538999155,None,None,1263.8511538999155,None,,,,,,,,,,,,,,,,,,,,,,,,,,,,,,,,,,,93Sing,001,2022_Nov_21_1146,ProdSingRedoBetween,2021.2.3,59.98123767013078,
39,0,39,0,,,,,,,,,,,,,,,,,,,,,,,,,,1268.3722228994593,None,broke,56,40,sing,blue,1266.357938800007,None,None,1266.357938800007,None,,,,,,,,,,,,,,,,,,,,,,,,,,,,,,,,,,,93Sing,001,2022_Nov_21_1146,ProdSingRedoBetween,2021.2.3,59.98123767013078,
40,0,40,0,,,,,,,,,,,,,,,,,,,,,,,,,,1270.8749308995903,None,article,41,41,sing,blue,1268.8759450996295,None,None,1268.8759450996295,None,,,,,,,,,,,,,,,,,,,,,,,,,,,,,,,,,,,93Sing,001,2022_Nov_21_1146,ProdSingRedoBetween,2021.2.3,59.98123767013078,
41,0,41,0,,,,,,,,,,,,,,,,,,,,,,,,,,1273.3771678991616,None,territory,48,42,sing,blue,1271.375358699821,None,None,1271.375358699821,None,,,,,,,,,,,,,,,,,,,,,,,,,,,,,,,,,,,93Sing,001,2022_Nov_21_1146,ProdSingRedoBetween,2021.2.3,59.98123767013078,
42,0,42,0,,,,,,,,,,,,,,,,,,,,,,,,,,1275.8964971993119,None,object,67,43,sing,red,1273.8840291993693,None,None,1273.8840291993693,None,,,,,,,,,,,,,,,,,,,,,,,,,,,,,,,,,,,93Sing,001,2022_Nov_21_1146,ProdSingRedoBetween,2021.2.3,59.98123767013078,
43,0,43,0,,,,,,,,,,,,,,,,,,,,,,,,,,1278.3988099992275,None,general,76,44,sing,red,1276.3976414995268,None,None,1276.3976414995268,None,,,,,,,,,,,,,,,,,,,,,,,,,,,,,,,,,,,93Sing,001,2022_Nov_21_1146,ProdSingRedoBetween,2021.2.3,59.98123767013078,
44,0,44,0,,,,,,,,,,,,,,,,,,,,,,,,,,1280.9015750000253,None,capital,79,45,sing,red,1278.9011755995452,None,None,1278.9011755995452,None,,,,,,,,,,,,,,,,,,,,,,,,,,,,,,,,,,,93Sing,001,2022_Nov_21_1146,ProdSingRedoBetween,2021.2.3,59.98123767013078,
45,0,45,0,,,,,,,,,,,,,,,,,,,,,,,,,,1283.4207479991019,None,interior,11,46,sing,yellow,1281.4053092999384,None,None,1281.4053092999384,None,,,,,,,,,,,,,,,,,,,,,,,,,,,,,,,,,,,93Sing,001,2022_Nov_21_1146,ProdSingRedoBetween,2021.2.3,59.98123767013078,
46,0,46,0,,,,,,,,,,,,,,,,,,,,,,,,,,1285.9229410998523,None,growth,7,47,sing,yellow,1283.9212657995522,None,None,1283.9212657995522,None,,,,,,,,,,,,,,,,,,,,,,,,,,,,,,,,,,,93Sing,001,2022_Nov_21_1146,ProdSingRedoBetween,2021.2.3,59.98123767013078,
47,0,47,0,,,,,,,,,,,,,,,,,,,,,,,,,,1288.4423479996622,None,angle,82,48,sing,red,1286.4288294995204,None,None,1286.4288294995204,None,,,,,,,,,,,,,,,,,,,,,,,,,,,,,,,,,,,93Sing,001,2022_Nov_21_1146,ProdSingRedoBetween,2021.2.3,59.98123767013078,
48,0,48,0,,,,,,,,,,,,,,,,,,,,,,,,,,1290.9615771993995,None,design,29,49,sing,blue,1288.9468770995736,None,None,1288.9468770995736,None,,,,,,,,,,,,,,,,,,,,,,,,,,,,,,,,,,,93Sing,001,2022_Nov_21_1146,ProdSingRedoBetween,2021.2.3,59.98123767013078,
49,0,49,0,,,,,,,,,,,,,,,,,,,,,,,,,,1293.4807812999934,None,disease,89,50,sing,red,1291.467304399237,None,None,1291.467304399237,None,,,,,,,,,,,,,,,,,,,,,,,,,,,,,,,,,,,93Sing,001,2022_Nov_21_1146,ProdSingRedoBetween,2021.2.3,59.98123767013078,
50,0,50,0,,,,,,,,,,,,,,,,,,,,,,,,,,1295.9832353992388,None,bucket,43,51,sing,blue,1293.981233999133,None,None,1293.981233999133,None,,,,,,,,,,,,,,,,,,,,,,,,,,,,,,,,,,,93Sing,001,2022_Nov_21_1146,ProdSingRedoBetween,2021.2.3,59.98123767013078,
51,0,51,0,,,,,,,,,,,,,,,,,,,,,,,,,,1298.5024606995285,None,gesture,59,52,sing,yellow,1296.4872122993693,None,None,1296.4872122993693,None,,,,,,,,,,,,,,,,,,,,,,,,,,,,,,,,,,,93Sing,001,2022_Nov_21_1146,ProdSingRedoBetween,2021.2.3,59.98123767013078,
52,0,52,0,,,,,,,,,,,,,,,,,,,,,,,,,,1301.0214856993407,None,smell,22,53,sing,yellow,1299.0111032994464,None,None,1299.0111032994464,None,,,,,,,,,,,,,,,,,,,,,,,,,,,,,,,,,,,93Sing,001,2022_Nov_21_1146,ProdSingRedoBetween,2021.2.3,59.98123767013078,
53,0,53,0,,,,,,,,,,,,,,,,,,,,,,,,,,1303.5240978999063,None,council,57,54,sing,blue,1301.524456399493,None,None,1301.524456399493,None,,,,,,,,,,,,,,,,,,,,,,,,,,,,,,,,,,,93Sing,001,2022_Nov_21_1146,ProdSingRedoBetween,2021.2.3,59.98123767013078,
54,0,54,0,,,,,,,,,,,,,,,,,,,,,,,,,,1306.026428499259,None,chief,39,55,sing,blue,1304.024540499784,None,None,1304.024540499784,None,,,,,,,,,,,,,,,,,,,,,,,,,,,,,,,,,,,93Sing,001,2022_Nov_21_1146,ProdSingRedoBetween,2021.2.3,59.98123767013078,
55,0,55,0,,,,,,,,,,,,,,,,,,,,,,,,,,1308.52923299931,None,solution,53,56,sing,blue,1306.5271734995767,None,None,1306.5271734995767,None,,,,,,,,,,,,,,,,,,,,,,,,,,,,,,,,,,,93Sing,001,2022_Nov_21_1146,ProdSingRedoBetween,2021.2.3,59.98123767013078,
56,0,56,0,,,,,,,,,,,,,,,,,,,,,,,,,,1311.0481932992116,None,junior,25,57,sing,yellow,1309.0362006993964,None,None,1309.0362006993964,None,,,,,,,,,,,,,,,,,,,,,,,,,,,,,,,,,,,93Sing,001,2022_Nov_21_1146,ProdSingRedoBetween,2021.2.3,59.98123767013078,
57,0,57,0,,,,,,,,,,,,,,,,,,,,,,,,,,1313.56742199976,None,theme,36,58,sing,blue,1311.552519599907,None,None,1311.552519599907,None,,,,,,,,,,,,,,,,,,,,,,,,,,,,,,,,,,,93Sing,001,2022_Nov_21_1146,ProdSingRedoBetween,2021.2.3,59.98123767013078,
58,0,58,0,,,,,,,,,,,,,,,,,,,,,,,,,,1316.0695825992152,None,guard,83,59,sing,red,1314.0678856000304,None,None,1314.0678856000304,None,,,,,,,,,,,,,,,,,,,,,,,,,,,,,,,,,,,93Sing,001,2022_Nov_21_1146,ProdSingRedoBetween,2021.2.3,59.98123767013078,
59,0,59,0,,,,,,,,,,,,,,,,,,,,,,,,,,1318.572158999741,None,danger,42,60,sing,blue,1316.57026379928,None,None,1316.57026379928,None,,,,,,,,,,,,,,,,,,,,,,,,,,,,,,,,,,,93Sing,001,2022_Nov_21_1146,ProdSingRedoBetween,2021.2.3,59.98123767013078,
60,0,60,0,,,,,,,,,,,,,,,,,,,,,,,,,,1321.0748620992526,None,opening,2,61,sing,yellow,1319.072929199785,None,None,1319.072929199785,None,,,,,,,,,,,,,,,,,,,,,,,,,,,,,,,,,,,93Sing,001,2022_Nov_21_1146,ProdSingRedoBetween,2021.2.3,59.98123767013078,
61,0,61,0,,,,,,,,,,,,,,,,,,,,,,,,,,1323.5941027998924,None,impact,78,62,sing,red,1321.5855371998623,None,None,1321.5855371998623,None,,,,,,,,,,,,,,,,,,,,,,,,,,,,,,,,,,,93Sing,001,2022_Nov_21_1146,ProdSingRedoBetween,2021.2.3,59.98123767013078,
62,0,62,0,,,,,,,,,,,,,,,,,,,,,,,,,,1326.096672299318,None,permit,30,63,sing,blue,1324.0945996996015,None,None,1324.0945996996015,None,,,,,,,,,,,,,,,,,,,,,,,,,,,,,,,,,,,93Sing,001,2022_Nov_21_1146,ProdSingRedoBetween,2021.2.3,59.98123767013078,
63,0,63,0,,,,,,,,,,,,,,,,,,,,,,,,,,1328.6157208997756,None,fashion,55,64,sing,blue,1326.6056253993884,None,None,1326.6056253993884,None,,,,,,,,,,,,,,,,,,,,,,,,,,,,,,,,,,,93Sing,001,2022_Nov_21_1146,ProdSingRedoBetween,2021.2.3,59.98123767013078,
64,0,64,0,,,,,,,,,,,,,,,,,,,,,,,,,,1331.1182100996375,None,comfort,8,65,sing,yellow,1329.1162519995123,None,None,1329.1162519995123,None,,,,,,,,,,,,,,,,,,,,,,,,,,,,,,,,,,,93Sing,001,2022_Nov_21_1146,ProdSingRedoBetween,2021.2.3,59.98123767013078,
65,0,65,0,,,,,,,,,,,,,,,,,,,,,,,,,,1333.6207232000306,None,dance,5,66,sing,yellow,1331.6187892993912,None,None,1331.6187892993912,None,,,,,,,,,,,,,,,,,,,,,,,,,,,,,,,,,,,93Sing,001,2022_Nov_21_1146,ProdSingRedoBetween,2021.2.3,59.98123767013078,
66,0,66,0,,,,,,,,,,,,,,,,,,,,,,,,,,1336.1400099992752,None,partner,75,67,sing,red,1334.132388299331,None,None,1334.132388299331,None,,,,,,,,,,,,,,,,,,,,,,,,,,,,,,,,,,,93Sing,001,2022_Nov_21_1146,ProdSingRedoBetween,2021.2.3,59.98123767013078,
67,0,67,0,,,,,,,,,,,,,,,,,,,,,,,,,,1338.6424661995843,None,state,71,68,sing,red,1336.6428248994052,None,None,1336.6428248994052,None,,,,,,,,,,,,,,,,,,,,,,,,,,,,,,,,,,,93Sing,001,2022_Nov_21_1146,ProdSingRedoBetween,2021.2.3,59.98123767013078,
68,0,68,0,,,,,,,,,,,,,,,,,,,,,,,,,,1341.1451696995646,None,finance,50,69,sing,blue,1339.1429113997146,None,None,1339.1429113997146,None,,,,,,,,,,,,,,,,,,,,,,,,,,,,,,,,,,,93Sing,001,2022_Nov_21_1146,ProdSingRedoBetween,2021.2.3,59.98123767013078,
69,0,69,0,,,,,,,,,,,,,,,,,,,,,,,,,,1343.6474496992305,None,style,51,70,sing,blue,1341.6454661991447,None,None,1341.6454661991447,None,,,,,,,,,,,,,,,,,,,,,,,,,,,,,,,,,,,93Sing,001,2022_Nov_21_1146,ProdSingRedoBetween,2021.2.3,59.98123767013078,
70,0,70,0,,,,,,,,,,,,,,,,,,,,,,,,,,1346.149741099216,None,still,32,71,sing,blue,1344.149641899392,None,None,1344.149641899392,None,,,,,,,,,,,,,,,,,,,,,,,,,,,,,,,,,,,93Sing,001,2022_Nov_21_1146,ProdSingRedoBetween,2021.2.3,59.98123767013078,
71,0,71,0,,,,,,,,,,,,,,,,,,,,,,,,,,1348.6523219998926,None,group,6,72,sing,yellow,1346.6515016993508,None,None,1346.6515016993508,None,,,,,,,,,,,,,,,,,,,,,,,,,,,,,,,,,,,93Sing,001,2022_Nov_21_1146,ProdSingRedoBetween,2021.2.3,59.98123767013078,
72,0,72,0,,,,,,,,,,,,,,,,,,,,,,,,,,1351.1546840993688,None,answer,0,73,sing,yellow,1349.1542671993375,None,None,1349.1542671993375,None,,,,,,,,,,,,,,,,,,,,,,,,,,,,,,,,,,,93Sing,001,2022_Nov_21_1146,ProdSingRedoBetween,2021.2.3,59.98123767013078,
73,0,73,0,,,,,,,,,,,,,,,,,,,,,,,,,,1353.6573489997536,None,crisis,21,74,sing,yellow,1351.6560112992302,None,None,1351.6560112992302,None,,,,,,,,,,,,,,,,,,,,,,,,,,,,,,,,,,,93Sing,001,2022_Nov_21_1146,ProdSingRedoBetween,2021.2.3,59.98123767013078,
74,0,74,0,,,,,,,,,,,,,,,,,,,,,,,,,,1356.1597986994311,None,sight,12,75,sing,yellow,1354.1578741995618,None,None,1354.1578741995618,None,,,,,,,,,,,,,,,,,,,,,,,,,,,,,,,,,,,93Sing,001,2022_Nov_21_1146,ProdSingRedoBetween,2021.2.3,59.98123767013078,
75,0,75,0,,,,,,,,,,,,,,,,,,,,,,,,,,1358.6791001996025,None,track,54,76,sing,blue,1356.6655232999474,None,None,1356.6655232999474,None,,,,,,,,,,,,,,,,,,,,,,,,,,,,,,,,,,,93Sing,001,2022_Nov_21_1146,ProdSingRedoBetween,2021.2.3,59.98123767013078,
76,0,76,0,,,,,,,,,,,,,,,,,,,,,,,,,,1361.1814576992765,None,ground,9,77,sing,yellow,1359.1796174999326,None,None,1359.1796174999326,None,,,,,,,,,,,,,,,,,,,,,,,,,,,,,,,,,,,93Sing,001,2022_Nov_21_1146,ProdSingRedoBetween,2021.2.3,59.98123767013078,
77,0,77,0,,,,,,,,,,,,,,,,,,,,,,,,,,1363.6840865993872,None,listen,44,78,sing,blue,1361.6821077996865,None,None,1361.6821077996865,None,,,,,,,,,,,,,,,,,,,,,,,,,,,,,,,,,,,93Sing,001,2022_Nov_21_1146,ProdSingRedoBetween,2021.2.3,59.98123767013078,
78,0,78,0,,,,,,,,,,,,,,,,,,,,,,,,,,1366.1867362000048,None,running,72,79,sing,red,1364.1846602996811,None,None,1364.1846602996811,None,,,,,,,,,,,,,,,,,,,,,,,,,,,,,,,,,,,93Sing,001,2022_Nov_21_1146,ProdSingRedoBetween,2021.2.3,59.98123767013078,
79,0,79,0,,,,,,,,,,,,,,,,,,,,,,,,,,1368.7057084999979,None,expansion,15,80,sing,yellow,1366.6902196994051,None,None,1366.6902196994051,None,,,,,,,,,,,,,,,,,,,,,,,,,,,,,,,,,,,93Sing,001,2022_Nov_21_1146,ProdSingRedoBetween,2021.2.3,59.98123767013078,
80,0,80,0,,,,,,,,,,,,,,,,,,,,,,,,,,1371.2081947997212,None,health,69,81,sing,red,1369.2062730994076,None,None,1369.2062730994076,None,,,,,,,,,,,,,,,,,,,,,,,,,,,,,,,,,,,93Sing,001,2022_Nov_21_1146,ProdSingRedoBetween,2021.2.3,59.98123767013078,
81,0,81,0,,,,,,,,,,,,,,,,,,,,,,,,,,1373.7108134999871,None,subject,16,82,sing,yellow,1371.7087279995903,None,None,1371.7087279995903,None,,,,,,,,,,,,,,,,,,,,,,,,,,,,,,,,,,,93Sing,001,2022_Nov_21_1146,ProdSingRedoBetween,2021.2.3,59.98123767013078,
82,0,82,0,,,,,,,,,,,,,,,,,,,,,,,,,,1376.2129608998075,None,patient,26,83,sing,yellow,1374.2112138997763,None,None,1374.2112138997763,None,,,,,,,,,,,,,,,,,,,,,,,,,,,,,,,,,,,93Sing,001,2022_Nov_21_1146,ProdSingRedoBetween,2021.2.3,59.98123767013078,
83,0,83,0,,,,,,,,,,,,,,,,,,,,,,,,,,1378.7156746992841,None,raise,62,84,sing,red,1376.714286999777,None,None,1376.714286999777,None,,,,,,,,,,,,,,,,,,,,,,,,,,,,,,,,,,,93Sing,001,2022_Nov_21_1146,ProdSingRedoBetween,2021.2.3,59.98123767013078,
84,0,84,0,,,,,,,,,,,,,,,,,,,,,,,,,,1381.2347428994253,None,weather,13,85,sing,yellow,1379.2195910997689,None,None,1379.2195910997689,None,,,,,,,,,,,,,,,,,,,,,,,,,,,,,,,,,,,93Sing,001,2022_Nov_21_1146,ProdSingRedoBetween,2021.2.3,59.98123767013078,
85,0,85,0,,,,,,,,,,,,,,,,,,,,,,,,,,1383.73735309951,None,curve,10,86,sing,yellow,1381.7353893993422,None,None,1381.7353893993422,None,,,,,,,,,,,,,,,,,,,,,,,,,,,,,,,,,,,93Sing,001,2022_Nov_21_1146,ProdSingRedoBetween,2021.2.3,59.98123767013078,
86,0,86,0,,,,,,,,,,,,,,,,,,,,,,,,,,1386.256568399258,None,incident,61,87,sing,red,1384.2441239999607,None,None,1384.2441239999607,None,,,,,,,,,,,,,,,,,,,,,,,,,,,,,,,,,,,93Sing,001,2022_Nov_21_1146,ProdSingRedoBetween,2021.2.3,59.98123767013078,
87,0,87,0,,,,,,,,,,,,,,,,,,,,,,,,,,1388.7590595996007,None,household,37,88,sing,blue,1386.7570666996762,None,None,1386.7570666996762,None,,,,,,,,,,,,,,,,,,,,,,,,,,,,,,,,,,,93Sing,001,2022_Nov_21_1146,ProdSingRedoBetween,2021.2.3,59.98123767013078,
88,0,88,0,,,,,,,,,,,,,,,,,,,,,,,,,,1391.2615249995142,None,substance,17,89,sing,yellow,1389.260514699854,None,None,1389.260514699854,None,,,,,,,,,,,,,,,,,,,,,,,,,,,,,,,,,,,93Sing,001,2022_Nov_21_1146,ProdSingRedoBetween,2021.2.3,59.98123767013078,
89,0,89,0,,,,,,,,,,,,,,,,,,,,,,,,,,1393.7806821996346,None,military,64,90,sing,red,1391.7692387998104,None,None,1391.7692387998104,None,,,,,,,,,,,,,,,,,,,,,,,,,,,,,,,,,,,93Sing,001,2022_Nov_21_1146,ProdSingRedoBetween,2021.2.3,59.98123767013078,
,,,,,,,,,,,,,,,,,,,,,,,,,,,,,,,,,,,,,,,,,1394.2814885992557,None,k,53.92046030052006,1394.2814885992557,None,,,,,,,,,,,,,,,,,,,,,,,,,,,,,93Sing,001,2022_Nov_21_1146,ProdSingRedoBetween,2021.2.3,59.98123767013078,
,,,,0,0,0,0,,,,,,,,,,,,,,,,,,,,,,1462.3333174996078,None,,,,,,,,,,,,,,,,,salary,161,1,sing,new,null,1448.7343972995877,None,1448.7343972995877,None,4,8.683403499424458,1448.7343972995877,None,8.683403499424458,1457.452681099996,None,1457.9615336991847,None,1457.9615336991847,None,f,4.344260199926794,1457.9615336991847,None,4.344260199926794,,,93Sing,001,2022_Nov_21_1146,ProdSingRedoBetween,2021.2.3,59.98123767013078,
,,,,1,0,1,0,,,,,,,,,,,,,,,,,,,,,,1475.4788636993617,None,,,,,,,,,,,,,,,,,century,153,2,sing,new,null,1462.8359451992437,None,1462.8359451992437,None,3,10.805726000107825,1462.8359451992437,None,10.805726000107825,1473.661466599442,None,1474.1650776993483,None,1474.1650776993483,None,f,1.2847730005159974,1474.1650776993483,None,1.2847730005159974,,,93Sing,001,2022_Nov_21_1146,ProdSingRedoBetween,2021.2.3,59.98123767013078,
,,,,2,0,2,0,,,,,,,,,,,,,,,,,,,,,,1482.3021581992507,None,,,,,,,,,,,,,,,,,company,88,3,sing,old,red,1475.9848879994825,None,1475.9848879994825,None,6,2.928807600401342,1475.9848879994825,None,2.928807600401342,1478.9343351991847,None,1479.4571495996788,None,1479.4571495996788,None,r,2.824559699743986,1479.4571495996788,None,2.824559699743986,,,93Sing,001,2022_Nov_21_1146,ProdSingRedoBetween,2021.2.3,59.98123767013078,
,,,,3,0,3,0,,,,,,,,,,,,,,,,,,,,,,1490.9609971996397,None,,,,,,,,,,,,,,,,,taste,81,4,sing,old,red,1482.8128486992791,None,1482.8128486992791,None,5,3.3090778002515435,1482.8128486992791,None,3.3090778002515435,1486.1481219995767,None,1486.6567704994231,None,1486.6567704994231,None,r,4.288937900215387,1486.6567704994231,None,4.288937900215387,,,93Sing,001,2022_Nov_21_1146,ProdSingRedoBetween,2021.2.3,59.98123767013078,
,,,,4,0,4,0,,,,,,,,,,,,,,,,,,,,,,1497.934587199241,None,,,,,,,,,,,,,,,,,trial,95,5,sing,new,null,1491.4676951998845,None,1491.4676951998845,None,3,4.269900099374354,1491.4676951998845,None,4.269900099374354,1495.7669834997505,None,1496.2662502992898,None,1496.2662502992898,None,f,1.6394454995170236,1496.2662502992898,None,1.6394454995170236,,,93Sing,001,2022_Nov_21_1146,ProdSingRedoBetween,2021.2.3,59.98123767013078,
,,,,5,0,5,0,,,,,,,,,,,,,,,,,,,,,,1502.9395868992433,None,,,,,,,,,,,,,,,,,solution,53,6,sing,old,blue,1498.443017099984,None,1498.443017099984,None,6,2.678587700240314,1498.443017099984,None,2.678587700240314,1501.1405480997637,None,1501.6594558991492,None,1501.6594558991492,None,r,1.2622044999152422,1501.6594558991492,None,1.2622044999152422,,,93Sing,001,2022_Nov_21_1146,ProdSingRedoBetween,2021.2.3,59.98123767013078,
,,,,6,0,6,0,,,,,,,,,,,,,,,,,,,,,,1507.9278975995257,None,,,,,,,,,,,,,,,,,angle,82,7,sing,old,red,1503.4474837994203,None,1503.4474837994203,None,6,2.5862097004428506,1503.4474837994203,None,2.5862097004428506,1506.0611680997536,None,1506.576717599295,None,1506.576717599295,None,r,1.3289986997842789,1506.576717599295,None,1.3289986997842789,,,93Sing,001,2022_Nov_21_1146,ProdSingRedoBetween,2021.2.3,59.98123767013078,
,,,,7,0,7,0,,,,,,,,,,,,,,,,,,,,,,1511.5981993991882,None,,,,,,,,,,,,,,,,,discussion,119,8,sing,new,null,1508.4294242998585,None,1508.4294242998585,None,6,2.09240660071373,1508.4294242998585,None,2.09240660071373,1510.5516701992601,None,1511.0699672996998,None,1511.0699672996998,None,r,0.499723800458014,1511.0699672996998,None,0.499723800458014,,,93Sing,001,2022_Nov_21_1146,ProdSingRedoBetween,2021.2.3,59.98123767013078,
,,,,8,0,8,0,,,,,,,,,,,,,,,,,,,,,,1515.401814699173,None,,,,,,,,,,,,,,,,,candidate,3,9,sing,old,yellow,1512.1072282996029,None,1512.1072282996029,None,6,1.9106126995757222,1512.1072282996029,None,1.9106126995757222,1514.0337711991742,None,1514.5378204993904,None,1514.5378204993904,None,r,0.8399093998596072,1514.5378204993904,None,0.8399093998596072,,,93Sing,001,2022_Nov_21_1146,ProdSingRedoBetween,2021.2.3,59.98123767013078,
,,,,9,0,9,0,,,,,,,,,,,,,,,,,,,,,,1519.322548999451,None,,,,,,,,,,,,,,,,,thing,124,10,sing,new,null,1515.9061668999493,None,1515.9061668999493,None,1,1.791495100595057,1515.9061668999493,None,1.791495100595057,1517.7219177000225,None,1518.225569400005,None,1518.225569400005,None,n,1.080153699964285,1518.225569400005,None,1.080153699964285,,,93Sing,001,2022_Nov_21_1146,ProdSingRedoBetween,2021.2.3,59.98123767013078,
,,,,10,0,10,0,,,,,,,,,,,,,,,,,,,,,,1523.6282179998234,None,,,,,,,,,,,,,,,,,youth,168,11,sing,new,null,1519.838025899604,None,1519.838025899604,None,1,2.387750000692904,1519.838025899604,None,2.387750000692904,1522.2476120991632,None,1522.7595131993294,None,1522.7595131993294,None,n,0.8501784997060895,1522.7595131993294,None,0.8501784997060895,,,93Sing,001,2022_Nov_21_1146,ProdSingRedoBetween,2021.2.3,59.98123767013078,
,,,,11,0,11,0,,,,,,,,,,,,,,,,,,,,,,1527.2971908999607,None,,,,,,,,,,,,,,,,,rural,158,12,sing,new,null,1524.1274713994935,None,1524.1274713994935,None,1,1.6901230998337269,1524.1274713994935,None,1.6901230998337269,1525.8497134000063,None,1526.3630227996036,None,1526.3630227996036,None,n,0.9106630999594927,1526.3630227996036,None,0.9106630999594927,,,93Sing,001,2022_Nov_21_1146,ProdSingRedoBetween,2021.2.3,59.98123767013078,
,,,,12,0,12,0,,,,,,,,,,,,,,,,,,,,,,1532.085126599297,None,,,,,,,,,,,,,,,,,minor,60,13,sing,old,red,1527.8037197999656,None,1527.8037197999656,None,5,2.638051699846983,1527.8037197999656,None,2.638051699846983,1530.4714140994474,None,1530.9862583996728,None,1530.9862583996728,None,f,1.079412399791181,1530.9862583996728,None,1.079412399791181,,,93Sing,001,2022_Nov_21_1146,ProdSingRedoBetween,2021.2.3,59.98123767013078,
,,,,13,0,13,0,,,,,,,,,,,,,,,,,,,,,,1536.806454799138,None,,,,,,,,,,,,,,,,,drama,100,14,sing,new,null,1532.587397299707,None,1532.587397299707,None,1,2.102297299541533,1532.587397299707,None,2.102297299541533,1534.7078796997666,None,1535.2219739994034,None,1535.2219739994034,None,n,1.555812400765717,1535.2219739994034,None,1.555812400765717,,,93Sing,001,2022_Nov_21_1146,ProdSingRedoBetween,2021.2.3,59.98123767013078,
,,,,14,0,14,0,,,,,,,,,,,,,,,,,,,,,,1545.0149059994146,None,,,,,,,,,,,,,,,,,guide,171,15,sing,new,null,1537.3171688998118,None,1537.3171688998118,None,3,6.196403199806809,1537.3171688998118,None,6.196403199806809,1543.530972099863,None,1544.0352784991264,None,1544.0352784991264,None,f,0.9583292994648218,1544.0352784991264,None,0.9583292994648218,,,93Sing,001,2022_Nov_21_1146,ProdSingRedoBetween,2021.2.3,59.98123767013078,
,,,,15,0,15,0,,,,,,,,,,,,,,,,,,,,,,1553.8940057000145,None,,,,,,,,,,,,,,,,,strength,127,16,sing,new,null,1545.5229178993031,None,1545.5229178993031,None,4,2.6387275997549295,1545.5229178993031,None,2.6387275997549295,1548.1898137992248,None,1548.7034601997584,None,1548.7034601997584,None,f,5.170234000310302,1548.7034601997584,None,5.170234000310302,,,93Sing,001,2022_Nov_21_1146,ProdSingRedoBetween,2021.2.3,59.98123767013078,
,,,,16,0,16,0,,,,,,,,,,,,,,,,,,,,,,1560.229833399877,None,,,,,,,,,,,,,,,,,broke,56,17,sing,old,blue,1554.4178251996636,None,1554.4178251996636,None,3,3.3757394002750516,1554.4178251996636,None,3.3757394002750516,1557.8124255994335,None,1558.3128513991833,None,1558.3128513991833,None,f,1.888752699829638,1558.3128513991833,None,1.888752699829638,,,93Sing,001,2022_Nov_21_1146,ProdSingRedoBetween,2021.2.3,59.98123767013078,
,,,,17,0,17,0,,,,,,,,,,,,,,,,,,,,,,1565.068160799332,None,,,,,,,,,,,,,,,,,expansion,15,18,sing,old,yellow,1560.7377846995369,None,1560.7377846995369,None,6,3.4158271001651883,1560.7377846995369,None,3.4158271001651883,1564.1840293994173,None,1564.6892343992367,None,1564.6892343992367,None,r,0.3602812001481652,1564.6892343992367,None,0.3602812001481652,,,93Sing,001,2022_Nov_21_1146,ProdSingRedoBetween,2021.2.3,59.98123767013078,
,,,,18,0,18,0,,,,,,,,,,,,,,,,,,,,,,1570.9907578993589,None,,,,,,,,,,,,,,,,,gesture,59,19,sing,old,yellow,1565.5816795993596,None,1565.5816795993596,None,1,3.276030699722469,1565.5816795993596,None,3.276030699722469,1568.8926610993221,None,1569.4071471998468,None,1569.4071471998468,None,n,1.5623273998498917,1569.4071471998468,None,1.5623273998498917,,,93Sing,001,2022_Nov_21_1146,ProdSingRedoBetween,2021.2.3,59.98123767013078,
,,,,19,0,19,0,,,,,,,,,,,,,,,,,,,,,,1577.6973570995033,None,,,,,,,,,,,,,,,,,scene,155,20,sing,new,null,1571.4956821994856,None,1571.4956821994856,None,3,2.4420188004150987,1571.4956821994856,None,2.4420188004150987,1573.9613182991743,None,1574.4642392992973,None,1574.4642392992973,None,n,3.209312199614942,1574.4642392992973,None,3.209312199614942,,,93Sing,001,2022_Nov_21_1146,ProdSingRedoBetween,2021.2.3,59.98123767013078,
,,,,20,0,20,0,,,,,,,,,,,,,,,,,,,,,,1582.0685049993917,None,,,,,,,,,,,,,,,,,report,117,21,sing,new,null,1578.2053085993975,None,1578.2053085993975,None,1,1.8682009996846318,1578.2053085993975,None,1.8682009996846318,1580.1010763999075,None,1580.6113978996873,None,1580.6113978996873,None,n,1.4300899002701044,1580.6113978996873,None,1.4300899002701044,,,93Sing,001,2022_Nov_21_1146,ProdSingRedoBetween,2021.2.3,59.98123767013078,
,,,,21,0,21,0,,,,,,,,,,,,,,,,,,,,,,1586.7898261994123,None,,,,,,,,,,,,,,,,,subject,16,22,sing,old,yellow,1582.5771853998303,None,1582.5771853998303,None,5,2.424379600211978,1582.5771853998303,None,2.424379600211978,1585.0230307998136,None,1585.5382743999362,None,1585.5382743999362,None,f,1.2232900997623801,1585.5382743999362,None,1.2232900997623801,,,93Sing,001,2022_Nov_21_1146,ProdSingRedoBetween,2021.2.3,59.98123767013078,
,,,,22,0,22,0,,,,,,,,,,,,,,,,,,,,,,1591.3277457999066,None,,,,,,,,,,,,,,,,,message,98,23,sing,new,null,1587.300665599294,None,1587.300665599294,None,1,2.300833700224757,1587.300665599294,None,2.300833700224757,1589.6279666991904,None,1590.1443155994639,None,1590.1443155994639,None,n,1.1533277994021773,1590.1443155994639,None,1.1533277994021773,,,93Sing,001,2022_Nov_21_1146,ProdSingRedoBetween,2021.2.3,59.98123767013078,
,,,,23,0,23,0,,,,,,,,,,,,,,,,,,,,,,1595.0316492998973,None,,,,,,,,,,,,,,,,,graduate,141,24,sing,new,null,1591.835582899861,None,1591.835582899861,None,1,1.5497981002554297,1591.835582899861,None,1.5497981002554297,1593.4129224997014,None,1593.9174123993143,None,1593.9174123993143,None,n,1.0920957000926137,1593.9174123993143,None,1.0920957000926137,,,93Sing,001,2022_Nov_21_1146,ProdSingRedoBetween,2021.2.3,59.98123767013078,
,,,,24,0,24,0,,,,,,,,,,,,,,,,,,,,,,1599.1855578999966,None,,,,,,,,,,,,,,,,,working,132,25,sing,new,null,1595.540569299832,None,1595.540569299832,None,1,2.0448754001408815,1595.540569299832,None,2.0448754001408815,1597.6190747991204,None,1598.1344809997827,None,1598.1344809997827,None,n,1.0349714998155832,1598.1344809997827,None,1.0349714998155832,,,93Sing,001,2022_Nov_21_1146,ProdSingRedoBetween,2021.2.3,59.98123767013078,
,,,,25,0,25,0,,,,,,,,,,,,,,,,,,,,,,1603.9235938992351,None,,,,,,,,,,,,,,,,,crisis,21,26,sing,old,yellow,1599.6947583993897,None,1599.6947583993897,None,6,2.026846299879253,1599.6947583993897,None,2.026846299879253,1601.7437334991992,None,1602.2569678993896,None,1602.2569678993896,None,r,1.6484609004110098,1602.2569678993896,None,1.6484609004110098,,,93Sing,001,2022_Nov_21_1146,ProdSingRedoBetween,2021.2.3,59.98123767013078,
,,,,26,0,26,0,,,,,,,,,,,,,,,,,,,,,,1610.0130137996748,None,,,,,,,,,,,,,,,,,opening,2,27,sing,old,yellow,1604.4295787997544,None,1604.4295787997544,None,3,4.124066200107336,1604.4295787997544,None,4.124066200107336,1608.5919923000038,None,1609.0954949995503,None,1609.0954949995503,None,f,0.8981985999271274,1609.0954949995503,None,0.8981985999271274,,,93Sing,001,2022_Nov_21_1146,ProdSingRedoBetween,2021.2.3,59.98123767013078,
,,,,27,0,27,0,,,,,,,,,,,,,,,,,,,,,,1614.601023399271,None,,,,,,,,,,,,,,,,,capital,79,28,sing,old,red,1610.5253977999091,None,1610.5253977999091,None,6,2.0120435999706388,1610.5253977999091,None,2.0120435999706388,1612.5655355993658,None,1613.0661922991276,None,1613.0661922991276,None,r,1.5113088004291058,1613.0661922991276,None,1.5113088004291058,,,93Sing,001,2022_Nov_21_1146,ProdSingRedoBetween,2021.2.3,59.98123767013078,
,,,,28,0,28,0,,,,,,,,,,,,,,,,,,,,,,1618.8218473996967,None,,,,,,,,,,,,,,,,,member,121,29,sing,new,null,1615.1088193999603,None,1615.1088193999603,None,1,1.8686670996248722,1615.1088193999603,None,1.8686670996248722,1617.0042418995872,None,1617.5098884999752,None,1617.5098884999752,None,n,1.291583999991417,1617.5098884999752,None,1.291583999991417,,,93Sing,001,2022_Nov_21_1146,ProdSingRedoBetween,2021.2.3,59.98123767013078,
,,,,29,0,29,0,,,,,,,,,,,,,,,,,,,,,,1623.5097997998819,None,,,,,,,,,,,,,,,,,problem,152,30,sing,new,null,1619.3239569999278,None,1619.3239569999278,None,2,2.0856659999117255,1619.3239569999278,None,2.0856659999117255,1621.4444295000285,None,1621.9582463996485,None,1621.9582463996485,None,f,1.5312665002420545,1621.9582463996485,None,1.5312665002420545,,,93Sing,001,2022_Nov_21_1146,ProdSingRedoBetween,2021.2.3,59.98123767013078,
,,,,30,0,30,0,,,,,,,,,,,,,,,,,,,,,,1629.2989778993651,None,,,,,,,,,,,,,,,,,benefit,45,31,sing,old,blue,1624.0123815992847,None,1624.0123815992847,None,6,3.2611237997189164,1624.0123815992847,None,3.2611237997189164,1627.3015399994329,None,1627.8142269998789,None,1627.8142269998789,None,r,1.4592584995552897,1627.8142269998789,None,1.4592584995552897,,,93Sing,001,2022_Nov_21_1146,ProdSingRedoBetween,2021.2.3,59.98123767013078,
,,,,31,0,31,0,,,,,,,,,,,,,,,,,,,,,,1633.4195667998865,None,,,,,,,,,,,,,,,,,beginning,23,32,sing,old,yellow,1629.8030218994245,None,1629.8030218994245,None,6,2.1105103995651007,1629.8030218994245,None,2.1105103995651007,1631.9508941993117,None,1632.4518083995208,None,1632.4518083995208,None,r,0.9416161999106407,1632.4518083995208,None,0.9416161999106407,,,93Sing,001,2022_Nov_21_1146,ProdSingRedoBetween,2021.2.3,59.98123767013078,
,,,,32,0,32,0,,,,,,,,,,,,,,,,,,,,,,1637.2568678995594,None,,,,,,,,,,,,,,,,,build,52,33,sing,old,blue,1633.920363199897,None,1633.920363199897,None,6,2.0572285996749997,1633.920363199897,None,2.0572285996749997,1636.00982909929,None,1636.5257964991033,None,1636.5257964991033,None,r,0.699698000214994,1636.5257964991033,None,0.699698000214994,,,93Sing,001,2022_Nov_21_1146,ProdSingRedoBetween,2021.2.3,59.98123767013078,
,,,,33,0,33,0,,,,,,,,,,,,,,,,,,,,,,1642.1450264994055,None,,,,,,,,,,,,,,,,,comfort,8,34,sing,old,yellow,1637.7735930997878,None,1637.7735930997878,None,6,2.7480587996542454,1637.7735930997878,None,2.7480587996542454,1640.5524471998215,None,1641.0648038992658,None,1641.0648038992658,None,r,1.0566421002149582,1641.0648038992658,None,1.0566421002149582,,,93Sing,001,2022_Nov_21_1146,ProdSingRedoBetween,2021.2.3,59.98123767013078,
,,,,34,0,34,0,,,,,,,,,,,,,,,,,,,,,,1647.7172322999686,None,,,,,,,,,,,,,,,,,finish,14,35,sing,old,yellow,1642.6541154999286,None,1642.6541154999286,None,4,3.3872168995440006,1642.6541154999286,None,3.3872168995440006,1646.0654237996787,None,1646.5734312999994,None,1646.5734312999994,None,f,1.1159576997160912,1646.5734312999994,None,1.1159576997160912,,,93Sing,001,2022_Nov_21_1146,ProdSingRedoBetween,2021.2.3,59.98123767013078,
,,,,35,0,35,0,,,,,,,,,,,,,,,,,,,,,,1655.1107301991433,None,,,,,,,,,,,,,,,,,curve,10,36,sing,old,yellow,1648.2258460996673,None,1648.2258460996673,None,5,4.30365340039134,1648.2258460996673,None,4.30365340039134,1652.5621355995536,None,1653.0778333991766,None,1653.0778333991766,None,f,2.0116034001111984,1653.0778333991766,None,2.0116034001111984,,,93Sing,001,2022_Nov_21_1146,ProdSingRedoBetween,2021.2.3,59.98123767013078,
,,,,36,0,36,0,,,,,,,,,,,,,,,,,,,,,,1659.1287396997213,None,,,,,,,,,,,,,,,,,impact,78,37,sing,old,red,1655.6288254000247,None,1655.6288254000247,None,6,2.676589500159025,1655.6288254000247,None,2.676589500159025,1658.329263499938,None,1658.8385047996417,None,1658.8385047996417,None,r,0.27489349991083145,1658.8385047996417,None,0.27489349991083145,,,93Sing,001,2022_Nov_21_1146,ProdSingRedoBetween,2021.2.3,59.98123767013078,
,,,,37,0,37,0,,,,,,,,,,,,,,,,,,,,,,1665.1513451999053,None,,,,,,,,,,,,,,,,,speech,140,38,sing,new,null,1659.646575300023,None,1659.646575300023,None,2,3.18681660015136,1659.646575300023,None,3.18681660015136,1662.857861499302,None,1663.3661777991802,None,1663.3661777991802,None,n,1.7632188005372882,1663.3661777991802,None,1.7632188005372882,,,93Sing,001,2022_Nov_21_1146,ProdSingRedoBetween,2021.2.3,59.98123767013078,
,,,,38,0,38,0,,,,,,,,,,,,,,,,,,,,,,1670.3899274999276,None,,,,,,,,,,,,,,,,,treatment,1,39,sing,old,yellow,1665.6580904992297,None,1665.6580904992297,None,4,2.5192122999578714,1665.6580904992297,None,2.5192122999578714,1668.206641599536,None,1668.7254215991125,None,1668.7254215991125,None,f,1.644110900349915,1668.7254215991125,None,1.644110900349915,,,93Sing,001,2022_Nov_21_1146,ProdSingRedoBetween,2021.2.3,59.98123767013078,
,,,,39,0,39,0,,,,,,,,,,,,,,,,,,,,,,1676.3458191994578,None,,,,,,,,,,,,,,,,,health,69,40,sing,old,red,1670.9021628992632,None,1670.9021628992632,None,5,2.411236099898815,1670.9021628992632,None,2.411236099898815,1673.3452483993024,None,1673.8638016991317,None,1673.8638016991317,None,r,2.4575143000110984,1673.8638016991317,None,2.4575143000110984,,,93Sing,001,2022_Nov_21_1146,ProdSingRedoBetween,2021.2.3,59.98123767013078,
,,,,40,0,40,0,,,,,,,,,,,,,,,,,,,,,,1680.850314299576,None,,,,,,,,,,,,,,,,,distance,160,41,sing,new,null,1676.8540668999776,None,1676.8540668999776,None,3,2.4915777007117867,1676.8540668999776,None,2.4915777007117867,1679.3769301995635,None,1679.8828746993095,None,1679.8828746993095,None,f,0.9425111003220081,1679.8828746993095,None,0.9425111003220081,,,93Sing,001,2022_Nov_21_1146,ProdSingRedoBetween,2021.2.3,59.98123767013078,
,,,,41,0,41,0,,,,,,,,,,,,,,,,,,,,,,1690.2597212996334,None,,,,,,,,,,,,,,,,,block,28,42,sing,old,yellow,1681.360949699767,None,1681.360949699767,None,2,6.416381900198758,1681.360949699767,None,6.416381900198758,1687.8100624997169,None,1688.3246375992894,None,1688.3246375992894,None,n,1.908674300648272,1688.3246375992894,None,1.908674300648272,,,93Sing,001,2022_Nov_21_1146,ProdSingRedoBetween,2021.2.3,59.98123767013078,
,,,,42,0,42,0,,,,,,,,,,,,,,,,,,,,,,1694.4639824992046,None,,,,,,,,,,,,,,,,,whole,80,43,sing,old,red,1690.7653445992619,None,1690.7653445992619,None,2,2.572154000401497,1690.7653445992619,None,2.572154000401497,1693.3648560997099,None,1693.8811560999602,None,1693.8811560999602,None,n,0.5601995997130871,1693.8811560999602,None,0.5601995997130871,,,93Sing,001,2022_Nov_21_1146,ProdSingRedoBetween,2021.2.3,59.98123767013078,
,,,,43,0,43,0,,,,,,,,,,,,,,,,,,,,,,1700.519909599796,None,,,,,,,,,,,,,,,,,individual,90,44,sing,new,null,1694.974495999515,None,1694.974495999515,None,1,4.506847199983895,1694.974495999515,None,4.506847199983895,1699.5065394993871,None,1700.0270014991984,None,1700.0270014991984,None,n,0.47035459987819195,1700.0270014991984,None,0.47035459987819195,,,93Sing,001,2022_Nov_21_1146,ProdSingRedoBetween,2021.2.3,59.98123767013078,
,,,,44,0,44,0,,,,,,,,,,,,,,,,,,,,,,1707.1766009991989,None,,,,,,,,,,,,,,,,,junior,25,45,sing,old,yellow,1701.0283284997568,None,1701.0283284997568,None,6,4.580902799963951,1701.0283284997568,None,4.580902799963951,1705.6327696992084,None,1706.1424272991717,None,1706.1424272991717,None,r,1.0188600001856685,1706.1424272991717,None,1.0188600001856685,,,93Sing,001,2022_Nov_21_1146,ProdSingRedoBetween,2021.2.3,59.98123767013078,
,,,,45,0,45,0,,,,,,,,,,,,,,,,,,,,,,1710.2797621991485,None,,,,,,,,,,,,,,,,,committee,38,46,sing,old,blue,1707.685120999813,None,1707.685120999813,None,6,1.8442593002691865,1707.685120999813,None,1.8442593002691865,1709.5456387000158,None,1710.0478329993784,None,1710.0478329993784,None,r,0.20944160036742687,1710.0478329993784,None,0.20944160036742687,,,93Sing,001,2022_Nov_21_1146,ProdSingRedoBetween,2021.2.3,59.98123767013078,
,,,,46,0,46,0,,,,,,,,,,,,,,,,,,,,,,1714.850908299908,None,,,,,,,,,,,,,,,,,country,112,47,sing,new,null,1710.7881690999493,None,1710.7881690999493,None,2,2.565140899270773,1710.7881690999493,None,2.565140899270773,1713.3837581994012,None,1713.8831101991236,None,1713.8831101991236,None,n,0.95018329937011,1713.8831101991236,None,0.95018329937011,,,93Sing,001,2022_Nov_21_1146,ProdSingRedoBetween,2021.2.3,59.98123767013078,
,,,,47,0,47,0,,,,,,,,,,,,,,,,,,,,,,1721.8412102991715,None,,,,,,,,,,,,,,,,,research,70,48,sing,old,red,1715.3584712995216,None,1715.3584712995216,None,5,4.330841399729252,1715.3584712995216,None,4.330841399729252,1719.7068761996925,None,1720.20667460002,None,1720.20667460002,None,f,1.6106326999142766,1720.20667460002,None,1.6106326999142766,,,93Sing,001,2022_Nov_21_1146,ProdSingRedoBetween,2021.2.3,59.98123767013078,
,,,,48,0,48,0,,,,,,,,,,,,,,,,,,,,,,1725.7451855000108,None,,,,,,,,,,,,,,,,,grade,27,49,sing,old,yellow,1722.3445155993104,None,1722.3445155993104,None,3,1.7927636001259089,1722.3445155993104,None,1.7927636001259089,1724.1611637994647,None,1724.6607853993773,None,1724.6607853993773,None,n,1.0605496000498533,1724.6607853993773,None,1.0605496000498533,,,93Sing,001,2022_Nov_21_1146,ProdSingRedoBetween,2021.2.3,59.98123767013078,
,,,,49,0,49,0,,,,,,,,,,,,,,,,,,,,,,1732.2542062997818,None,,,,,,,,,,,,,,,,,surface,123,50,sing,new,null,1726.2513965992257,None,1726.2513965992257,None,2,2.757909799925983,1726.2513965992257,None,2.757909799925983,1729.032960999757,None,1729.5323496991768,None,1729.5323496991768,None,n,2.6930004991590977,1729.5323496991768,None,2.6930004991590977,,,93Sing,001,2022_Nov_21_1146,ProdSingRedoBetween,2021.2.3,59.98123767013078,
,,,,50,0,50,0,,,,,,,,,,,,,,,,,,,,,,1737.523275799118,None,,,,,,,,,,,,,,,,,silence,96,51,sing,new,null,1732.7716335998848,None,1732.7716335998848,None,3,2.9415528997778893,1732.7716335998848,None,2.9415528997778893,1735.744651899673,None,1736.2557129999623,None,1736.2557129999623,None,f,1.24956229981035,1736.2557129999623,None,1.24956229981035,,,93Sing,001,2022_Nov_21_1146,ProdSingRedoBetween,2021.2.3,59.98123767013078,
,,,,51,0,51,0,,,,,,,,,,,,,,,,,,,,,,1741.2106087999418,None,,,,,,,,,,,,,,,,,light,49,52,sing,old,blue,1738.0328532997519,None,1738.0328532997519,None,1,1.6644307002425194,1738.0328532997519,None,1.6644307002425194,1739.727181699127,None,1740.2302138991654,None,1740.2302138991654,None,n,0.9630156997591257,1740.2302138991654,None,0.9630156997591257,,,93Sing,001,2022_Nov_21_1146,ProdSingRedoBetween,2021.2.3,59.98123767013078,
,,,,52,0,52,0,,,,,,,,,,,,,,,,,,,,,,1746.3657331997529,None,,,,,,,,,,,,,,,,,chief,39,53,sing,old,blue,1741.7139895996079,None,1741.7139895996079,None,6,2.135291799902916,1741.7139895996079,None,2.135291799902916,1743.8804535996169,None,1744.3913506995887,None,1744.3913506995887,None,r,1.9458422996103764,1744.3913506995887,None,1.9458422996103764,,,93Sing,001,2022_Nov_21_1146,ProdSingRedoBetween,2021.2.3,59.98123767013078,
,,,,53,0,53,0,,,,,,,,,,,,,,,,,,,,,,1749.6188898999244,None,,,,,,,,,,,,,,,,,foundation,84,54,sing,old,red,1746.8751666992903,None,1746.8751666992903,None,6,2.078137299977243,1746.8751666992903,None,2.078137299977243,1748.975255199708,None,1749.4880964998156,None,1749.4880964998156,None,r,0.11313769966363907,1749.4880964998156,None,0.11313769966363907,,,93Sing,001,2022_Nov_21_1146,ProdSingRedoBetween,2021.2.3,59.98123767013078,
,,,,54,0,54,0,,,,,,,,,,,,,,,,,,,,,,1756.4426373997703,None,,,,,,,,,,,,,,,,,region,106,55,sing,new,null,1750.123301799409,None,1750.123301799409,None,4,3.846327799372375,1750.123301799409,None,3.846327799372375,1754.0027049994096,None,1754.507255799137,None,1754.507255799137,None,f,1.9100727001205087,1754.507255799137,None,1.9100727001205087,,,93Sing,001,2022_Nov_21_1146,ProdSingRedoBetween,2021.2.3,59.98123767013078,
,,,,55,0,55,0,,,,,,,,,,,,,,,,,,,,,,1763.482766199857,None,,,,,,,,,,,,,,,,,smooth,19,56,sing,old,yellow,1756.9461904997006,None,1756.9461904997006,None,4,4.583186799660325,1756.9461904997006,None,4.583186799660325,1761.5564294997603,None,1762.0660929000005,None,1762.0660929000005,None,f,1.3991564996540546,1762.0660929000005,None,1.3991564996540546,,,93Sing,001,2022_Nov_21_1146,ProdSingRedoBetween,2021.2.3,59.98123767013078,
,,,,56,0,56,0,,,,,,,,,,,,,,,,,,,,,,1768.942737299949,None,,,,,,,,,,,,,,,,,education,47,57,sing,old,blue,1763.9907589992508,None,1763.9907589992508,None,5,2.6665008002892137,1763.9907589992508,None,2.6665008002892137,1766.6874418994412,None,1767.1921250997111,None,1767.1921250997111,None,r,1.7212351001799107,1767.1921250997111,None,1.7212351001799107,,,93Sing,001,2022_Nov_21_1146,ProdSingRedoBetween,2021.2.3,59.98123767013078,
,,,,57,0,57,0,,,,,,,,,,,,,,,,,,,,,,1773.8264560997486,None,,,,,,,,,,,,,,,,,citizen,101,58,sing,new,null,1769.464091799222,None,1769.464091799222,None,2,2.081115299835801,1769.464091799222,None,2.081115299835801,1771.5753118991852,None,1772.074741399847,None,1772.074741399847,None,n,1.7264753999188542,1772.074741399847,None,1.7264753999188542,,,93Sing,001,2022_Nov_21_1146,ProdSingRedoBetween,2021.2.3,59.98123767013078,
,,,,58,0,58,0,,,,,,,,,,,,,,,,,,,,,,1778.6645172992721,None,,,,,,,,,,,,,,,,,partner,75,59,sing,old,red,1774.3374956995249,None,1774.3374956995249,None,6,2.4557253001257777,1774.3374956995249,None,2.4557253001257777,1776.8139602998272,None,1777.3205883000046,None,1777.3205883000046,None,r,1.3126202002167702,1777.3205883000046,None,1.3126202002167702,,,93Sing,001,2022_Nov_21_1146,ProdSingRedoBetween,2021.2.3,59.98123767013078,
,,,,59,0,59,0,,,,,,,,,,,,,,,,,,,,,,1783.9198167994618,None,,,,,,,,,,,,,,,,,edition,130,60,sing,new,null,1779.1739427000284,None,1779.1739427000284,None,5,1.491219099611044,1779.1739427000284,None,1.491219099611044,1780.6842187996954,None,1781.1838989993557,None,1781.1838989993557,None,n,2.7132477005943656,1781.1838989993557,None,2.7132477005943656,,,93Sing,001,2022_Nov_21_1146,ProdSingRedoBetween,2021.2.3,59.98123767013078,
,,,,60,0,60,0,,,,,,,,,,,,,,,,,,,,,,1788.1740678995848,None,,,,,,,,,,,,,,,,,ground,9,61,sing,old,yellow,1784.4269029991701,None,1784.4269029991701,None,2,2.4542473005130887,1784.4269029991701,None,2.4542473005130887,1786.908004399389,None,1787.4234181996435,None,1787.4234181996435,None,n,0.7297992995008826,1787.4234181996435,None,0.7297992995008826,,,93Sing,001,2022_Nov_21_1146,ProdSingRedoBetween,2021.2.3,59.98123767013078,
,,,,61,0,61,0,,,,,,,,,,,,,,,,,,,,,,1794.9311765991151,None,,,,,,,,,,,,,,,,,still,32,62,sing,old,blue,1788.682525999844,None,1788.682525999844,None,4,3.1347211999818683,1788.682525999844,None,3.1347211999818683,1791.851884599775,None,1792.3616395993158,None,1792.3616395993158,None,f,2.5434208000078797,1792.3616395993158,None,2.5434208000078797,,,93Sing,001,2022_Nov_21_1146,ProdSingRedoBetween,2021.2.3,59.98123767013078,
,,,,62,0,62,0,,,,,,,,,,,,,,,,,,,,,,1798.470391199924,None,,,,,,,,,,,,,,,,,device,93,63,sing,new,null,1795.4378815991804,None,1795.4378815991804,None,1,1.675390100106597,1795.4378815991804,None,1.675390100106597,1797.1419650996104,None,1797.6526984991506,None,1797.6526984991506,None,n,0.7964789997786283,1797.6526984991506,None,0.7964789997786283,,,93Sing,001,2022_Nov_21_1146,ProdSingRedoBetween,2021.2.3,59.98123767013078,
,,,,63,0,63,0,,,,,,,,,,,,,,,,,,,,,,1802.4048787998036,None,,,,,,,,,,,,,,,,,place,164,64,sing,new,null,1798.9909428991377,None,1798.9909428991377,None,1,1.5302764000371099,1798.9909428991377,None,1.5302764000371099,1800.5463035991415,None,1801.053752699867,None,1801.053752699867,None,n,1.3314232993870974,1801.053752699867,None,1.3314232993870974,,,93Sing,001,2022_Nov_21_1146,ProdSingRedoBetween,2021.2.3,59.98123767013078,
,,,,64,0,64,0,,,,,,,,,,,,,,,,,,,,,,1810.195973499678,None,,,,,,,,,,,,,,,,,growth,7,65,sing,old,yellow,1802.9245269997045,None,1802.9245269997045,None,5,3.8446183996275067,1802.9245269997045,None,3.8446183996275067,1806.7956191999838,None,1807.3129808995873,None,1807.3129808995873,None,f,2.856232199817896,1807.3129808995873,None,2.856232199817896,,,93Sing,001,2022_Nov_21_1146,ProdSingRedoBetween,2021.2.3,59.98123767013078,
,,,,65,0,65,0,,,,,,,,,,,,,,,,,,,,,,1814.0230744993314,None,,,,,,,,,,,,,,,,,danger,42,66,sing,old,blue,1810.705913999118,None,1810.705913999118,None,4,2.0872347000986338,1810.705913999118,None,2.0872347000986338,1812.8162388997152,None,1813.3159532994032,None,1813.3159532994032,None,f,0.6773143000900745,1813.3159532994032,None,0.6773143000900745,,,93Sing,001,2022_Nov_21_1146,ProdSingRedoBetween,2021.2.3,59.98123767013078,
,,,,66,0,66,0,,,,,,,,,,,,,,,,,,,,,,1818.4376030992717,None,,,,,,,,,,,,,,,,,present,134,67,sing,new,null,1814.547048899345,None,1814.547048899345,None,6,2.566104100085795,1814.547048899345,None,2.566104100085795,1817.1376884998754,None,1817.6437092991546,None,1817.6437092991546,None,r,0.7734219999983907,1817.6437092991546,None,0.7734219999983907,,,93Sing,001,2022_Nov_21_1146,ProdSingRedoBetween,2021.2.3,59.98123767013078,
,,,,67,0,67,0,,,,,,,,,,,,,,,,,,,,,,1822.2080280994996,None,,,,,,,,,,,,,,,,,dance,5,68,sing,old,yellow,1818.9462319994345,None,1818.9462319994345,None,6,1.7348891999572515,1818.9462319994345,None,1.7348891999572515,1820.7118424000219,None,1821.2238090997562,None,1821.2238090997562,None,r,0.9532761005684733,1821.2238090997562,None,0.9532761005684733,,,93Sing,001,2022_Nov_21_1146,ProdSingRedoBetween,2021.2.3,59.98123767013078,
,,,,68,0,68,0,,,,,,,,,,,,,,,,,,,,,,1825.6447100993246,None,,,,,,,,,,,,,,,,,public,109,69,sing,new,null,1822.7134618991986,None,1822.7134618991986,None,2,1.911650000140071,1822.7134618991986,None,1.911650000140071,1824.6475206995383,None,1825.162561999634,None,1825.162561999634,None,n,0.4545257994905114,1825.162561999634,None,0.4545257994905114,,,93Sing,001,2022_Nov_21_1146,ProdSingRedoBetween,2021.2.3,59.98123767013078,
,,,,69,0,69,0,,,,,,,,,,,,,,,,,,,,,,1829.0648481994867,None,,,,,,,,,,,,,,,,,account,151,70,sing,new,null,1826.1453664992005,None,1826.1453664992005,None,3,1.8636970007792115,1826.1453664992005,None,1.8636970007792115,1828.03250749968,None,1828.5477784993127,None,1828.5477784993127,None,n,0.49337799940258265,1828.5477784993127,None,0.49337799940258265,,,93Sing,001,2022_Nov_21_1146,ProdSingRedoBetween,2021.2.3,59.98123767013078,
,,,,70,0,70,0,,,,,,,,,,,,,,,,,,,,,,1833.0541489999741,None,,,,,,,,,,,,,,,,,under,118,71,sing,new,null,1829.56706239935,None,1829.56706239935,None,3,2.354047399945557,1829.56706239935,None,2.354047399945557,1831.9516227999702,None,1832.4519922994077,None,1832.4519922994077,None,n,0.5732240006327629,1832.4519922994077,None,0.5732240006327629,,,93Sing,001,2022_Nov_21_1146,ProdSingRedoBetween,2021.2.3,59.98123767013078,
,,,,71,0,71,0,,,,,,,,,,,,,,,,,,,,,,1835.9262855993584,None,,,,,,,,,,,,,,,,,month,176,72,sing,new,null,1833.5725731998682,None,1833.5725731998682,None,1,1.4765268992632627,1833.5725731998682,None,1.4765268992632627,1835.0735316993669,None,1835.5907431999221,None,1835.5907431999221,None,n,0.3065239004790783,1835.5907431999221,None,0.3065239004790783,,,93Sing,001,2022_Nov_21_1146,ProdSingRedoBetween,2021.2.3,59.98123767013078,
,,,,72,0,72,0,,,,,,,,,,,,,,,,,,,,,,1840.9453545995057,None,,,,,,,,,,,,,,,,,military,64,73,sing,old,red,1836.445180199109,None,1836.445180199109,None,6,2.028074899688363,1836.445180199109,None,2.028074899688363,1838.491049499251,None,1838.993624499999,None,1838.993624499999,None,r,1.9197162995114923,1838.993624499999,None,1.9197162995114923,,,93Sing,001,2022_Nov_21_1146,ProdSingRedoBetween,2021.2.3,59.98123767013078,
,,,,73,0,73,0,,,,,,,,,,,,,,,,,,,,,,1845.5979871992022,None,,,,,,,,,,,,,,,,,crowd,113,74,sing,new,null,1841.4687653994188,None,1841.4687653994188,None,1,1.668320800177753,1841.4687653994188,None,1.668320800177753,1843.162346799858,None,1843.6667090998963,None,1843.6667090998963,None,n,1.902411499992013,1843.6667090998963,None,1.902411499992013,,,93Sing,001,2022_Nov_21_1146,ProdSingRedoBetween,2021.2.3,59.98123767013078,
,,,,74,0,74,0,,,,,,,,,,,,,,,,,,,,,,1849.7686969991773,None,,,,,,,,,,,,,,,,,quiet,99,75,sing,new,null,1846.1112980991602,None,1846.1112980991602,None,2,1.6417959006503224,1846.1112980991602,None,1.6417959006503224,1847.7845373991877,None,1848.2842886997387,None,1848.2842886997387,None,n,1.4608394000679255,1848.2842886997387,None,1.4608394000679255,,,93Sing,001,2022_Nov_21_1146,ProdSingRedoBetween,2021.2.3,59.98123767013078,
,,,,75,0,75,0,,,,,,,,,,,,,,,,,,,,,,1857.926907999441,None,,,,,,,,,,,,,,,,,audience,18,76,sing,old,yellow,1850.2758711995557,None,1850.2758711995557,None,4,6.005090999417007,1850.2758711995557,None,6.005090999417007,1856.3105180999264,None,1856.8261421993375,None,1856.8261421993375,None,f,1.0789381004869938,1856.8261421993375,None,1.0789381004869938,,,93Sing,001,2022_Nov_21_1146,ProdSingRedoBetween,2021.2.3,59.98123767013078,
,,,,76,0,76,0,,,,,,,,,,,,,,,,,,,,,,1865.667984799482,None,,,,,,,,,,,,,,,,,breath,103,77,sing,new,null,1858.4376950999722,None,1858.4376950999722,None,1,6.139365299604833,1858.4376950999722,None,6.139365299604833,1864.6002403991297,None,1865.1008706996217,None,1865.1008706996217,None,n,0.5401507997885346,1865.1008706996217,None,0.5401507997885346,,,93Sing,001,2022_Nov_21_1146,ProdSingRedoBetween,2021.2.3,59.98123767013078,
,,,,77,0,77,0,,,,,,,,,,,,,,,,,,,,,,1869.7220217995346,None,,,,,,,,,,,,,,,,,power,131,78,sing,new,null,1866.1698207994923,None,1866.1698207994923,None,2,2.775283199734986,1866.1698207994923,None,2.775283199734986,1868.9722902998328,None,1869.4748204993084,None,1869.4748204993084,None,n,0.22223119996488094,1869.4748204993084,None,0.22223119996488094,,,93Sing,001,2022_Nov_21_1146,ProdSingRedoBetween,2021.2.3,59.98123767013078,
,,,,78,0,78,0,,,,,,,,,,,,,,,,,,,,,,1874.160356699489,None,,,,,,,,,,,,,,,,,fellow,105,79,sing,new,null,1870.2233210997656,None,1870.2233210997656,None,1,1.9456481002271175,1870.2233210997656,None,1.9456481002271175,1872.1910367999226,None,1872.697500099428,None,1872.697500099428,None,n,1.4394388999789953,1872.697500099428,None,1.4394388999789953,,,93Sing,001,2022_Nov_21_1146,ProdSingRedoBetween,2021.2.3,59.98123767013078,
,,,,79,0,79,0,,,,,,,,,,,,,,,,,,,,,,1877.4130963999778,None,,,,,,,,,,,,,,,,,bucket,43,80,sing,old,blue,1874.6660869996995,None,1874.6660869996995,None,6,1.9590002000331879,1874.6660869996995,None,1.9590002000331879,1876.6504752999172,None,1877.1662171995267,None,1877.1662171995267,None,r,0.2187959998846054,1877.1662171995267,None,0.2187959998846054,,,93Sing,001,2022_Nov_21_1146,ProdSingRedoBetween,2021.2.3,59.98123767013078,
,,,,80,0,80,0,,,,,,,,,,,,,,,,,,,,,,1883.019686899148,None,,,,,,,,,,,,,,,,,income,126,81,sing,new,null,1877.9189544999972,None,1877.9189544999972,None,1,2.746040000580251,1877.9189544999972,None,2.746040000580251,1880.6838988997042,None,1881.1835984997451,None,1881.1835984997451,None,n,1.8174021001905203,1881.1835984997451,None,1.8174021001905203,,,93Sing,001,2022_Nov_21_1146,ProdSingRedoBetween,2021.2.3,59.98123767013078,
,,,,81,0,81,0,,,,,,,,,,,,,,,,,,,,,,1886.004992899485,None,,,,,,,,,,,,,,,,,executive,20,82,sing,old,yellow,1883.52160849981,None,1883.52160849981,None,6,1.647493600845337,1883.52160849981,None,1.647493600845337,1885.1898372992873,None,1885.7046552998945,None,1885.7046552998945,None,r,0.28053029999136925,1885.7046552998945,None,0.28053029999136925,,,93Sing,001,2022_Nov_21_1146,ProdSingRedoBetween,2021.2.3,59.98123767013078,
,,,,82,0,82,0,,,,,,,,,,,,,,,,,,,,,,1892.5281355995685,None,,,,,,,,,,,,,,,,,appearance,148,83,sing,new,null,1886.5055823000148,None,1886.5055823000148,None,4,4.575477899983525,1886.5055823000148,None,4.575477899983525,1891.1110421996564,None,1891.6150375995785,None,1891.6150375995785,None,f,0.8899614000692964,1891.6150375995785,None,0.8899614000692964,,,93Sing,001,2022_Nov_21_1146,ProdSingRedoBetween,2021.2.3,59.98123767013078,
,,,,83,0,83,0,,,,,,,,,,,,,,,,,,,,,,1897.3996294997633,None,,,,,,,,,,,,,,,,,thick,162,84,sing,new,null,1893.0423693992198,None,1893.0423693992198,None,1,2.014593499712646,1893.0423693992198,None,2.014593499712646,1895.0818442991003,None,1895.5855026999488,None,1895.5855026999488,None,n,1.7834859993308783,1895.5855026999488,None,1.7834859993308783,,,93Sing,001,2022_Nov_21_1146,ProdSingRedoBetween,2021.2.3,59.98123767013078,
,,,,84,0,84,0,,,,,,,,,,,,,,,,,,,,,,1900.1690665995702,None,,,,,,,,,,,,,,,,,height,133,85,sing,new,null,1897.9124875999987,None,1897.9124875999987,None,1,1.4567529000341892,1897.9124875999987,None,1.4567529000341892,1899.4012428997084,None,1899.9024659991264,None,1899.9024659991264,None,n,0.24253320042043924,1899.9024659991264,None,0.24253320042043924,,,93Sing,001,2022_Nov_21_1146,ProdSingRedoBetween,2021.2.3,59.98123767013078,
,,,,85,0,85,0,,,,,,,,,,,,,,,,,,,,,,1911.1299892999232,None,,,,,,,,,,,,,,,,,leader,58,86,sing,old,blue,1900.6782825998962,None,1900.6782825998962,None,5,5.306702599860728,1900.6782825998962,None,5.306702599860728,1906.0081432992592,None,1906.5089563997462,None,1906.5089563997462,None,n,4.595958000048995,1906.5089563997462,None,4.595958000048995,,,93Sing,001,2022_Nov_21_1146,ProdSingRedoBetween,2021.2.3,59.98123767013078,
,,,,86,0,86,0,,,,,,,,,,,,,,,,,,,,,,1915.619831899181,None,,,,,,,,,,,,,,,,,weather,13,87,sing,old,yellow,1911.6399369994178,None,1911.6399369994178,None,2,3.25703480001539,1911.6399369994178,None,3.25703480001539,1914.9182376991957,None,1915.4284297991544,None,1915.4284297991544,None,n,0.1644430998712778,1915.4284297991544,None,0.1644430998712778,,,93Sing,001,2022_Nov_21_1146,ProdSingRedoBetween,2021.2.3,59.98123767013078,
,,,,87,0,87,0,,,,,,,,,,,,,,,,,,,,,,1919.404908299446,None,,,,,,,,,,,,,,,,,household,37,88,sing,old,blue,1916.1380574991927,None,1916.1380574991927,None,6,1.5989798996597528,1916.1380574991927,None,1.5989798996597528,1917.7545128995553,None,1918.2604468995705,None,1918.2604468995705,None,r,1.1164918998256326,1918.2604468995705,None,1.1164918998256326,,,93Sing,001,2022_Nov_21_1146,ProdSingRedoBetween,2021.2.3,59.98123767013078,
,,,,88,0,88,0,,,,,,,,,,,,,,,,,,,,,,1925.8446681993082,None,,,,,,,,,,,,,,,,,department,102,89,sing,new,null,1919.9130381997675,None,1919.9130381997675,None,2,4.175914900377393,1919.9130381997675,None,4.175914900377393,1924.1108442991972,None,1924.6102680992335,None,1924.6102680992335,None,n,1.206640800461173,1924.6102680992335,None,1.206640800461173,,,93Sing,001,2022_Nov_21_1146,ProdSingRedoBetween,2021.2.3,59.98123767013078,
,,,,89,0,89,0,,,,,,,,,,,,,,,,,,,,,,1929.4815901992843,None,,,,,,,,,,,,,,,,,carry,157,90,sing,new,null,1926.360399399884,None,1926.360399399884,None,1,1.3286461001262069,1926.360399399884,None,1.3286461001262069,1927.7174952998757,None,1928.23623439949,None,1928.23623439949,None,n,1.2207300001755357,1928.23623439949,None,1.2207300001755357,,,93Sing,001,2022_Nov_21_1146,ProdSingRedoBetween,2021.2.3,59.98123767013078,
,,,,90,0,90,0,,,,,,,,,,,,,,,,,,,,,,1935.3375096991658,None,,,,,,,,,,,,,,,,,school,139,91,sing,new,null,1929.9900115998462,None,1929.9900115998462,None,1,2.714925500564277,1929.9900115998462,None,2.714925500564277,1932.735488699749,None,1933.239814799279,None,1933.239814799279,None,n,2.0731607005000114,1933.239814799279,None,2.0731607005000114,,,93Sing,001,2022_Nov_21_1146,ProdSingRedoBetween,2021.2.3,59.98123767013078,
,,,,91,0,91,0,,,,,,,,,,,,,,,,,,,,,,1938.2737588994205,None,,,,,,,,,,,,,,,,,quantity,91,92,sing,new,null,1935.850829899311,None,1935.850829899311,None,1,1.6701042000204325,1935.850829899311,None,1.6701042000204325,1937.541986999102,None,1938.0569483991712,None,1938.0569483991712,None,n,0.1999746998772025,1938.0569483991712,None,0.1999746998772025,,,93Sing,001,2022_Nov_21_1146,ProdSingRedoBetween,2021.2.3,59.98123767013078,
,,,,92,0,92,0,,,,,,,,,,,,,,,,,,,,,,1941.6944807991385,None,,,,,,,,,,,,,,,,,weight,174,93,sing,new,null,1938.782536599785,None,1938.782536599785,None,1,1.7784211998805404,1938.782536599785,None,1.7784211998805404,1940.5796505995095,None,1941.0989422993734,None,1941.0989422993734,None,n,0.5661075999960303,1941.0989422993734,None,0.5661075999960303,,,93Sing,001,2022_Nov_21_1146,ProdSingRedoBetween,2021.2.3,59.98123767013078,
,,,,93,0,93,0,,,,,,,,,,,,,,,,,,,,,,1944.9980650991201,None,,,,,,,,,,,,,,,,,plane,85,94,sing,old,red,1942.1976707000285,None,1942.1976707000285,None,1,2.0272059002891183,1942.1976707000285,None,2.0272059002891183,1944.2476065997034,None,1944.7528457995504,None,1944.7528457995504,None,n,0.22397440019994974,1944.7528457995504,None,0.22397440019994974,,,93Sing,001,2022_Nov_21_1146,ProdSingRedoBetween,2021.2.3,59.98123767013078,
,,,,94,0,94,0,,,,,,,,,,,,,,,,,,,,,,1951.4535408997908,None,,,,,,,,,,,,,,,,,general,76,95,sing,old,red,1945.4974586991593,None,1945.4974586991593,None,3,4.111433899961412,1945.4974586991593,None,4.111433899961412,1949.6358960997313,None,1950.135595199652,None,1950.135595199652,None,n,1.2973137004300952,1950.135595199652,None,1.2973137004300952,,,93Sing,001,2022_Nov_21_1146,ProdSingRedoBetween,2021.2.3,59.98123767013078,
,,,,95,0,95,0,,,,,,,,,,,,,,,,,,,,,,1960.228966199793,None,,,,,,,,,,,,,,,,,smell,22,96,sing,old,yellow,1951.9707524999976,None,1951.9707524999976,None,3,6.7821293994784355,1951.9707524999976,None,6.7821293994784355,1958.7787353992462,None,1959.280771699734,None,1959.280771699734,None,f,0.9200974991545081,1959.280771699734,None,0.9200974991545081,,,93Sing,001,2022_Nov_21_1146,ProdSingRedoBetween,2021.2.3,59.98123767013078,
,,,,96,0,96,0,,,,,,,,,,,,,,,,,,,,,,1964.5524239996448,None,,,,,,,,,,,,,,,,,space,146,97,sing,new,null,1960.738726599142,None,1960.738726599142,None,2,2.454158100299537,1960.738726599142,None,2.454158100299537,1963.216586499475,None,1963.721771599725,None,1963.721771599725,None,n,0.7992537003010511,1963.721771599725,None,0.7992537003010511,,,93Sing,001,2022_Nov_21_1146,ProdSingRedoBetween,2021.2.3,59.98123767013078,
,,,,97,0,97,0,,,,,,,,,,,,,,,,,,,,,,1967.8365090992302,None,,,,,,,,,,,,,,,,,brief,129,98,sing,new,null,1965.084489199333,None,1965.084489199333,None,1,1.7963821003213525,1965.084489199333,None,1.7963821003213525,1966.9031868996099,None,1967.4079687995836,None,1967.4079687995836,None,n,0.4089354993775487,1967.4079687995836,None,0.4089354993775487,,,93Sing,001,2022_Nov_21_1146,ProdSingRedoBetween,2021.2.3,59.98123767013078,
,,,,98,0,98,0,,,,,,,,,,,,,,,,,,,,,,1970.9896166995168,None,,,,,,,,,,,,,,,,,frank,147,99,sing,new,null,1968.3434102991596,None,1968.3434102991596,None,1,1.4814766999334097,1968.3434102991596,None,1.4814766999334097,1969.8567474000156,None,1970.3771882997826,None,1970.3771882997826,None,n,0.591771399602294,1970.3771882997826,None,0.591771399602294,,,93Sing,001,2022_Nov_21_1146,ProdSingRedoBetween,2021.2.3,59.98123767013078,
,,,,99,0,99,0,,,,,,,,,,,,,,,,,,,,,,1975.5274072997272,None,,,,,,,,,,,,,,,,,direction,165,100,sing,new,null,1971.4967401996255,None,1971.4967401996255,None,3,2.240147700533271,1971.4967401996255,None,2.240147700533271,1973.7601045994088,None,1974.261841699481,None,1974.261841699481,None,n,1.2429201994091272,1974.261841699481,None,1.2429201994091272,,,93Sing,001,2022_Nov_21_1146,ProdSingRedoBetween,2021.2.3,59.98123767013078,
,,,,100,0,100,0,,,,,,,,,,,,,,,,,,,,,,1979.9319376992062,None,,,,,,,,,,,,,,,,,stand,108,101,sing,new,null,1976.0299436999485,None,1976.0299436999485,None,2,1.930927500128746,1976.0299436999485,None,1.930927500128746,1977.9809912992641,None,1978.4866320993751,None,1978.4866320993751,None,n,1.4181794999167323,1978.4866320993751,None,1.4181794999167323,,,93Sing,001,2022_Nov_21_1146,ProdSingRedoBetween,2021.2.3,59.98123767013078,
,,,,101,0,101,0,,,,,,,,,,,,,,,,,,,,,,1984.0526389991865,None,,,,,,,,,,,,,,,,,travel,40,102,sing,old,blue,1980.4364275997505,None,1980.4364275997505,None,6,1.9484854992479086,1980.4364275997505,None,1.9484854992479086,1982.4239208996296,None,1982.9351245993748,None,1982.9351245993748,None,r,1.0896808002144098,1982.9351245993748,None,1.0896808002144098,,,93Sing,001,2022_Nov_21_1146,ProdSingRedoBetween,2021.2.3,59.98123767013078,
,,,,102,0,102,0,,,,,,,,,,,,,,,,,,,,,,1988.306928199716,None,,,,,,,,,,,,,,,,,raise,62,103,sing,old,red,1984.5617060996592,None,1984.5617060996592,None,5,2.255057300440967,1984.5617060996592,None,2.255057300440967,1986.8405747991055,None,1987.3428684994578,None,1987.3428684994578,None,f,0.9458877006545663,1987.3428684994578,None,0.9458877006545663,,,93Sing,001,2022_Nov_21_1146,ProdSingRedoBetween,2021.2.3,59.98123767013078,
,,,,103,0,103,0,,,,,,,,,,,,,,,,,,,,,,1993.5467517999932,None,,,,,,,,,,,,,,,,,clear,73,104,sing,old,red,1988.8159126993269,None,1988.8159126993269,None,4,2.1530651999637485,1988.8159126993269,None,2.1530651999637485,1990.993805299513,None,1991.4975743992254,None,1991.4975743992254,None,f,2.0233034007251263,1991.4975743992254,None,2.0233034007251263,,,93Sing,001,2022_Nov_21_1146,ProdSingRedoBetween,2021.2.3,59.98123767013078,
,,,,104,0,104,0,,,,,,,,,,,,,,,,,,,,,,1998.6339227994904,None,,,,,,,,,,,,,,,,,production,104,105,sing,new,null,1994.0590296993032,None,1994.0590296993032,None,5,2.95780530013144,1994.0590296993032,None,2.95780530013144,1997.034491699189,None,1997.549586199224,None,1997.549586199224,None,f,1.0672067003324628,1997.549586199224,None,1.0672067003324628,,,93Sing,001,2022_Nov_21_1146,ProdSingRedoBetween,2021.2.3,59.98123767013078,
,,,,105,0,105,0,,,,,,,,,,,,,,,,,,,,,,2002.8214079998434,None,,,,,,,,,,,,,,,,,hunger,170,106,sing,new,null,1999.1419317992404,None,1999.1419317992404,None,1,1.4908854998648167,1999.1419317992404,None,1.4908854998648167,2000.6523713991046,None,2001.161576599814,None,2001.161576599814,None,n,1.639194400049746,2001.161576599814,None,1.639194400049746,,,93Sing,001,2022_Nov_21_1146,ProdSingRedoBetween,2021.2.3,59.98123767013078,
,,,,106,0,106,0,,,,,,,,,,,,,,,,,,,,,,2006.0412350995466,None,,,,,,,,,,,,,,,,,drink,24,107,sing,old,yellow,2003.3306389991194,None,2003.3306389991194,None,1,1.4222514005377889,2003.3306389991194,None,1.4222514005377889,2004.774658399634,None,2005.2775122998282,None,2005.2775122998282,None,n,0.7392253996804357,2005.2775122998282,None,0.7392253996804357,,,93Sing,001,2022_Nov_21_1146,ProdSingRedoBetween,2021.2.3,59.98123767013078,
,,,,107,0,107,0,,,,,,,,,,,,,,,,,,,,,,2015.834444699809,None,,,,,,,,,,,,,,,,,industry,120,108,sing,new,null,2006.5419165994972,None,2006.5419165994972,None,2,8.530779199674726,2006.5419165994972,None,8.530779199674726,2015.100583399646,None,2015.6059015998617,None,2015.6059015998617,None,n,0.21088849939405918,2015.6059015998617,None,0.21088849939405918,,,93Sing,001,2022_Nov_21_1146,ProdSingRedoBetween,2021.2.3,59.98123767013078,
,,,,108,0,108,0,,,,,,,,,,,,,,,,,,,,,,2021.1730473991483,None,,,,,,,,,,,,,,,,,guard,83,109,sing,old,red,2016.3434229996055,None,2016.3434229996055,None,5,2.977327300235629,2016.3434229996055,None,2.977327300235629,2019.3388697998598,None,2019.8385035991669,None,2019.8385035991669,None,r,1.3142900997772813,2019.8385035991669,None,1.3142900997772813,,,93Sing,001,2022_Nov_21_1146,ProdSingRedoBetween,2021.2.3,59.98123767013078,
,,,,109,0,109,0,,,,,,,,,,,,,,,,,,,,,,2024.19273939915,None,,,,,,,,,,,,,,,,,running,72,110,sing,old,red,2021.6821064995602,None,2021.6821064995602,None,1,1.5586433000862598,2021.6821064995602,None,1.5586433000862598,2023.2583482991904,None,2023.7610295992345,None,2023.7610295992345,None,n,0.41581529937684536,2023.7610295992345,None,0.41581529937684536,,,93Sing,001,2022_Nov_21_1146,ProdSingRedoBetween,2021.2.3,59.98123767013078,
,,,,110,0,110,0,,,,,,,,,,,,,,,,,,,,,,2026.912708199583,None,,,,,,,,,,,,,,,,,fashion,55,111,sing,old,blue,2024.7065546996891,None,2024.7065546996891,None,1,1.2782691000029445,2024.7065546996891,None,1.2782691000029445,2026.0140787996352,None,2026.5286319991574,None,2026.5286319991574,None,n,0.36833570059388876,2026.5286319991574,None,0.36833570059388876,,,93Sing,001,2022_Nov_21_1146,ProdSingRedoBetween,2021.2.3,59.98123767013078,
,,,,111,0,111,0,,,,,,,,,,,,,,,,,,,,,,2030.4154256992042,None,,,,,,,,,,,,,,,,,material,77,112,sing,old,red,2027.4209130993113,None,2027.4209130993113,None,2,2.2599935000762343,2027.4209130993113,None,2.2599935000762343,2029.7015555994585,None,2030.2155874995515,None,2030.2155874995515,None,n,0.1852310998365283,2030.2155874995515,None,0.1852310998365283,,,93Sing,001,2022_Nov_21_1146,ProdSingRedoBetween,2021.2.3,59.98123767013078,
,,,,112,0,112,0,,,,,,,,,,,,,,,,,,,,,,2032.7680135993287,None,,,,,,,,,,,,,,,,,little,86,113,sing,old,red,2030.9175912998617,None,2030.9175912998617,None,1,1.187092499807477,2030.9175912998617,None,1.187092499807477,2032.1341761993244,None,2032.6360208997503,None,2032.6360208997503,None,n,0.1167444996535778,2032.6360208997503,None,0.1167444996535778,,,93Sing,001,2022_Nov_21_1146,ProdSingRedoBetween,2021.2.3,59.98123767013078,
,,,,113,0,113,0,,,,,,,,,,,,,,,,,,,,,,2037.1723539996892,None,,,,,,,,,,,,,,,,,emergency,142,114,sing,new,null,2033.2788554998115,None,2033.2788554998115,None,1,2.433834499679506,2033.2788554998115,None,2.433834499679506,2035.7447478994727,None,2036.255024199374,None,2036.255024199374,None,n,0.8977598994970322,2036.255024199374,None,0.8977598994970322,,,93Sing,001,2022_Nov_21_1146,ProdSingRedoBetween,2021.2.3,59.98123767013078,
,,,,114,0,114,0,,,,,,,,,,,,,,,,,,,,,,2042.2941906992346,None,,,,,,,,,,,,,,,,,theme,36,115,sing,old,blue,2037.6818694993854,None,2037.6818694993854,None,6,1.9990031002089381,2037.6818694993854,None,1.9990031002089381,2039.7165869995952,None,2040.2253392999992,None,2040.2253392999992,None,r,2.0393909998238087,2040.2253392999992,None,2.0393909998238087,,,93Sing,001,2022_Nov_21_1146,ProdSingRedoBetween,2021.2.3,59.98123767013078,
,,,,115,0,115,0,,,,,,,,,,,,,,,,,,,,,,2045.9144025994465,None,,,,,,,,,,,,,,,,,display,122,116,sing,new,null,2042.8036693995818,None,2042.8036693995818,None,1,1.941016400232911,2042.8036693995818,None,1.941016400232911,2044.766440499574,None,2045.2899448992684,None,2045.2899448992684,None,n,0.598819799721241,2045.2899448992684,None,0.598819799721241,,,93Sing,001,2022_Nov_21_1146,ProdSingRedoBetween,2021.2.3,59.98123767013078,
,,,,116,0,116,0,,,,,,,,,,,,,,,,,,,,,,2048.9698540000245,None,,,,,,,,,,,,,,,,,style,51,117,sing,old,blue,2046.41909640003,None,2046.41909640003,None,2,1.365697399713099,2046.41909640003,None,1.365697399713099,2047.8010167991742,None,2048.307346199639,None,2048.307346199639,None,n,0.6294006006792188,2048.307346199639,None,0.6294006006792188,,,93Sing,001,2022_Nov_21_1146,ProdSingRedoBetween,2021.2.3,59.98123767013078,
,,,,117,0,117,0,,,,,,,,,,,,,,,,,,,,,,2052.9225553991273,None,,,,,,,,,,,,,,,,,election,94,118,sing,new,null,2049.4864456998184,None,2049.4864456998184,None,3,2.362302999943495,2049.4864456998184,None,2.362302999943495,2051.8705702992156,None,2052.3732530996203,None,2052.3732530996203,None,n,0.5235557006672025,2052.3732530996203,None,0.5235557006672025,,,93Sing,001,2022_Nov_21_1146,ProdSingRedoBetween,2021.2.3,59.98123767013078,
,,,,118,0,118,0,,,,,,,,,,,,,,,,,,,,,,2059.6448021996766,None,,,,,,,,,,,,,,,,,answer,0,119,sing,old,yellow,2053.4230386000127,None,2053.4230386000127,None,2,4.489693899638951,2053.4230386000127,None,4.489693899638951,2057.943815900013,None,2058.448558099568,None,2058.448558099568,None,n,1.1761671993881464,2058.448558099568,None,1.1761671993881464,,,93Sing,001,2022_Nov_21_1146,ProdSingRedoBetween,2021.2.3,59.98123767013078,
,,,,119,0,119,0,,,,,,,,,,,,,,,,,,,,,,2065.2058031000197,None,,,,,,,,,,,,,,,,,agency,114,120,sing,new,null,2060.1545200999826,None,2060.1545200999826,None,1,3.566216600127518,2060.1545200999826,None,3.566216600127518,2063.7514571994543,None,2064.2710827998817,None,2064.2710827998817,None,n,0.9058432001620531,2064.2710827998817,None,0.9058432001620531,,,93Sing,001,2022_Nov_21_1146,ProdSingRedoBetween,2021.2.3,59.98123767013078,
,,,,120,0,120,0,,,,,,,,,,,,,,,,,,,,,,2069.8548348993063,None,,,,,,,,,,,,,,,,,object,67,121,sing,old,red,2065.720983799547,None,2065.720983799547,None,4,2.2716687005013227,2065.720983799547,None,2.2716687005013227,2068.019867999479,None,2068.5225827991962,None,2068.5225827991962,None,f,1.3021397003903985,2068.5225827991962,None,1.3021397003903985,,,93Sing,001,2022_Nov_21_1146,ProdSingRedoBetween,2021.2.3,59.98123767013078,
,,,,121,0,121,0,,,,,,,,,,,,,,,,,,,,,,2074.843301099725,None,,,,,,,,,,,,,,,,,contract,135,122,sing,new,null,2070.3591139996424,None,2070.3591139996424,None,1,2.4177147997543216,2070.3591139996424,None,2.4177147997543216,2072.807860799134,None,2073.3108928995207,None,2073.3108928995207,None,n,1.5137810995802283,2073.3108928995207,None,1.5137810995802283,,,93Sing,001,2022_Nov_21_1146,ProdSingRedoBetween,2021.2.3,59.98123767013078,
,,,,122,0,122,0,,,,,,,,,,,,,,,,,,,,,,2078.4302321998402,None,,,,,,,,,,,,,,,,,staff,65,123,sing,old,red,2075.343593799509,None,2075.343593799509,None,1,1.9131177999079227,2075.343593799509,None,1.9131177999079227,2077.283328799531,None,2077.8006720999256,None,2077.8006720999256,None,n,0.6000044997781515,2077.8006720999256,None,0.6000044997781515,,,93Sing,001,2022_Nov_21_1146,ProdSingRedoBetween,2021.2.3,59.98123767013078,
,,,,123,0,123,0,,,,,,,,,,,,,,,,,,,,,,2085.069936499931,None,,,,,,,,,,,,,,,,,heavy,63,124,sing,old,red,2078.9312981991097,None,2078.9312981991097,None,2,3.3814008999615908,2078.9312981991097,None,3.3814008999615908,2082.338506599888,None,2082.8563207993284,None,2082.8563207993284,None,n,2.192354599945247,2082.8563207993284,None,2.192354599945247,,,93Sing,001,2022_Nov_21_1146,ProdSingRedoBetween,2021.2.3,59.98123767013078,
,,,,124,0,124,0,,,,,,,,,,,,,,,,,,,,,,2090.1752333994955,None,,,,,,,,,,,,,,,,,route,173,125,sing,new,null,2085.582342799753,None,2085.582342799753,None,1,3.1222952008247375,2085.582342799753,None,3.1222952008247375,2088.7254276992753,None,2089.2410309994593,None,2089.2410309994593,None,n,0.9116412997245789,2089.2410309994593,None,0.9116412997245789,,,93Sing,001,2022_Nov_21_1146,ProdSingRedoBetween,2021.2.3,59.98123767013078,
,,,,125,0,125,0,,,,,,,,,,,,,,,,,,,,,,2093.4643878992647,None,,,,,,,,,,,,,,,,,recall,110,126,sing,new,null,2090.6862246999517,None,2090.6862246999517,None,1,1.4104466997087002,2090.6862246999517,None,1.4104466997087002,2092.1271596997976,None,2092.6277734991163,None,2092.6277734991163,None,n,0.8050424996763468,2092.6277734991163,None,0.8050424996763468,,,93Sing,001,2022_Nov_21_1146,ProdSingRedoBetween,2021.2.3,59.98123767013078,
,,,,126,0,126,0,,,,,,,,,,,,,,,,,,,,,,2097.1821913998574,None,,,,,,,,,,,,,,,,,store,138,127,sing,new,null,2093.981291699223,None,2093.981291699223,None,1,1.995300400070846,2093.981291699223,None,1.995300400070846,2096.00075609982,None,2096.5179611993954,None,2096.5179611993954,None,n,0.6426904005929828,2096.5179611993954,None,0.6426904005929828,,,93Sing,001,2022_Nov_21_1146,ProdSingRedoBetween,2021.2.3,59.98123767013078,
,,,,127,0,127,0,,,,,,,,,,,,,,,,,,,,,,2100.3526087999344,None,,,,,,,,,,,,,,,,,disease,89,128,sing,old,red,2097.690616999753,None,2097.690616999753,None,6,1.8380313999950886,2097.690616999753,None,1.8380313999950886,2099.5527492994443,None,2100.055953699164,None,2100.055953699164,None,r,0.2649344000965357,2100.055953699164,None,0.2649344000965357,,,93Sing,001,2022_Nov_21_1146,ProdSingRedoBetween,2021.2.3,59.98123767013078,
,,,,128,0,128,0,,,,,,,,,,,,,,,,,,,,,,2104.257828899659,None,,,,,,,,,,,,,,,,,marriage,144,129,sing,new,null,2100.85488829948,None,2100.85488829948,None,1,1.5297954995185137,2100.85488829948,None,1.5297954995185137,2102.4061569999903,None,2102.9240234997123,None,2102.9240234997123,None,n,1.3086516996845603,2102.9240234997123,None,1.3086516996845603,,,93Sing,001,2022_Nov_21_1146,ProdSingRedoBetween,2021.2.3,59.98123767013078,
,,,,129,0,129,0,,,,,,,,,,,,,,,,,,,,,,2107.9596498999745,None,,,,,,,,,,,,,,,,,nation,167,130,sing,new,null,2104.774606799707,None,2104.774606799707,None,1,1.5780680002644658,2104.774606799707,None,1.5780680002644658,2106.3773677991703,None,2106.891946299933,None,2106.891946299933,None,n,1.044688900001347,2106.891946299933,None,1.044688900001347,,,93Sing,001,2022_Nov_21_1146,ProdSingRedoBetween,2021.2.3,59.98123767013078,
,,,,130,0,130,0,,,,,,,,,,,,,,,,,,,,,,2112.631006299518,None,,,,,,,,,,,,,,,,,tennis,46,131,sing,old,blue,2108.4694028999656,None,2108.4694028999656,None,6,1.6511441003531218,2108.4694028999656,None,1.6511441003531218,2110.1462820991874,None,2110.6457257997245,None,2110.6457257997245,None,r,1.9629399003461003,2110.6457257997245,None,1.9629399003461003,,,93Sing,001,2022_Nov_21_1146,ProdSingRedoBetween,2021.2.3,59.98123767013078,
,,,,131,0,131,0,,,,,,,,,,,,,,,,,,,,,,2117.852793299593,None,,,,,,,,,,,,,,,,,suspect,128,132,sing,new,null,2113.139689299278,None,2113.139689299278,None,4,3.4769557993859053,2113.139689299278,None,3.4769557993859053,2116.636313199997,None,2117.1438168995082,None,2117.1438168995082,None,f,0.6807584995403886,2117.1438168995082,None,0.6807584995403886,,,93Sing,001,2022_Nov_21_1146,ProdSingRedoBetween,2021.2.3,59.98123767013078,
,,,,132,0,132,0,,,,,,,,,,,,,,,,,,,,,,2124.312991699204,None,,,,,,,,,,,,,,,,,community,92,133,sing,new,null,2118.3563218992203,None,2118.3563218992203,None,4,4.388278599828482,2118.3563218992203,None,4.388278599828482,2122.7751933997497,None,2123.2793911993504,None,2123.2793911993504,None,f,1.0014229007065296,2123.2793911993504,None,1.0014229007065296,,,93Sing,001,2022_Nov_21_1146,ProdSingRedoBetween,2021.2.3,59.98123767013078,
,,,,133,0,133,0,,,,,,,,,,,,,,,,,,,,,,2127.8628116995096,None,,,,,,,,,,,,,,,,,payment,159,134,sing,new,null,2124.8325410997495,None,2124.8325410997495,None,1,1.5199501998722553,2124.8325410997495,None,1.5199501998722553,2126.3799825999886,None,2126.9024131996557,None,2126.9024131996557,None,n,0.9302439000457525,2126.9024131996557,None,0.9302439000457525,,,93Sing,001,2022_Nov_21_1146,ProdSingRedoBetween,2021.2.3,59.98123767013078,
,,,,134,0,134,0,,,,,,,,,,,,,,,,,,,,,,2131.101465399377,None,,,,,,,,,,,,,,,,,interior,11,135,sing,old,yellow,2128.3702512998134,None,2128.3702512998134,None,6,1.670350099913776,2128.3702512998134,None,1.670350099913776,2130.0717537999153,None,2130.587609199807,None,2130.587609199807,None,r,0.4931207997724414,2130.587609199807,None,0.4931207997724414,,,93Sing,001,2022_Nov_21_1146,ProdSingRedoBetween,2021.2.3,59.98123767013078,
,,,,135,0,135,0,,,,,,,,,,,,,,,,,,,,,,2134.3726705992594,None,,,,,,,,,,,,,,,,,atmosphere,175,136,sing,new,null,2131.6256017992273,None,2131.6256017992273,None,1,1.2788993995636702,2131.6256017992273,None,1.2788993995636702,2132.9471154995263,None,2133.451563199982,None,2133.451563199982,None,n,0.8930226992815733,2133.451563199982,None,0.8930226992815733,,,93Sing,001,2022_Nov_21_1146,ProdSingRedoBetween,2021.2.3,59.98123767013078,
,,,,136,0,136,0,,,,,,,,,,,,,,,,,,,,,,2138.4596681995317,None,,,,,,,,,,,,,,,,,article,41,137,sing,old,blue,2134.88656409923,None,2134.88656409923,None,6,1.6742493007332087,2134.88656409923,None,1.6742493007332087,2136.591792099178,None,2137.1124108992517,None,2137.1124108992517,None,f,1.3283922001719475,2137.1124108992517,None,1.3283922001719475,,,93Sing,001,2022_Nov_21_1146,ProdSingRedoBetween,2021.2.3,59.98123767013078,
,,,,137,0,137,0,,,,,,,,,,,,,,,,,,,,,,2146.58146919962,None,,,,,,,,,,,,,,,,,territory,48,138,sing,old,blue,2138.9812379991636,None,2138.9812379991636,None,6,4.85932660009712,2138.9812379991636,None,4.85932660009712,2143.863167000003,None,2144.3696510000154,None,2144.3696510000154,None,r,2.1908368999138474,2144.3696510000154,None,2.1908368999138474,,,93Sing,001,2022_Nov_21_1146,ProdSingRedoBetween,2021.2.3,59.98123767013078,
,,,,138,0,138,0,,,,,,,,,,,,,,,,,,,,,,2150.2016850998625,None,,,,,,,,,,,,,,,,,shape,74,139,sing,old,red,2147.089903799817,None,2147.089903799817,None,6,2.2627230007201433,2147.089903799817,None,2.2627230007201433,2149.3724778993055,None,2149.884852499701,None,2149.884852499701,None,r,0.2919254004955292,2149.884852499701,None,0.2919254004955292,,,93Sing,001,2022_Nov_21_1146,ProdSingRedoBetween,2021.2.3,59.98123767013078,
,,,,139,0,139,0,,,,,,,,,,,,,,,,,,,,,,2156.043077999726,None,,,,,,,,,,,,,,,,,sight,12,140,sing,old,yellow,2150.7102031996474,None,2150.7102031996474,None,1,1.8503469992429018,2150.7102031996474,None,1.8503469992429018,2152.5897928997874,None,2153.1047441996634,None,2153.1047441996634,None,r,2.9197394996881485,2153.1047441996634,None,2.9197394996881485,,,93Sing,001,2022_Nov_21_1146,ProdSingRedoBetween,2021.2.3,59.98123767013078,
,,,,140,0,140,0,,,,,,,,,,,,,,,,,,,,,,2160.061579699628,None,,,,,,,,,,,,,,,,,point,31,141,sing,old,blue,2156.5681394999847,None,2156.5681394999847,None,1,1.632409599609673,2156.5681394999847,None,1.632409599609673,2158.2314270995557,None,2158.748407399282,None,2158.748407399282,None,n,1.2842573998495936,2158.748407399282,None,1.2842573998495936,,,93Sing,001,2022_Nov_21_1146,ProdSingRedoBetween,2021.2.3,59.98123767013078,
,,,,141,0,141,0,,,,,,,,,,,,,,,,,,,,,,2164.58291419968,None,,,,,,,,,,,,,,,,,council,57,142,sing,old,blue,2160.563484199345,None,2160.563484199345,None,6,1.8931114999577403,2160.563484199345,None,1.8931114999577403,2162.4838918996975,None,2162.9979644995183,None,2162.9979644995183,None,r,1.5545993000268936,2162.9979644995183,None,1.5545993000268936,,,93Sing,001,2022_Nov_21_1146,ProdSingRedoBetween,2021.2.3,59.98123767013078,
,,,,142,0,142,0,,,,,,,,,,,,,,,,,,,,,,2168.5033195996657,None,,,,,,,,,,,,,,,,,listen,44,143,sing,old,blue,2165.0860659992322,None,2165.0860659992322,None,6,2.3466178998351097,2165.0860659992322,None,2.3466178998351097,2167.4523917995393,None,2167.960657099262,None,2167.960657099262,None,r,0.5117852995172143,2167.960657099262,None,0.5117852995172143,,,93Sing,001,2022_Nov_21_1146,ProdSingRedoBetween,2021.2.3,59.98123767013078,
,,,,143,0,143,0,,,,,,,,,,,,,,,,,,,,,,2172.19404309988,None,,,,,,,,,,,,,,,,,incident,61,144,sing,old,red,2169.009539399296,None,2169.009539399296,None,6,1.6709952997043729,2169.009539399296,None,1.6709952997043729,2170.70556189958,None,2171.211115299724,None,2171.211115299724,None,r,0.9576930999755859,2171.211115299724,None,0.9576930999755859,,,93Sing,001,2022_Nov_21_1146,ProdSingRedoBetween,2021.2.3,59.98123767013078,
,,,,144,0,144,0,,,,,,,,,,,,,,,,,,,,,,2176.0439392998815,None,,,,,,,,,,,,,,,,,spoke,34,145,sing,old,blue,2172.7186292000115,None,2172.7186292000115,None,6,2.345951000228524,2172.7186292000115,None,2.345951000228524,2175.0968269994482,None,2175.6105247996747,None,2175.6105247996747,None,r,0.41403450071811676,2175.6105247996747,None,0.41403450071811676,,,93Sing,001,2022_Nov_21_1146,ProdSingRedoBetween,2021.2.3,59.98123767013078,
,,,,145,0,145,0,,,,,,,,,,,,,,,,,,,,,,2181.4828844992444,None,,,,,,,,,,,,,,,,,produce,107,146,sing,new,null,2176.5495502995327,None,2176.5495502995327,None,4,3.963071799837053,2176.5495502995327,None,3.963071799837053,2180.5382858999074,None,2181.0498851994053,None,2181.0498851994053,None,f,0.4067281000316143,2181.0498851994053,None,0.4067281000316143,,,93Sing,001,2022_Nov_21_1146,ProdSingRedoBetween,2021.2.3,59.98123767013078,
,,,,146,0,146,0,,,,,,,,,,,,,,,,,,,,,,2185.460718699731,None,,,,,,,,,,,,,,,,,group,6,147,sing,old,yellow,2181.994232199155,None,2181.994232199155,None,3,1.686150100082159,2181.994232199155,None,1.686150100082159,2183.7030319999903,None,2184.2046757992357,None,2184.2046757992357,None,n,1.2197424992918968,2184.2046757992357,None,1.2197424992918968,,,93Sing,001,2022_Nov_21_1146,ProdSingRedoBetween,2021.2.3,59.98123767013078,
,,,,147,0,147,0,,,,,,,,,,,,,,,,,,,,,,2189.9247192991897,None,,,,,,,,,,,,,,,,,cover,154,148,sing,new,null,2185.9713903991506,None,2185.9713903991506,None,3,3.125151500105858,2185.9713903991506,None,3.125151500105858,2189.129458299838,None,2189.64121149946,None,2189.64121149946,None,f,0.2552959993481636,2189.64121149946,None,0.2552959993481636,,,93Sing,001,2022_Nov_21_1146,ProdSingRedoBetween,2021.2.3,59.98123767013078,
,,,,148,0,148,0,,,,,,,,,,,,,,,,,,,,,,2197.7993010999635,None,,,,,,,,,,,,,,,,,property,125,149,sing,new,null,2190.435073999688,None,2190.435073999688,None,3,4.261422299779952,2190.435073999688,None,4.261422299779952,2194.717152099125,None,2195.2305035991594,None,2195.2305035991594,None,f,2.5539734000340104,2195.2305035991594,None,2.5539734000340104,,,93Sing,001,2022_Nov_21_1146,ProdSingRedoBetween,2021.2.3,59.98123767013078,
,,,,149,0,149,0,,,,,,,,,,,,,,,,,,,,,,2200.7855366999283,None,,,,,,,,,,,,,,,,,state,71,150,sing,old,red,2198.3057861998677,None,2198.3057861998677,None,1,1.8148237997666001,2198.3057861998677,None,1.8148237997666001,2200.1546645993367,None,2200.673243599944,None,2200.673243599944,None,n,0.08738069981336594,2200.673243599944,None,0.08738069981336594,,,93Sing,001,2022_Nov_21_1146,ProdSingRedoBetween,2021.2.3,59.98123767013078,
,,,,150,0,150,0,,,,,,,,,,,,,,,,,,,,,,2203.0885605998337,None,,,,,,,,,,,,,,,,,oxygen,137,151,sing,new,null,2201.2937215995044,None,2201.2937215995044,None,1,1.0347637999802828,2201.2937215995044,None,1.0347637999802828,2202.3546651992947,None,2202.8550223996863,None,2202.8550223996863,None,n,0.2095460994169116,2202.8550223996863,None,0.2095460994169116,,,93Sing,001,2022_Nov_21_1146,ProdSingRedoBetween,2021.2.3,59.98123767013078,
,,,,151,0,151,0,,,,,,,,,,,,,,,,,,,,,,2205.940442099236,None,,,,,,,,,,,,,,,,,force,172,152,sing,new,null,2203.5922908997163,None,2203.5922908997163,None,1,1.5121646001935005,2203.5922908997163,None,1.5121646001935005,2205.1251999996603,None,2205.645764200017,None,2205.645764200017,None,n,0.2666654996573925,2205.645764200017,None,0.2666654996573925,,,93Sing,001,2022_Nov_21_1146,ProdSingRedoBetween,2021.2.3,59.98123767013078,
,,,,152,0,152,0,,,,,,,,,,,,,,,,,,,,,,2209.1616797996685,None,,,,,,,,,,,,,,,,,discovery,35,153,sing,old,blue,2206.4531214991584,None,2206.4531214991584,None,6,1.7153481002897024,2206.4531214991584,None,1.7153481002897024,2208.195110999979,None,2208.713652299717,None,2208.713652299717,None,r,0.43092979956418276,2208.713652299717,None,0.43092979956418276,,,93Sing,001,2022_Nov_21_1146,ProdSingRedoBetween,2021.2.3,59.98123767013078,
,,,,153,0,153,0,,,,,,,,,,,,,,,,,,,,,,2213.364640499465,None,,,,,,,,,,,,,,,,,design,29,154,sing,old,blue,2209.6643392993137,None,2209.6643392993137,None,6,3.016085499897599,2209.6643392993137,None,3.016085499897599,2212.6996143991128,None,2213.217914299108,None,2213.217914299108,None,r,0.11849789973348379,2213.217914299108,None,0.11849789973348379,,,93Sing,001,2022_Nov_21_1146,ProdSingRedoBetween,2021.2.3,59.98123767013078,
,,,,154,0,154,0,,,,,,,,,,,,,,,,,,,,,,2217.5022174995393,None,,,,,,,,,,,,,,,,,attack,4,155,sing,old,yellow,2213.8653132999316,None,2213.8653132999316,None,4,2.183223900385201,2213.8653132999316,None,2.183223900385201,2216.0719494000077,None,2216.5857428992167,None,2216.5857428992167,None,f,0.8947172006592155,2216.5857428992167,None,0.8947172006592155,,,93Sing,001,2022_Nov_21_1146,ProdSingRedoBetween,2021.2.3,59.98123767013078,
,,,,155,0,155,0,,,,,,,,,,,,,,,,,,,,,,2220.740101799369,None,,,,,,,,,,,,,,,,,front,149,156,sing,new,null,2218.009917599149,None,2218.009917599149,None,3,1.9104901002719998,2218.009917599149,None,1.9104901002719998,2219.939394599758,None,2220.450894800015,None,2220.450894800015,None,n,0.26166060008108616,2220.450894800015,None,0.26166060008108616,,,93Sing,001,2022_Nov_21_1146,ProdSingRedoBetween,2021.2.3,59.98123767013078,
,,,,156,0,156,0,,,,,,,,,,,,,,,,,,,,,,2223.6418121997267,None,,,,,,,,,,,,,,,,,crime,115,157,sing,new,null,2221.2394799999893,None,2221.2394799999893,None,2,1.680986899882555,2221.2394799999893,None,1.680986899882555,2222.9419159991667,None,2223.445513399318,None,2223.445513399318,None,n,0.17900290060788393,2223.445513399318,None,0.17900290060788393,,,93Sing,001,2022_Nov_21_1146,ProdSingRedoBetween,2021.2.3,59.98123767013078,
,,,,157,0,157,0,,,,,,,,,,,,,,,,,,,,,,2227.278676999733,None,,,,,,,,,,,,,,,,,track,54,158,sing,old,blue,2224.1450042994693,None,2224.1450042994693,None,2,1.759315500035882,2224.1450042994693,None,1.759315500035882,2225.9316080994904,None,2226.4444565996528,None,2226.4444565996528,None,n,0.8119711000472307,2226.4444565996528,None,0.8119711000472307,,,93Sing,001,2022_Nov_21_1146,ProdSingRedoBetween,2021.2.3,59.98123767013078,
,,,,158,0,158,0,,,,,,,,,,,,,,,,,,,,,,2230.1653014998883,None,,,,,,,,,,,,,,,,,entrance,87,159,sing,old,red,2227.7856083996594,None,2227.7856083996594,None,6,1.6708205007016659,2227.7856083996594,None,1.6708205007016659,2229.483832599595,None,2229.9980809995905,None,2229.9980809995905,None,r,0.138400100171566,2229.9980809995905,None,0.138400100171566,,,93Sing,001,2022_Nov_21_1146,ProdSingRedoBetween,2021.2.3,59.98123767013078,
,,,,159,0,159,0,,,,,,,,,,,,,,,,,,,,,,2233.48479779996,None,,,,,,,,,,,,,,,,,fight,33,160,sing,old,blue,2230.6759689999744,None,2230.6759689999744,None,6,2.148396300151944,2230.6759689999744,None,2.148396300151944,2232.8506247997284,None,2233.3544231997803,None,2233.3544231997803,None,r,0.11000419966876507,2233.3544231997803,None,0.11000419966876507,,,93Sing,001,2022_Nov_21_1146,ProdSingRedoBetween,2021.2.3,59.98123767013078,
,,,,160,0,160,0,,,,,,,,,,,,,,,,,,,,,,2236.5044850995764,None,,,,,,,,,,,,,,,,,position,163,161,sing,new,null,2233.9967866996303,None,2233.9967866996303,None,4,1.8996550999581814,2233.9967866996303,None,1.8996550999581814,2235.9219299992546,None,2236.4255334995687,None,2236.4255334995687,None,f,0.054916899651288986,2236.4255334995687,None,0.054916899651288986,,,93Sing,001,2022_Nov_21_1146,ProdSingRedoBetween,2021.2.3,59.98123767013078,
,,,,161,0,161,0,,,,,,,,,,,,,,,,,,,,,,2239.7409808998927,None,,,,,,,,,,,,,,,,,degree,136,162,sing,new,null,2237.016186199151,None,2237.016186199151,None,1,1.6482766000553966,2237.016186199151,None,1.6482766000553966,2238.694252099842,None,2239.2072666995227,None,2239.2072666995227,None,n,0.5051508992910385,2239.2072666995227,None,0.5051508992910385,,,93Sing,001,2022_Nov_21_1146,ProdSingRedoBetween,2021.2.3,59.98123767013078,
,,,,162,0,162,0,,,,,,,,,,,,,,,,,,,,,,2244.1120143998414,None,,,,,,,,,,,,,,,,,universal,116,163,sing,new,null,2240.2666929997504,None,2240.2666929997504,None,3,1.7256595995277166,2240.2666929997504,None,1.7256595995277166,2242.0122351991013,None,2242.533231199719,None,2242.533231199719,None,f,1.5551578998565674,2242.533231199719,None,1.5551578998565674,,,93Sing,001,2022_Nov_21_1146,ProdSingRedoBetween,2021.2.3,59.98123767013078,
,,,,163,0,163,0,,,,,,,,,,,,,,,,,,,,,,2247.8158319992945,None,,,,,,,,,,,,,,,,,substance,17,164,sing,old,yellow,2244.6230641994625,None,2244.6230641994625,None,4,2.617311800830066,2244.6230641994625,None,2.617311800830066,2247.2679982995614,None,2247.787188699469,None,2247.787188699469,None,f,0.013256499543786049,2247.787188699469,None,0.013256499543786049,,,93Sing,001,2022_Nov_21_1146,ProdSingRedoBetween,2021.2.3,59.98123767013078,
,,,,164,0,164,0,,,,,,,,,,,,,,,,,,,,,,2252.173187399283,None,,,,,,,,,,,,,,,,,empty,97,165,sing,new,null,2248.324180899188,None,2248.324180899188,None,3,3.052358999848366,2248.324180899188,None,3.052358999848366,2251.4071090994403,None,2251.9284083992243,None,2251.9284083992243,None,n,0.22395029943436384,2251.9284083992243,None,0.22395029943436384,,,93Sing,001,2022_Nov_21_1146,ProdSingRedoBetween,2021.2.3,59.98123767013078,
,,,,165,0,165,0,,,,,,,,,,,,,,,,,,,,,,2255.0229409998283,None,,,,,,,,,,,,,,,,,trend,177,166,sing,new,null,2252.6874011997133,None,2252.6874011997133,None,2,1.4409560998901725,2252.6874011997133,None,1.4409560998901725,2254.1563239991665,None,2254.656092699617,None,2254.656092699617,None,n,0.3443139996379614,2254.656092699617,None,0.3443139996379614,,,93Sing,001,2022_Nov_21_1146,ProdSingRedoBetween,2021.2.3,59.98123767013078,
,,,,166,0,166,0,,,,,,,,,,,,,,,,,,,,,,2260.2782378997654,None,,,,,,,,,,,,,,,,,murder,150,167,sing,new,null,2255.5266270991415,None,2255.5266270991415,None,1,3.8896941002458334,2255.5266270991415,None,3.8896941002458334,2259.4542066995054,None,2259.9610447995365,None,2259.9610447995365,None,n,0.28732649981975555,2259.9610447995365,None,0.28732649981975555,,,93Sing,001,2022_Nov_21_1146,ProdSingRedoBetween,2021.2.3,59.98123767013078,
,,,,167,0,167,0,,,,,,,,,,,,,,,,,,,,,,2263.1978323999792,None,,,,,,,,,,,,,,,,,institute,66,168,sing,old,red,2260.7874983996153,None,2260.7874983996153,None,6,1.7328481003642082,2260.7874983996153,None,1.7328481003642082,2262.5496531995013,None,2263.0696342997253,None,2263.0696342997253,None,f,0.09877029992640018,2263.0696342997253,None,0.09877029992640018,,,93Sing,001,2022_Nov_21_1146,ProdSingRedoBetween,2021.2.3,59.98123767013078,
,,,,168,0,168,0,,,,,,,,,,,,,,,,,,,,,,2266.6010936992243,None,,,,,,,,,,,,,,,,,private,178,169,sing,new,null,2263.708546199836,None,2263.708546199836,None,3,2.1398529997095466,2263.708546199836,None,2.1398529997095466,2265.8754214998335,None,2266.3908273996785,None,2266.3908273996785,None,n,0.19347089994698763,2266.3908273996785,None,0.19347089994698763,,,93Sing,001,2022_Nov_21_1146,ProdSingRedoBetween,2021.2.3,59.98123767013078,
,,,,169,0,169,0,,,,,,,,,,,,,,,,,,,,,,2269.3205393999815,None,,,,,,,,,,,,,,,,,primary,179,170,sing,new,null,2267.1047834996134,None,2267.1047834996134,None,2,1.4555336004123092,2267.1047834996134,None,1.4555336004123092,2268.5865590991452,None,2269.0936765000224,None,2269.0936765000224,None,n,0.2027155002579093,2269.0936765000224,None,0.2027155002579093,,,93Sing,001,2022_Nov_21_1146,ProdSingRedoBetween,2021.2.3,59.98123767013078,
,,,,170,0,170,0,,,,,,,,,,,,,,,,,,,,,,2273.3412372991443,None,,,,,,,,,,,,,,,,,patient,26,171,sing,old,yellow,2269.8344439994544,None,2269.8344439994544,None,6,1.4860310005024076,2269.8344439994544,None,1.4860310005024076,2271.3423982998356,None,2271.862025199458,None,2271.862025199458,None,r,1.4583479007706046,2271.862025199458,None,1.4583479007706046,,,93Sing,001,2022_Nov_21_1146,ProdSingRedoBetween,2021.2.3,59.98123767013078,
,,,,171,0,171,0,,,,,,,,,,,,,,,,,,,,,,2276.811328799464,None,,,,,,,,,,,,,,,,,corner,145,172,sing,new,null,2273.846173199825,None,2273.846173199825,None,2,2.010124799795449,2273.846173199825,None,2.010124799795449,2275.8798225997016,None,2276.3943953998387,None,2276.3943953998387,None,f,0.3899066001176834,2276.3943953998387,None,0.3899066001176834,,,93Sing,001,2022_Nov_21_1146,ProdSingRedoBetween,2021.2.3,59.98123767013078,
,,,,172,0,172,0,,,,,,,,,,,,,,,,,,,,,,2281.5825176993385,None,,,,,,,,,,,,,,,,,permit,30,173,sing,old,blue,2277.3426084993407,None,2277.3426084993407,None,6,1.649952500127256,2277.3426084993407,None,1.649952500127256,2279.0233771000057,None,2279.53066009935,None,2279.53066009935,None,r,2.0296682994812727,2279.53066009935,None,2.0296682994812727,,,93Sing,001,2022_Nov_21_1146,ProdSingRedoBetween,2021.2.3,59.98123767013078,
,,,,173,0,173,0,,,,,,,,,,,,,,,,,,,,,,2287.621918199584,None,,,,,,,,,,,,,,,,,comedy,68,174,sing,old,red,2282.091257799417,None,2282.091257799417,None,2,3.253059799782932,2282.091257799417,None,3.253059799782932,2285.371285699308,None,2285.877467399463,None,2285.877467399463,None,f,1.7230930998921394,2285.877467399463,None,1.7230930998921394,,,93Sing,001,2022_Nov_21_1146,ProdSingRedoBetween,2021.2.3,59.98123767013078,
,,,,174,0,174,0,,,,,,,,,,,,,,,,,,,,,,2290.693671999499,None,,,,,,,,,,,,,,,,,order,156,175,sing,new,null,2288.1310026999563,None,2288.1310026999563,None,4,1.6132904002442956,2288.1310026999563,None,1.6132904002442956,2289.7748645991087,None,2290.27824159991,None,2290.27824159991,None,f,0.39415259938687086,2290.27824159991,None,0.39415259938687086,,,93Sing,001,2022_Nov_21_1146,ProdSingRedoBetween,2021.2.3,59.98123767013078,
,,,,175,0,175,0,,,,,,,,,,,,,,,,,,,,,,2293.644784499891,None,,,,,,,,,,,,,,,,,meeting,143,176,sing,new,null,2291.2184072993696,None,2291.2184072993696,None,2,1.661910600028932,2291.2184072993696,None,1.661910600028932,2292.9113403996453,None,2293.4207412991673,None,2293.4207412991673,None,n,0.1956318998709321,2293.4207412991673,None,0.1956318998709321,,,93Sing,001,2022_Nov_21_1146,ProdSingRedoBetween,2021.2.3,59.98123767013078,
,,,,176,0,176,0,,,,,,,,,,,,,,,,,,,,,,2296.99770839978,None,,,,,,,,,,,,,,,,,clean,111,177,sing,new,null,2294.146959799342,None,2294.146959799342,None,2,1.165382499806583,2294.146959799342,None,1.165382499806583,2295.3332031993195,None,2295.8471498992294,None,2295.8471498992294,None,n,1.1292067002505064,2295.8471498992294,None,1.1292067002505064,,,93Sing,001,2022_Nov_21_1146,ProdSingRedoBetween,2021.2.3,59.98123767013078,
