StudyLoop.thisRepN,StudyLoop.thisTrialN,StudyLoop.thisN,StudyLoop.thisIndex,TestLoop.thisRepN,TestLoop.thisTrialN,TestLoop.thisN,TestLoop.thisIndex,textCondition.started,textCondition.stopped,keyCondition.keys,keyCondition.rt,keyCondition.started,keyCondition.stopped,Condition,textWelcome.started,textWelcome.stopped,keyWelcome.keys,keyWelcome.rt,keyWelcome.started,keyWelcome.stopped,textAloud.started,textAloud.stopped,textSilent.started,textSilent.stopped,textSing.started,textSing.stopped,conditional_text.started,conditional_text.stopped,textBlank500.started,textBlank500.stopped,study_word,study_num,study_order,study_type,word_color,textStudy.started,textStudy.stopped,keyStudy.keys,keyStudy.started,keyStudy.stopped,textTestInstructions.started,textTestInstructions.stopped,key_resp_3.keys,key_resp_3.rt,key_resp_3.started,key_resp_3.stopped,test_word,test_num,test_order,test_condition,old_new_test,test_word_original_color,textConf.started,textConf.stopped,textConfScale.started,textConfScale.stopped,keyConf.keys,keyConf.rt,keyConf.started,keyConf.stopped,confidence response time,textTestBlank.started,textTestBlank.stopped,textRKN.started,textRKN.stopped,textRKNScale.started,textRKNScale.stopped,keyRKN.keys,keyRKN.rt,keyRKN.started,keyRKN.stopped,rkn response time,textEnd.started,textEnd.stopped,participant,session,date,expName,psychopyVersion,frameRate,
,,,,,,,,20.121124499477446,None,b,1.3222564002498984,20.121124499477446,None,,,,,,,,,,,,,,,,,,,,,,,,,,,,,,,,,,,,,,,,,,,,,,,,,,,,,,,,,,,,,,94Aloud,001,2022_Nov_21_1347,ProdSingRedoBetween,2021.2.3,60.034856321279314,
,,,,,,,,,,,,,,AloudTest,21.472497699782252,None,space,818.9614925002679,21.472497699782252,None,,,,,,,,,,,,,,,,,,,,,,,,,,,,,,,,,,,,,,,,,,,,,,,,,,,,,,,94Aloud,001,2022_Nov_21_1347,ProdSingRedoBetween,2021.2.3,60.034856321279314,
0,0,0,0,,,,,,,,,,,,,,,,,,21.472497699782252,None,21.472497699782252,None,21.472497699782252,None,21.472497699782252,None,842.9788125995547,None,court,71,1,aloud,red,840.9698048001155,None,None,840.9698048001155,None,,,,,,,,,,,,,,,,,,,,,,,,,,,,,,,,,,,94Aloud,001,2022_Nov_21_1347,ProdSingRedoBetween,2021.2.3,60.034856321279314,
1,0,1,0,,,,,,,,,,,,,,,,,,,,,,,,,,845.4813297996297,None,company,0,2,aloud,yellow,843.4816791992635,None,None,843.4816791992635,None,,,,,,,,,,,,,,,,,,,,,,,,,,,,,,,,,,,94Aloud,001,2022_Nov_21_1347,ProdSingRedoBetween,2021.2.3,60.034856321279314,
2,0,2,0,,,,,,,,,,,,,,,,,,,,,,,,,,848.0004079993814,None,testimony,24,3,aloud,yellow,845.9856329998001,None,None,845.9856329998001,None,,,,,,,,,,,,,,,,,,,,,,,,,,,,,,,,,,,94Aloud,001,2022_Nov_21_1347,ProdSingRedoBetween,2021.2.3,60.034856321279314,
3,0,3,0,,,,,,,,,,,,,,,,,,,,,,,,,,850.5194018995389,None,collection,26,4,aloud,yellow,848.5067528998479,None,None,848.5067528998479,None,,,,,,,,,,,,,,,,,,,,,,,,,,,,,,,,,,,94Aloud,001,2022_Nov_21_1347,ProdSingRedoBetween,2021.2.3,60.034856321279314,
4,0,4,0,,,,,,,,,,,,,,,,,,,,,,,,,,853.0217941999435,None,suspect,47,5,aloud,blue,851.0200635995716,None,None,851.0200635995716,None,,,,,,,,,,,,,,,,,,,,,,,,,,,,,,,,,,,94Aloud,001,2022_Nov_21_1347,ProdSingRedoBetween,2021.2.3,60.034856321279314,
5,0,5,0,,,,,,,,,,,,,,,,,,,,,,,,,,855.5245639998466,None,damage,27,6,aloud,yellow,853.5225062994286,None,None,853.5225062994286,None,,,,,,,,,,,,,,,,,,,,,,,,,,,,,,,,,,,94Aloud,001,2022_Nov_21_1347,ProdSingRedoBetween,2021.2.3,60.034856321279314,
6,0,6,0,,,,,,,,,,,,,,,,,,,,,,,,,,858.0270819999278,None,guest,36,7,aloud,blue,856.0260668992996,None,None,856.0260668992996,None,,,,,,,,,,,,,,,,,,,,,,,,,,,,,,,,,,,94Aloud,001,2022_Nov_21_1347,ProdSingRedoBetween,2021.2.3,60.034856321279314,
7,0,7,0,,,,,,,,,,,,,,,,,,,,,,,,,,860.5459231995046,None,emergency,40,8,aloud,blue,858.5310802999884,None,None,858.5310802999884,None,,,,,,,,,,,,,,,,,,,,,,,,,,,,,,,,,,,94Aloud,001,2022_Nov_21_1347,ProdSingRedoBetween,2021.2.3,60.034856321279314,
8,0,8,0,,,,,,,,,,,,,,,,,,,,,,,,,,863.0486270999536,None,appeal,21,9,aloud,yellow,861.0480094999075,None,None,861.0480094999075,None,,,,,,,,,,,,,,,,,,,,,,,,,,,,,,,,,,,94Aloud,001,2022_Nov_21_1347,ProdSingRedoBetween,2021.2.3,60.034856321279314,
9,0,9,0,,,,,,,,,,,,,,,,,,,,,,,,,,865.5677678994834,None,property,88,10,aloud,red,863.5536512993276,None,None,863.5536512993276,None,,,,,,,,,,,,,,,,,,,,,,,,,,,,,,,,,,,94Aloud,001,2022_Nov_21_1347,ProdSingRedoBetween,2021.2.3,60.034856321279314,
10,0,10,0,,,,,,,,,,,,,,,,,,,,,,,,,,868.0871428996325,None,concern,16,11,aloud,yellow,866.0715506998822,None,None,866.0715506998822,None,,,,,,,,,,,,,,,,,,,,,,,,,,,,,,,,,,,94Aloud,001,2022_Nov_21_1347,ProdSingRedoBetween,2021.2.3,60.034856321279314,
11,0,11,0,,,,,,,,,,,,,,,,,,,,,,,,,,870.6061205994338,None,watch,64,12,aloud,red,868.5981398997828,None,None,868.5981398997828,None,,,,,,,,,,,,,,,,,,,,,,,,,,,,,,,,,,,94Aloud,001,2022_Nov_21_1347,ProdSingRedoBetween,2021.2.3,60.034856321279314,
12,0,12,0,,,,,,,,,,,,,,,,,,,,,,,,,,873.1086919996887,None,century,11,13,aloud,yellow,871.1082103997469,None,None,871.1082103997469,None,,,,,,,,,,,,,,,,,,,,,,,,,,,,,,,,,,,94Aloud,001,2022_Nov_21_1347,ProdSingRedoBetween,2021.2.3,60.034856321279314,
13,0,13,0,,,,,,,,,,,,,,,,,,,,,,,,,,875.6276265000924,None,welcome,2,14,aloud,yellow,873.6140764998272,None,None,873.6140764998272,None,,,,,,,,,,,,,,,,,,,,,,,,,,,,,,,,,,,94Aloud,001,2022_Nov_21_1347,ProdSingRedoBetween,2021.2.3,60.034856321279314,
14,0,14,0,,,,,,,,,,,,,,,,,,,,,,,,,,878.1300793001428,None,build,84,15,aloud,red,876.1283297995105,None,None,876.1283297995105,None,,,,,,,,,,,,,,,,,,,,,,,,,,,,,,,,,,,94Aloud,001,2022_Nov_21_1347,ProdSingRedoBetween,2021.2.3,60.034856321279314,
15,0,15,0,,,,,,,,,,,,,,,,,,,,,,,,,,880.6495023993775,None,course,89,16,aloud,red,878.6358972992748,None,None,878.6358972992748,None,,,,,,,,,,,,,,,,,,,,,,,,,,,,,,,,,,,94Aloud,001,2022_Nov_21_1347,ProdSingRedoBetween,2021.2.3,60.034856321279314,
16,0,16,0,,,,,,,,,,,,,,,,,,,,,,,,,,883.1518434993923,None,escape,76,17,aloud,red,881.1516097998247,None,None,881.1516097998247,None,,,,,,,,,,,,,,,,,,,,,,,,,,,,,,,,,,,94Aloud,001,2022_Nov_21_1347,ProdSingRedoBetween,2021.2.3,60.034856321279314,
17,0,17,0,,,,,,,,,,,,,,,,,,,,,,,,,,885.6713876994327,None,shape,67,18,aloud,red,883.6556928995997,None,None,883.6556928995997,None,,,,,,,,,,,,,,,,,,,,,,,,,,,,,,,,,,,94Aloud,001,2022_Nov_21_1347,ProdSingRedoBetween,2021.2.3,60.034856321279314,
18,0,18,0,,,,,,,,,,,,,,,,,,,,,,,,,,888.1738109998405,None,plane,28,19,aloud,yellow,886.1716048996896,None,None,886.1716048996896,None,,,,,,,,,,,,,,,,,,,,,,,,,,,,,,,,,,,94Aloud,001,2022_Nov_21_1347,ProdSingRedoBetween,2021.2.3,60.034856321279314,
19,0,19,0,,,,,,,,,,,,,,,,,,,,,,,,,,890.6760398000479,None,session,31,20,aloud,blue,888.6743155997247,None,None,888.6743155997247,None,,,,,,,,,,,,,,,,,,,,,,,,,,,,,,,,,,,94Aloud,001,2022_Nov_21_1347,ProdSingRedoBetween,2021.2.3,60.034856321279314,
20,0,20,0,,,,,,,,,,,,,,,,,,,,,,,,,,893.1788300992921,None,crisis,44,21,aloud,blue,891.179686400108,None,None,891.179686400108,None,,,,,,,,,,,,,,,,,,,,,,,,,,,,,,,,,,,94Aloud,001,2022_Nov_21_1347,ProdSingRedoBetween,2021.2.3,60.034856321279314,
21,0,21,0,,,,,,,,,,,,,,,,,,,,,,,,,,895.681355599314,None,enemy,22,22,aloud,yellow,893.6796151995659,None,None,893.6796151995659,None,,,,,,,,,,,,,,,,,,,,,,,,,,,,,,,,,,,94Aloud,001,2022_Nov_21_1347,ProdSingRedoBetween,2021.2.3,60.034856321279314,
22,0,22,0,,,,,,,,,,,,,,,,,,,,,,,,,,898.2005292000249,None,force,60,23,aloud,red,896.1856345999986,None,None,896.1856345999986,None,,,,,,,,,,,,,,,,,,,,,,,,,,,,,,,,,,,94Aloud,001,2022_Nov_21_1347,ProdSingRedoBetween,2021.2.3,60.034856321279314,
23,0,23,0,,,,,,,,,,,,,,,,,,,,,,,,,,900.7194694001228,None,atmosphere,66,24,aloud,red,898.7057686997578,None,None,898.7057686997578,None,,,,,,,,,,,,,,,,,,,,,,,,,,,,,,,,,,,94Aloud,001,2022_Nov_21_1347,ProdSingRedoBetween,2021.2.3,60.034856321279314,
24,0,24,0,,,,,,,,,,,,,,,,,,,,,,,,,,903.2388902995735,None,range,48,25,aloud,blue,901.223637599498,None,None,901.223637599498,None,,,,,,,,,,,,,,,,,,,,,,,,,,,,,,,,,,,94Aloud,001,2022_Nov_21_1347,ProdSingRedoBetween,2021.2.3,60.034856321279314,
25,0,25,0,,,,,,,,,,,,,,,,,,,,,,,,,,905.7410973999649,None,accident,54,26,aloud,blue,903.7393161999062,None,None,903.7393161999062,None,,,,,,,,,,,,,,,,,,,,,,,,,,,,,,,,,,,94Aloud,001,2022_Nov_21_1347,ProdSingRedoBetween,2021.2.3,60.034856321279314,
26,0,26,0,,,,,,,,,,,,,,,,,,,,,,,,,,908.260638599284,None,frank,80,27,aloud,red,906.2483304999769,None,None,906.2483304999769,None,,,,,,,,,,,,,,,,,,,,,,,,,,,,,,,,,,,94Aloud,001,2022_Nov_21_1347,ProdSingRedoBetween,2021.2.3,60.034856321279314,
27,0,27,0,,,,,,,,,,,,,,,,,,,,,,,,,,910.7629854995757,None,taste,56,28,aloud,blue,908.7636518999934,None,None,908.7636518999934,None,,,,,,,,,,,,,,,,,,,,,,,,,,,,,,,,,,,94Aloud,001,2022_Nov_21_1347,ProdSingRedoBetween,2021.2.3,60.034856321279314,
28,0,28,0,,,,,,,,,,,,,,,,,,,,,,,,,,913.2820966998115,None,public,19,29,aloud,yellow,911.2690776996315,None,None,911.2690776996315,None,,,,,,,,,,,,,,,,,,,,,,,,,,,,,,,,,,,94Aloud,001,2022_Nov_21_1347,ProdSingRedoBetween,2021.2.3,60.034856321279314,
29,0,29,0,,,,,,,,,,,,,,,,,,,,,,,,,,915.8015703996643,None,election,3,30,aloud,yellow,913.7886015996337,None,None,913.7886015996337,None,,,,,,,,,,,,,,,,,,,,,,,,,,,,,,,,,,,94Aloud,001,2022_Nov_21_1347,ProdSingRedoBetween,2021.2.3,60.034856321279314,
30,0,30,0,,,,,,,,,,,,,,,,,,,,,,,,,,918.3036587992683,None,junior,41,31,aloud,blue,916.3041079994291,None,None,916.3041079994291,None,,,,,,,,,,,,,,,,,,,,,,,,,,,,,,,,,,,94Aloud,001,2022_Nov_21_1347,ProdSingRedoBetween,2021.2.3,60.034856321279314,
31,0,31,0,,,,,,,,,,,,,,,,,,,,,,,,,,920.8060173997656,None,patient,49,32,aloud,blue,918.8066763998941,None,None,918.8066763998941,None,,,,,,,,,,,,,,,,,,,,,,,,,,,,,,,,,,,94Aloud,001,2022_Nov_21_1347,ProdSingRedoBetween,2021.2.3,60.034856321279314,
32,0,32,0,,,,,,,,,,,,,,,,,,,,,,,,,,923.3255225000903,None,comfort,18,33,aloud,yellow,921.311064099893,None,None,921.311064099893,None,,,,,,,,,,,,,,,,,,,,,,,,,,,,,,,,,,,94Aloud,001,2022_Nov_21_1347,ProdSingRedoBetween,2021.2.3,60.034856321279314,
33,0,33,0,,,,,,,,,,,,,,,,,,,,,,,,,,925.8448270997033,None,bucket,29,34,aloud,blue,923.8309765998274,None,None,923.8309765998274,None,,,,,,,,,,,,,,,,,,,,,,,,,,,,,,,,,,,94Aloud,001,2022_Nov_21_1347,ProdSingRedoBetween,2021.2.3,60.034856321279314,
34,0,34,0,,,,,,,,,,,,,,,,,,,,,,,,,,928.3469708999619,None,safety,51,35,aloud,blue,926.3475233996287,None,None,926.3475233996287,None,,,,,,,,,,,,,,,,,,,,,,,,,,,,,,,,,,,94Aloud,001,2022_Nov_21_1347,ProdSingRedoBetween,2021.2.3,60.034856321279314,
35,0,35,0,,,,,,,,,,,,,,,,,,,,,,,,,,930.8497179998085,None,narrow,35,36,aloud,blue,928.8477655993775,None,None,928.8477655993775,None,,,,,,,,,,,,,,,,,,,,,,,,,,,,,,,,,,,94Aloud,001,2022_Nov_21_1347,ProdSingRedoBetween,2021.2.3,60.034856321279314,
36,0,36,0,,,,,,,,,,,,,,,,,,,,,,,,,,933.3687535999343,None,reading,82,37,aloud,red,931.3539686994627,None,None,931.3539686994627,None,,,,,,,,,,,,,,,,,,,,,,,,,,,,,,,,,,,94Aloud,001,2022_Nov_21_1347,ProdSingRedoBetween,2021.2.3,60.034856321279314,
37,0,37,0,,,,,,,,,,,,,,,,,,,,,,,,,,935.8713412992656,None,block,17,38,aloud,yellow,933.8693677000701,None,None,933.8693677000701,None,,,,,,,,,,,,,,,,,,,,,,,,,,,,,,,,,,,94Aloud,001,2022_Nov_21_1347,ProdSingRedoBetween,2021.2.3,60.034856321279314,
38,0,38,0,,,,,,,,,,,,,,,,,,,,,,,,,,938.3736434997991,None,state,69,39,aloud,red,936.3724887995049,None,None,936.3724887995049,None,,,,,,,,,,,,,,,,,,,,,,,,,,,,,,,,,,,94Aloud,001,2022_Nov_21_1347,ProdSingRedoBetween,2021.2.3,60.034856321279314,
39,0,39,0,,,,,,,,,,,,,,,,,,,,,,,,,,940.8763373000547,None,instrument,1,40,aloud,yellow,938.8752769995481,None,None,938.8752769995481,None,,,,,,,,,,,,,,,,,,,,,,,,,,,,,,,,,,,94Aloud,001,2022_Nov_21_1347,ProdSingRedoBetween,2021.2.3,60.034856321279314,
40,0,40,0,,,,,,,,,,,,,,,,,,,,,,,,,,943.395551899448,None,rough,63,41,aloud,red,941.3805919000879,None,None,941.3805919000879,None,,,,,,,,,,,,,,,,,,,,,,,,,,,,,,,,,,,94Aloud,001,2022_Nov_21_1347,ProdSingRedoBetween,2021.2.3,60.034856321279314,
41,0,41,0,,,,,,,,,,,,,,,,,,,,,,,,,,945.8990663997829,None,color,62,42,aloud,red,943.8960139993578,None,None,943.8960139993578,None,,,,,,,,,,,,,,,,,,,,,,,,,,,,,,,,,,,94Aloud,001,2022_Nov_21_1347,ProdSingRedoBetween,2021.2.3,60.034856321279314,
42,0,42,0,,,,,,,,,,,,,,,,,,,,,,,,,,948.4172898000106,None,quantity,25,43,aloud,yellow,946.4051622999832,None,None,946.4051622999832,None,,,,,,,,,,,,,,,,,,,,,,,,,,,,,,,,,,,94Aloud,001,2022_Nov_21_1347,ProdSingRedoBetween,2021.2.3,60.034856321279314,
43,0,43,0,,,,,,,,,,,,,,,,,,,,,,,,,,950.9197372999042,None,story,45,44,aloud,blue,948.9196750996634,None,None,948.9196750996634,None,,,,,,,,,,,,,,,,,,,,,,,,,,,,,,,,,,,94Aloud,001,2022_Nov_21_1347,ProdSingRedoBetween,2021.2.3,60.034856321279314,
44,0,44,0,,,,,,,,,,,,,,,,,,,,,,,,,,953.4388533001766,None,birth,15,45,aloud,yellow,951.424302299507,None,None,951.424302299507,None,,,,,,,,,,,,,,,,,,,,,,,,,,,,,,,,,,,94Aloud,001,2022_Nov_21_1347,ProdSingRedoBetween,2021.2.3,60.034856321279314,
45,0,45,0,,,,,,,,,,,,,,,,,,,,,,,,,,955.9413751000538,None,minute,30,46,aloud,blue,953.941075399518,None,None,953.941075399518,None,,,,,,,,,,,,,,,,,,,,,,,,,,,,,,,,,,,94Aloud,001,2022_Nov_21_1347,ProdSingRedoBetween,2021.2.3,60.034856321279314,
46,0,46,0,,,,,,,,,,,,,,,,,,,,,,,,,,958.4439039994031,None,council,77,47,aloud,red,956.4416878996417,None,None,956.4416878996417,None,,,,,,,,,,,,,,,,,,,,,,,,,,,,,,,,,,,94Aloud,001,2022_Nov_21_1347,ProdSingRedoBetween,2021.2.3,60.034856321279314,
47,0,47,0,,,,,,,,,,,,,,,,,,,,,,,,,,960.9630303997546,None,silence,59,48,aloud,yellow,958.9478014996275,None,None,958.9478014996275,None,,,,,,,,,,,,,,,,,,,,,,,,,,,,,,,,,,,94Aloud,001,2022_Nov_21_1347,ProdSingRedoBetween,2021.2.3,60.034856321279314,
48,0,48,0,,,,,,,,,,,,,,,,,,,,,,,,,,963.4656899999827,None,threat,12,49,aloud,yellow,961.4638400999829,None,None,961.4638400999829,None,,,,,,,,,,,,,,,,,,,,,,,,,,,,,,,,,,,94Aloud,001,2022_Nov_21_1347,ProdSingRedoBetween,2021.2.3,60.034856321279314,
49,0,49,0,,,,,,,,,,,,,,,,,,,,,,,,,,965.984700399451,None,curve,75,50,aloud,red,963.9750880999491,None,None,963.9750880999491,None,,,,,,,,,,,,,,,,,,,,,,,,,,,,,,,,,,,94Aloud,001,2022_Nov_21_1347,ProdSingRedoBetween,2021.2.3,60.034856321279314,
50,0,50,0,,,,,,,,,,,,,,,,,,,,,,,,,,968.4872431000695,None,cousin,20,51,aloud,yellow,966.4850969994441,None,None,966.4850969994441,None,,,,,,,,,,,,,,,,,,,,,,,,,,,,,,,,,,,94Aloud,001,2022_Nov_21_1347,ProdSingRedoBetween,2021.2.3,60.034856321279314,
51,0,51,0,,,,,,,,,,,,,,,,,,,,,,,,,,971.0065104998648,None,command,43,52,aloud,blue,968.9936440996826,None,None,968.9936440996826,None,,,,,,,,,,,,,,,,,,,,,,,,,,,,,,,,,,,94Aloud,001,2022_Nov_21_1347,ProdSingRedoBetween,2021.2.3,60.034856321279314,
52,0,52,0,,,,,,,,,,,,,,,,,,,,,,,,,,973.5092599000782,None,primary,14,53,aloud,yellow,971.5069634001702,None,None,971.5069634001702,None,,,,,,,,,,,,,,,,,,,,,,,,,,,,,,,,,,,94Aloud,001,2022_Nov_21_1347,ProdSingRedoBetween,2021.2.3,60.034856321279314,
53,0,53,0,,,,,,,,,,,,,,,,,,,,,,,,,,976.0280273994431,None,revolution,46,54,aloud,blue,974.0158088998869,None,None,974.0158088998869,None,,,,,,,,,,,,,,,,,,,,,,,,,,,,,,,,,,,94Aloud,001,2022_Nov_21_1347,ProdSingRedoBetween,2021.2.3,60.034856321279314,
54,0,54,0,,,,,,,,,,,,,,,,,,,,,,,,,,978.5306541994214,None,present,34,55,aloud,blue,976.5310912001878,None,None,976.5310912001878,None,,,,,,,,,,,,,,,,,,,,,,,,,,,,,,,,,,,94Aloud,001,2022_Nov_21_1347,ProdSingRedoBetween,2021.2.3,60.034856321279314,
55,0,55,0,,,,,,,,,,,,,,,,,,,,,,,,,,981.0496498001739,None,production,78,56,aloud,red,979.0341227995232,None,None,979.0341227995232,None,,,,,,,,,,,,,,,,,,,,,,,,,,,,,,,,,,,94Aloud,001,2022_Nov_21_1347,ProdSingRedoBetween,2021.2.3,60.034856321279314,
56,0,56,0,,,,,,,,,,,,,,,,,,,,,,,,,,983.5690370993689,None,agency,42,57,aloud,blue,981.5607642000541,None,None,981.5607642000541,None,,,,,,,,,,,,,,,,,,,,,,,,,,,,,,,,,,,94Aloud,001,2022_Nov_21_1347,ProdSingRedoBetween,2021.2.3,60.034856321279314,
57,0,57,0,,,,,,,,,,,,,,,,,,,,,,,,,,986.0714607993141,None,murder,37,58,aloud,blue,984.0704801995307,None,None,984.0704801995307,None,,,,,,,,,,,,,,,,,,,,,,,,,,,,,,,,,,,94Aloud,001,2022_Nov_21_1347,ProdSingRedoBetween,2021.2.3,60.034856321279314,
58,0,58,0,,,,,,,,,,,,,,,,,,,,,,,,,,988.5906382994726,None,sleep,57,59,aloud,blue,986.5754116997123,None,None,986.5754116997123,None,,,,,,,,,,,,,,,,,,,,,,,,,,,,,,,,,,,94Aloud,001,2022_Nov_21_1347,ProdSingRedoBetween,2021.2.3,60.034856321279314,
59,0,59,0,,,,,,,,,,,,,,,,,,,,,,,,,,991.109826900065,None,display,74,60,aloud,red,989.0953342001885,None,None,989.0953342001885,None,,,,,,,,,,,,,,,,,,,,,,,,,,,,,,,,,,,94Aloud,001,2022_Nov_21_1347,ProdSingRedoBetween,2021.2.3,60.034856321279314,
60,0,60,0,,,,,,,,,,,,,,,,,,,,,,,,,,993.6289401995018,None,business,39,61,aloud,blue,991.6152984993532,None,None,991.6152984993532,None,,,,,,,,,,,,,,,,,,,,,,,,,,,,,,,,,,,94Aloud,001,2022_Nov_21_1347,ProdSingRedoBetween,2021.2.3,60.034856321279314,
61,0,61,0,,,,,,,,,,,,,,,,,,,,,,,,,,996.1482202997431,None,recall,85,62,aloud,red,994.1329144993797,None,None,994.1329144993797,None,,,,,,,,,,,,,,,,,,,,,,,,,,,,,,,,,,,94Aloud,001,2022_Nov_21_1347,ProdSingRedoBetween,2021.2.3,60.034856321279314,
62,0,62,0,,,,,,,,,,,,,,,,,,,,,,,,,,998.6507315998897,None,theme,33,63,aloud,blue,996.6488274000585,None,None,996.6488274000585,None,,,,,,,,,,,,,,,,,,,,,,,,,,,,,,,,,,,94Aloud,001,2022_Nov_21_1347,ProdSingRedoBetween,2021.2.3,60.034856321279314,
63,0,63,0,,,,,,,,,,,,,,,,,,,,,,,,,,1001.152902700007,None,interior,58,64,aloud,blue,999.1513778995723,None,None,999.1513778995723,None,,,,,,,,,,,,,,,,,,,,,,,,,,,,,,,,,,,94Aloud,001,2022_Nov_21_1347,ProdSingRedoBetween,2021.2.3,60.034856321279314,
64,0,64,0,,,,,,,,,,,,,,,,,,,,,,,,,,1003.6556668998674,None,hunger,55,65,aloud,blue,1001.65525219962,None,None,1001.65525219962,None,,,,,,,,,,,,,,,,,,,,,,,,,,,,,,,,,,,94Aloud,001,2022_Nov_21_1347,ProdSingRedoBetween,2021.2.3,60.034856321279314,
65,0,65,0,,,,,,,,,,,,,,,,,,,,,,,,,,1006.1581668993458,None,weight,70,66,aloud,red,1004.1572167994455,None,None,1004.1572167994455,None,,,,,,,,,,,,,,,,,,,,,,,,,,,,,,,,,,,94Aloud,001,2022_Nov_21_1347,ProdSingRedoBetween,2021.2.3,60.034856321279314,
66,0,66,0,,,,,,,,,,,,,,,,,,,,,,,,,,1008.6772274998948,None,mayor,61,67,aloud,red,1006.6620760001242,None,None,1006.6620760001242,None,,,,,,,,,,,,,,,,,,,,,,,,,,,,,,,,,,,94Aloud,001,2022_Nov_21_1347,ProdSingRedoBetween,2021.2.3,60.034856321279314,
67,0,67,0,,,,,,,,,,,,,,,,,,,,,,,,,,1011.1797620998695,None,track,6,68,aloud,yellow,1009.1779119996354,None,None,1009.1779119996354,None,,,,,,,,,,,,,,,,,,,,,,,,,,,,,,,,,,,94Aloud,001,2022_Nov_21_1347,ProdSingRedoBetween,2021.2.3,60.034856321279314,
68,0,68,0,,,,,,,,,,,,,,,,,,,,,,,,,,1013.6991168996319,None,answer,52,69,aloud,blue,1011.688568899408,None,None,1011.688568899408,None,,,,,,,,,,,,,,,,,,,,,,,,,,,,,,,,,,,94Aloud,001,2022_Nov_21_1347,ProdSingRedoBetween,2021.2.3,60.034856321279314,
69,0,69,0,,,,,,,,,,,,,,,,,,,,,,,,,,1016.2014707997441,None,society,87,70,aloud,red,1014.2020028997213,None,None,1014.2020028997213,None,,,,,,,,,,,,,,,,,,,,,,,,,,,,,,,,,,,94Aloud,001,2022_Nov_21_1347,ProdSingRedoBetween,2021.2.3,60.034856321279314,
70,0,70,0,,,,,,,,,,,,,,,,,,,,,,,,,,1018.7206696998328,None,measure,50,71,aloud,blue,1016.7055642995983,None,None,1016.7055642995983,None,,,,,,,,,,,,,,,,,,,,,,,,,,,,,,,,,,,94Aloud,001,2022_Nov_21_1347,ProdSingRedoBetween,2021.2.3,60.034856321279314,
71,0,71,0,,,,,,,,,,,,,,,,,,,,,,,,,,1021.2231610994786,None,cross,86,72,aloud,red,1019.2211576001719,None,None,1019.2211576001719,None,,,,,,,,,,,,,,,,,,,,,,,,,,,,,,,,,,,94Aloud,001,2022_Nov_21_1347,ProdSingRedoBetween,2021.2.3,60.034856321279314,
72,0,72,0,,,,,,,,,,,,,,,,,,,,,,,,,,1023.725983900018,None,fight,9,73,aloud,yellow,1021.7236666996032,None,None,1021.7236666996032,None,,,,,,,,,,,,,,,,,,,,,,,,,,,,,,,,,,,94Aloud,001,2022_Nov_21_1347,ProdSingRedoBetween,2021.2.3,60.034856321279314,
73,0,73,0,,,,,,,,,,,,,,,,,,,,,,,,,,1026.2280246000737,None,travel,7,74,aloud,yellow,1024.2258501993492,None,None,1024.2258501993492,None,,,,,,,,,,,,,,,,,,,,,,,,,,,,,,,,,,,94Aloud,001,2022_Nov_21_1347,ProdSingRedoBetween,2021.2.3,60.034856321279314,
74,0,74,0,,,,,,,,,,,,,,,,,,,,,,,,,,1028.730665099807,None,breath,72,75,aloud,red,1026.7302506994456,None,None,1026.7302506994456,None,,,,,,,,,,,,,,,,,,,,,,,,,,,,,,,,,,,94Aloud,001,2022_Nov_21_1347,ProdSingRedoBetween,2021.2.3,60.034856321279314,
75,0,75,0,,,,,,,,,,,,,,,,,,,,,,,,,,1031.2331711994484,None,piece,23,76,aloud,yellow,1029.2317845001817,None,None,1029.2317845001817,None,,,,,,,,,,,,,,,,,,,,,,,,,,,,,,,,,,,94Aloud,001,2022_Nov_21_1347,ProdSingRedoBetween,2021.2.3,60.034856321279314,
76,0,76,0,,,,,,,,,,,,,,,,,,,,,,,,,,1033.752265700139,None,impact,83,77,aloud,red,1031.7383495001122,None,None,1031.7383495001122,None,,,,,,,,,,,,,,,,,,,,,,,,,,,,,,,,,,,94Aloud,001,2022_Nov_21_1347,ProdSingRedoBetween,2021.2.3,60.034856321279314,
77,0,77,0,,,,,,,,,,,,,,,,,,,,,,,,,,1036.2549479994923,None,empty,5,78,aloud,yellow,1034.2528745001182,None,None,1034.2528745001182,None,,,,,,,,,,,,,,,,,,,,,,,,,,,,,,,,,,,94Aloud,001,2022_Nov_21_1347,ProdSingRedoBetween,2021.2.3,60.034856321279314,
78,0,78,0,,,,,,,,,,,,,,,,,,,,,,,,,,1038.7572964997962,None,service,8,79,aloud,yellow,1036.756176199764,None,None,1036.756176199764,None,,,,,,,,,,,,,,,,,,,,,,,,,,,,,,,,,,,94Aloud,001,2022_Nov_21_1347,ProdSingRedoBetween,2021.2.3,60.034856321279314,
79,0,79,0,,,,,,,,,,,,,,,,,,,,,,,,,,1041.2594821993262,None,addition,32,80,aloud,blue,1039.259337699972,None,None,1039.259337699972,None,,,,,,,,,,,,,,,,,,,,,,,,,,,,,,,,,,,94Aloud,001,2022_Nov_21_1347,ProdSingRedoBetween,2021.2.3,60.034856321279314,
80,0,80,0,,,,,,,,,,,,,,,,,,,,,,,,,,1043.7789653996006,None,little,53,81,aloud,blue,1041.7640555994585,None,None,1041.7640555994585,None,,,,,,,,,,,,,,,,,,,,,,,,,,,,,,,,,,,94Aloud,001,2022_Nov_21_1347,ProdSingRedoBetween,2021.2.3,60.034856321279314,
81,0,81,0,,,,,,,,,,,,,,,,,,,,,,,,,,1046.2982966993004,None,style,4,82,aloud,yellow,1044.2869779998437,None,None,1044.2869779998437,None,,,,,,,,,,,,,,,,,,,,,,,,,,,,,,,,,,,94Aloud,001,2022_Nov_21_1347,ProdSingRedoBetween,2021.2.3,60.034856321279314,
82,0,82,0,,,,,,,,,,,,,,,,,,,,,,,,,,1048.80070269946,None,skill,10,83,aloud,yellow,1046.8006873000413,None,None,1046.8006873000413,None,,,,,,,,,,,,,,,,,,,,,,,,,,,,,,,,,,,94Aloud,001,2022_Nov_21_1347,ProdSingRedoBetween,2021.2.3,60.034856321279314,
83,0,83,0,,,,,,,,,,,,,,,,,,,,,,,,,,1051.3198299994692,None,victory,73,84,aloud,red,1049.304625599645,None,None,1049.304625599645,None,,,,,,,,,,,,,,,,,,,,,,,,,,,,,,,,,,,94Aloud,001,2022_Nov_21_1347,ProdSingRedoBetween,2021.2.3,60.034856321279314,
84,0,84,0,,,,,,,,,,,,,,,,,,,,,,,,,,1053.8223812999204,None,smell,68,85,aloud,red,1051.8219914995134,None,None,1051.8219914995134,None,,,,,,,,,,,,,,,,,,,,,,,,,,,,,,,,,,,94Aloud,001,2022_Nov_21_1347,ProdSingRedoBetween,2021.2.3,60.034856321279314,
85,0,85,0,,,,,,,,,,,,,,,,,,,,,,,,,,1056.324893699959,None,position,38,86,aloud,blue,1054.3246586993337,None,None,1054.3246586993337,None,,,,,,,,,,,,,,,,,,,,,,,,,,,,,,,,,,,94Aloud,001,2022_Nov_21_1347,ProdSingRedoBetween,2021.2.3,60.034856321279314,
86,0,86,0,,,,,,,,,,,,,,,,,,,,,,,,,,1058.8440865995362,None,front,79,87,aloud,red,1056.8286701999605,None,None,1056.8286701999605,None,,,,,,,,,,,,,,,,,,,,,,,,,,,,,,,,,,,94Aloud,001,2022_Nov_21_1347,ProdSingRedoBetween,2021.2.3,60.034856321279314,
87,0,87,0,,,,,,,,,,,,,,,,,,,,,,,,,,1061.3465225994587,None,drama,13,88,aloud,yellow,1059.3462707996368,None,None,1059.3462707996368,None,,,,,,,,,,,,,,,,,,,,,,,,,,,,,,,,,,,94Aloud,001,2022_Nov_21_1347,ProdSingRedoBetween,2021.2.3,60.034856321279314,
88,0,88,0,,,,,,,,,,,,,,,,,,,,,,,,,,1063.8489477997646,None,motion,81,89,aloud,red,1061.846968700178,None,None,1061.846968700178,None,,,,,,,,,,,,,,,,,,,,,,,,,,,,,,,,,,,94Aloud,001,2022_Nov_21_1347,ProdSingRedoBetween,2021.2.3,60.034856321279314,
89,0,89,0,,,,,,,,,,,,,,,,,,,,,,,,,,1066.3515614997596,None,industry,65,90,aloud,red,1064.34951560013,None,None,1064.34951560013,None,,,,,,,,,,,,,,,,,,,,,,,,,,,,,,,,,,,94Aloud,001,2022_Nov_21_1347,ProdSingRedoBetween,2021.2.3,60.034856321279314,
,,,,,,,,,,,,,,,,,,,,,,,,,,,,,,,,,,,,,,,,,1066.8523744000122,None,k,49.9331821994856,1066.8523744000122,None,,,,,,,,,,,,,,,,,,,,,,,,,,,,,94Aloud,001,2022_Nov_21_1347,ProdSingRedoBetween,2021.2.3,60.034856321279314,
,,,,0,0,0,0,,,,,,,,,,,,,,,,,,,,,,1127.5126275001094,None,,,,,,,,,,,,,,,,,platform,124,1,aloud,new,null,1117.3074896000326,None,1117.3074896000326,None,1,4.478101000189781,1117.3074896000326,None,4.478101000189781,1121.8140238998458,None,1122.3241499997675,None,1122.3241499997675,None,n,5.157453699968755,1122.3241499997675,None,5.157453699968755,,,94Aloud,001,2022_Nov_21_1347,ProdSingRedoBetween,2021.2.3,60.034856321279314,
,,,,1,0,1,0,,,,,,,,,,,,,,,,,,,,,,1135.5201715994626,None,,,,,,,,,,,,,,,,,crisis,44,2,aloud,old,blue,1128.0169327994809,None,1128.0169327994809,None,6,4.496566800400615,1128.0169327994809,None,4.496566800400615,1132.5354805998504,None,1133.0391669999808,None,1133.0391669999808,None,r,2.4663319997489452,1133.0391669999808,None,2.4663319997489452,,,94Aloud,001,2022_Nov_21_1347,ProdSingRedoBetween,2021.2.3,60.034856321279314,
,,,,2,0,2,0,,,,,,,,,,,,,,,,,,,,,,1143.7117324993014,None,,,,,,,,,,,,,,,,,enemy,22,3,aloud,old,yellow,1136.0257752994075,None,1136.0257752994075,None,5,4.999802999198437,1136.0257752994075,None,4.999802999198437,1141.0461822999641,None,1141.5619377996773,None,1141.5619377996773,None,f,2.127531699836254,1141.5619377996773,None,2.127531699836254,,,94Aloud,001,2022_Nov_21_1347,ProdSingRedoBetween,2021.2.3,60.034856321279314,
,,,,3,0,3,0,,,,,,,,,,,,,,,,,,,,,,1149.5377949997783,None,,,,,,,,,,,,,,,,,session,31,4,aloud,old,blue,1144.2238070992753,None,1144.2238070992753,None,6,3.0816371999680996,1144.2238070992753,None,3.0816371999680996,1147.3330165995285,None,1147.8328391993418,None,1147.8328391993418,None,r,1.680897100828588,1147.8328391993418,None,1.680897100828588,,,94Aloud,001,2022_Nov_21_1347,ProdSingRedoBetween,2021.2.3,60.034856321279314,
,,,,4,0,4,0,,,,,,,,,,,,,,,,,,,,,,1155.5904414998367,None,,,,,,,,,,,,,,,,,motion,81,5,aloud,old,red,1150.0576856993139,None,1150.0576856993139,None,1,3.1358187003061175,1150.0576856993139,None,3.1358187003061175,1153.2244053995237,None,1153.7387317996472,None,1153.7387317996472,None,n,1.8228343995288014,1153.7387317996472,None,1.8228343995288014,,,94Aloud,001,2022_Nov_21_1347,ProdSingRedoBetween,2021.2.3,60.034856321279314,
,,,,5,0,5,0,,,,,,,,,,,,,,,,,,,,,,1161.3962910994887,None,,,,,,,,,,,,,,,,,community,108,6,aloud,new,null,1156.1009885994717,None,1156.1009885994717,None,4,3.4845634000375867,1156.1009885994717,None,3.4845634000375867,1159.617823999375,None,1160.1282610995695,None,1160.1282610995695,None,f,1.249151200056076,1160.1282610995695,None,1.249151200056076,,,94Aloud,001,2022_Nov_21_1347,ProdSingRedoBetween,2021.2.3,60.034856321279314,
,,,,6,0,6,0,,,,,,,,,,,,,,,,,,,,,,1166.2009592000395,None,,,,,,,,,,,,,,,,,skill,10,7,aloud,old,yellow,1161.896623599343,None,1161.896623599343,None,6,2.112834199331701,1161.896623599343,None,2.112834199331701,1164.0369555000216,None,1164.5515034999698,None,1164.5515034999698,None,r,1.6180210998281837,1164.5515034999698,None,1.6180210998281837,,,94Aloud,001,2022_Nov_21_1347,ProdSingRedoBetween,2021.2.3,60.034856321279314,
,,,,7,0,7,0,,,,,,,,,,,,,,,,,,,,,,1170.4385605994612,None,,,,,,,,,,,,,,,,,private,116,8,aloud,new,null,1166.7091760998592,None,1166.7091760998592,None,1,2.0202800994738936,1166.7091760998592,None,2.0202800994738936,1168.7544978996739,None,1169.2586993994191,None,1169.2586993994191,None,n,1.1509004002436996,1169.2586993994191,None,1.1509004002436996,,,94Aloud,001,2022_Nov_21_1347,ProdSingRedoBetween,2021.2.3,60.034856321279314,
,,,,8,0,8,0,,,,,,,,,,,,,,,,,,,,,,1175.293497399427,None,,,,,,,,,,,,,,,,,season,175,9,aloud,new,null,1170.9471378996968,None,1170.9471378996968,None,1,2.5423293001949787,1170.9471378996968,None,2.5423293001949787,1173.5138424001634,None,1174.0256894994527,None,1174.0256894994527,None,n,1.2397159999236465,1174.0256894994527,None,1.2397159999236465,,,94Aloud,001,2022_Nov_21_1347,ProdSingRedoBetween,2021.2.3,60.034856321279314,
,,,,9,0,9,0,,,,,,,,,,,,,,,,,,,,,,1178.9972062995657,None,,,,,,,,,,,,,,,,,reading,82,10,aloud,old,red,1175.800088999793,None,1175.800088999793,None,6,1.8093237997964025,1175.800088999793,None,1.8093237997964025,1177.6300323000178,None,1178.129829700105,None,1178.129829700105,None,r,0.8476443998515606,1178.129829700105,None,0.8476443998515606,,,94Aloud,001,2022_Nov_21_1347,ProdSingRedoBetween,2021.2.3,60.034856321279314,
,,,,10,0,10,0,,,,,,,,,,,,,,,,,,,,,,1182.2181461993605,None,,,,,,,,,,,,,,,,,testimony,24,11,aloud,old,yellow,1179.5096352994442,None,1179.5096352994442,None,6,1.6517733996734023,1179.5096352994442,None,1.6517733996734023,1181.188710999675,None,1181.6998319998384,None,1181.6998319998384,None,r,0.5015493994578719,1181.6998319998384,None,0.5015493994578719,,,94Aloud,001,2022_Nov_21_1347,ProdSingRedoBetween,2021.2.3,60.034856321279314,
,,,,11,0,11,0,,,,,,,,,,,,,,,,,,,,,,1185.3536058999598,None,,,,,,,,,,,,,,,,,block,17,12,aloud,old,yellow,1182.720281300135,None,1182.720281300135,None,6,1.5211022002622485,1182.720281300135,None,1.5211022002622485,1184.2739263996482,None,1184.7950868001208,None,1184.7950868001208,None,r,0.5423594005405903,1184.7950868001208,None,0.5423594005405903,,,94Aloud,001,2022_Nov_21_1347,ProdSingRedoBetween,2021.2.3,60.034856321279314,
,,,,12,0,12,0,,,,,,,,,,,,,,,,,,,,,,1190.6097037997097,None,,,,,,,,,,,,,,,,,nature,118,13,aloud,new,null,1185.8654995998368,None,1185.8654995998368,None,1,3.4478778997436166,1185.8654995998368,None,3.4478778997436166,1189.341520499438,None,1189.8511867998168,None,1189.8511867998168,None,n,0.7261108998209238,1189.8511867998168,None,0.7261108998209238,,,94Aloud,001,2022_Nov_21_1347,ProdSingRedoBetween,2021.2.3,60.034856321279314,
,,,,13,0,13,0,,,,,,,,,,,,,,,,,,,,,,1195.8653009999543,None,,,,,,,,,,,,,,,,,course,89,14,aloud,old,red,1191.1136079998687,None,1191.1136079998687,None,6,2.2077886005863547,1191.1136079998687,None,2.2077886005863547,1193.3467733999714,None,1193.8664790997282,None,1193.8664790997282,None,r,1.9669342003762722,1193.8664790997282,None,1.9669342003762722,,,94Aloud,001,2022_Nov_21_1347,ProdSingRedoBetween,2021.2.3,60.034856321279314,
,,,,14,0,14,0,,,,,,,,,,,,,,,,,,,,,,1199.3507560994476,None,,,,,,,,,,,,,,,,,range,48,15,aloud,old,blue,1196.3707290999591,None,1196.3707290999591,None,6,1.814767399802804,1196.3707290999591,None,1.814767399802804,1198.218427799642,None,1198.7335278000683,None,1198.7335278000683,None,r,0.5878945998847485,1198.7335278000683,None,0.5878945998847485,,,94Aloud,001,2022_Nov_21_1347,ProdSingRedoBetween,2021.2.3,60.034856321279314,
,,,,15,0,15,0,,,,,,,,,,,,,,,,,,,,,,1202.7718394994736,None,,,,,,,,,,,,,,,,,commercial,165,16,aloud,new,null,1199.857754100114,None,1199.857754100114,None,1,1.607735900208354,1199.857754100114,None,1.607735900208354,1201.4887522999197,None,1202.010452799499,None,1202.010452799499,None,n,0.7349594999104738,1202.010452799499,None,0.7349594999104738,,,94Aloud,001,2022_Nov_21_1347,ProdSingRedoBetween,2021.2.3,60.034856321279314,
,,,,16,0,16,0,,,,,,,,,,,,,,,,,,,,,,1206.3857391001657,None,,,,,,,,,,,,,,,,,business,39,17,aloud,old,blue,1203.2746029999107,None,1203.2746029999107,None,6,1.8547895001247525,1203.2746029999107,None,1.8547895001247525,1205.1630151001737,None,1205.673842399381,None,1205.673842399381,None,r,0.6716382000595331,1205.673842399381,None,0.6716382000595331,,,94Aloud,001,2022_Nov_21_1347,ProdSingRedoBetween,2021.2.3,60.034856321279314,
,,,,17,0,17,0,,,,,,,,,,,,,,,,,,,,,,1209.9279832001776,None,,,,,,,,,,,,,,,,,council,77,18,aloud,old,red,1206.8917653001845,None,1206.8917653001845,None,4,1.9896510997787118,1206.8917653001845,None,1.9896510997787118,1208.9110704995692,None,1209.414650099352,None,1209.414650099352,None,f,0.4826867002993822,1209.414650099352,None,0.4826867002993822,,,94Aloud,001,2022_Nov_21_1347,ProdSingRedoBetween,2021.2.3,60.034856321279314,
,,,,18,0,18,0,,,,,,,,,,,,,,,,,,,,,,1213.2313067996874,None,,,,,,,,,,,,,,,,,close,152,19,aloud,new,null,1210.4317242000252,None,1210.4317242000252,None,6,1.7135435994714499,1210.4317242000252,None,1.7135435994714499,1212.1670065000653,None,1212.6848604995757,None,1212.6848604995757,None,r,0.5245438003912568,1212.6848604995757,None,0.5245438003912568,,,94Aloud,001,2022_Nov_21_1347,ProdSingRedoBetween,2021.2.3,60.034856321279314,
,,,,19,0,19,0,,,,,,,,,,,,,,,,,,,,,,1216.6347399996594,None,,,,,,,,,,,,,,,,,space,123,20,aloud,new,null,1213.7388814995065,None,1213.7388814995065,None,1,1.566483300179243,1213.7388814995065,None,1.566483300179243,1215.3344879997894,None,1215.8340738993138,None,1215.8340738993138,None,n,0.7832796005532146,1215.8340738993138,None,0.7832796005532146,,,94Aloud,001,2022_Nov_21_1347,ProdSingRedoBetween,2021.2.3,60.034856321279314,
,,,,20,0,20,0,,,,,,,,,,,,,,,,,,,,,,1221.556354300119,None,,,,,,,,,,,,,,,,,smooth,112,21,aloud,new,null,1217.1557049993426,None,1217.1557049993426,None,6,2.9575443994253874,1217.1557049993426,None,2.9575443994253874,1220.1414385000244,None,1220.6560444999486,None,1220.6560444999486,None,r,0.88135140016675,1220.6560444999486,None,0.88135140016675,,,94Aloud,001,2022_Nov_21_1347,ProdSingRedoBetween,2021.2.3,60.034856321279314,
,,,,21,0,21,0,,,,,,,,,,,,,,,,,,,,,,1224.9262463999912,None,,,,,,,,,,,,,,,,,watch,64,22,aloud,old,red,1222.0602187998593,None,1222.0602187998593,None,6,1.7251288993284106,1222.0602187998593,None,1.7251288993284106,1223.8096960000694,None,1224.31191950012,None,1224.31191950012,None,r,0.5854746997356415,1224.31191950012,None,0.5854746997356415,,,94Aloud,001,2022_Nov_21_1347,ProdSingRedoBetween,2021.2.3,60.034856321279314,
,,,,22,0,22,0,,,,,,,,,,,,,,,,,,,,,,1228.7302072998136,None,,,,,,,,,,,,,,,,,literature,155,23,aloud,new,null,1225.434230399318,None,1225.434230399318,None,1,2.255202899686992,1225.434230399318,None,2.255202899686992,1227.7195836994797,None,1228.2304242001846,None,1228.2304242001846,None,n,0.4749183999374509,1228.2304242001846,None,0.4749183999374509,,,94Aloud,001,2022_Nov_21_1347,ProdSingRedoBetween,2021.2.3,60.034856321279314,
,,,,23,0,23,0,,,,,,,,,,,,,,,,,,,,,,1235.5368590997532,None,,,,,,,,,,,,,,,,,minute,30,24,aloud,old,blue,1229.239342099987,None,1229.239342099987,None,1,5.218071999959648,1229.239342099987,None,5.218071999959648,1234.4898236999288,None,1235.0030935993418,None,1235.0030935993418,None,n,0.5102740004658699,1235.0030935993418,None,0.5102740004658699,,,94Aloud,001,2022_Nov_21_1347,ProdSingRedoBetween,2021.2.3,60.034856321279314,
,,,,24,0,24,0,,,,,,,,,,,,,,,,,,,,,,1238.775620999746,None,,,,,,,,,,,,,,,,,salary,149,25,aloud,new,null,1236.0525401998311,None,1236.0525401998311,None,1,1.6287415996193886,1236.0525401998311,None,1.6287415996193886,1237.7089157998562,None,1238.2263536993414,None,1238.2263536993414,None,n,0.5270250998437405,1238.2263536993414,None,0.5270250998437405,,,94Aloud,001,2022_Nov_21_1347,ProdSingRedoBetween,2021.2.3,60.034856321279314,
,,,,25,0,25,0,,,,,,,,,,,,,,,,,,,,,,1242.243685499765,None,,,,,,,,,,,,,,,,,military,104,26,aloud,new,null,1239.2918723998591,None,1239.2918723998591,None,1,1.861353600397706,1239.2918723998591,None,1.861353600397706,1241.1770736994222,None,1241.6784240994602,None,1241.6784240994602,None,n,0.5469394000247121,1241.6784240994602,None,0.5469394000247121,,,94Aloud,001,2022_Nov_21_1347,ProdSingRedoBetween,2021.2.3,60.034856321279314,
,,,,26,0,26,0,,,,,,,,,,,,,,,,,,,,,,1245.480141799897,None,,,,,,,,,,,,,,,,,present,34,27,aloud,old,blue,1242.7610387997702,None,1242.7610387997702,None,6,1.6482740007340908,1242.7610387997702,None,1.6482740007340908,1244.431188499555,None,1244.9487045994028,None,1244.9487045994028,None,r,0.5087459003552794,1244.9487045994028,None,0.5087459003552794,,,94Aloud,001,2022_Nov_21_1347,ProdSingRedoBetween,2021.2.3,60.034856321279314,
,,,,27,0,27,0,,,,,,,,,,,,,,,,,,,,,,1249.1375880995765,None,,,,,,,,,,,,,,,,,scale,141,28,aloud,new,null,1245.9901233995333,None,1245.9901233995333,None,4,2.0511774998158216,1245.9901233995333,None,2.0511774998158216,1248.0688624000177,None,1248.5833625998348,None,1248.5833625998348,None,f,0.5300056003034115,1248.5833625998348,None,0.5300056003034115,,,94Aloud,001,2022_Nov_21_1347,ProdSingRedoBetween,2021.2.3,60.034856321279314,
,,,,28,0,28,0,,,,,,,,,,,,,,,,,,,,,,1255.975523499772,None,,,,,,,,,,,,,,,,,government,122,29,aloud,new,null,1249.655243399553,None,1249.655243399553,None,4,5.146210599690676,1249.655243399553,None,5.146210599690676,1254.822757099755,None,1255.3259626999497,None,1255.3259626999497,None,f,0.627381700091064,1255.3259626999497,None,0.627381700091064,,,94Aloud,001,2022_Nov_21_1347,ProdSingRedoBetween,2021.2.3,60.034856321279314,
,,,,29,0,29,0,,,,,,,,,,,,,,,,,,,,,,1259.0436495998874,None,,,,,,,,,,,,,,,,,shear,90,30,aloud,new,null,1256.5010271994397,None,1256.5010271994397,None,1,1.5322266994044185,1256.5010271994397,None,1.5322266994044185,1258.0615390995517,None,1258.582527499646,None,1258.582527499646,None,n,0.43484400026500225,1258.582527499646,None,0.43484400026500225,,,94Aloud,001,2022_Nov_21_1347,ProdSingRedoBetween,2021.2.3,60.034856321279314,
,,,,30,0,30,0,,,,,,,,,,,,,,,,,,,,,,1262.747579799965,None,,,,,,,,,,,,,,,,,write,145,31,aloud,new,null,1259.5542794996873,None,1259.5542794996873,None,5,1.8149880999699235,1259.5542794996873,None,1.8149880999699235,1261.3984762001783,None,1261.9160364996642,None,1261.9160364996642,None,f,0.8133258000016212,1261.9160364996642,None,0.8133258000016212,,,94Aloud,001,2022_Nov_21_1347,ProdSingRedoBetween,2021.2.3,60.034856321279314,
,,,,31,0,31,0,,,,,,,,,,,,,,,,,,,,,,1265.7508362997323,None,,,,,,,,,,,,,,,,,society,87,32,aloud,old,red,1263.2523095998913,None,1263.2523095998913,None,6,1.6288790004327893,1263.2523095998913,None,1.6288790004327893,1264.9007342997938,None,1265.4054661998525,None,1265.4054661998525,None,r,0.3157973997294903,1265.4054661998525,None,0.3157973997294903,,,94Aloud,001,2022_Nov_21_1347,ProdSingRedoBetween,2021.2.3,60.034856321279314,
,,,,32,0,32,0,,,,,,,,,,,,,,,,,,,,,,1269.6542253997177,None,,,,,,,,,,,,,,,,,guest,36,33,aloud,old,blue,1266.2524798000231,None,1266.2524798000231,None,1,2.4048255998641253,1266.2524798000231,None,2.4048255998641253,1268.6887596994638,None,1269.2071046000347,None,1269.2071046000347,None,n,0.42620590049773455,1269.2071046000347,None,0.42620590049773455,,,94Aloud,001,2022_Nov_21_1347,ProdSingRedoBetween,2021.2.3,60.034856321279314,
,,,,33,0,33,0,,,,,,,,,,,,,,,,,,,,,,1272.8740981994197,None,,,,,,,,,,,,,,,,,short,137,34,aloud,new,null,1270.1562850000337,None,1270.1562850000337,None,1,1.7249853992834687,1270.1562850000337,None,1.7249853992834687,1271.9098824998364,None,1272.4264081995934,None,1272.4264081995934,None,n,0.4309892002493143,1272.4264081995934,None,0.4309892002493143,,,94Aloud,001,2022_Nov_21_1347,ProdSingRedoBetween,2021.2.3,60.034856321279314,
,,,,34,0,34,0,,,,,,,,,,,,,,,,,,,,,,1276.8113680994138,None,,,,,,,,,,,,,,,,,listen,167,35,aloud,new,null,1273.3807215001434,None,1273.3807215001434,None,4,2.5246713999658823,1273.3807215001434,None,2.5246713999658823,1275.9320625001565,None,1276.4452619999647,None,1276.4452619999647,None,f,0.3399777002632618,1276.4452619999647,None,0.3399777002632618,,,94Aloud,001,2022_Nov_21_1347,ProdSingRedoBetween,2021.2.3,60.034856321279314,
,,,,35,0,35,0,,,,,,,,,,,,,,,,,,,,,,1279.9169684993103,None,,,,,,,,,,,,,,,,,build,84,36,aloud,old,red,1277.316517399624,None,1277.316517399624,None,4,1.6367001002654433,1277.316517399624,None,1.6367001002654433,1278.9800084996969,None,1279.4809663994238,None,1279.4809663994238,None,f,0.4162141000851989,1279.4809663994238,None,0.4162141000851989,,,94Aloud,001,2022_Nov_21_1347,ProdSingRedoBetween,2021.2.3,60.034856321279314,
,,,,36,0,36,0,,,,,,,,,,,,,,,,,,,,,,1282.7171741994098,None,,,,,,,,,,,,,,,,,harmony,163,37,aloud,new,null,1280.4342040996999,None,1280.4342040996999,None,1,1.3430228000506759,1280.4342040996999,None,1.3430228000506759,1281.8010486001149,None,1282.3166982997209,None,1282.3166982997209,None,n,0.37252279929816723,1282.3166982997209,None,0.37252279929816723,,,94Aloud,001,2022_Nov_21_1347,ProdSingRedoBetween,2021.2.3,60.034856321279314,
,,,,37,0,37,0,,,,,,,,,,,,,,,,,,,,,,1285.4219405995682,None,,,,,,,,,,,,,,,,,shape,67,38,aloud,old,red,1283.2218085993081,None,1283.2218085993081,None,6,1.355434799566865,1283.2218085993081,None,1.355434799566865,1284.6042788997293,None,1285.1208122000098,None,1285.1208122000098,None,r,0.2804629998281598,1285.1208122000098,None,0.2804629998281598,,,94Aloud,001,2022_Nov_21_1347,ProdSingRedoBetween,2021.2.3,60.034856321279314,
,,,,38,0,38,0,,,,,,,,,,,,,,,,,,,,,,1288.4229079997167,None,,,,,,,,,,,,,,,,,smell,68,39,aloud,old,red,1285.943159500137,None,1285.943159500137,None,1,1.5380735006183386,1285.943159500137,None,1.5380735006183386,1287.5066478000954,None,1288.0106727993116,None,1288.0106727993116,None,n,0.38268170040100813,1288.0106727993116,None,0.38268170040100813,,,94Aloud,001,2022_Nov_21_1347,ProdSingRedoBetween,2021.2.3,60.034856321279314,
,,,,39,0,39,0,,,,,,,,,,,,,,,,,,,,,,1291.3965563997626,None,,,,,,,,,,,,,,,,,concern,16,40,aloud,old,yellow,1288.928078699857,None,1288.928078699857,None,6,1.617280399426818,1288.928078699857,None,1.617280399426818,1290.5821257997304,None,1291.0945734996349,None,1291.0945734996349,None,r,0.28292129933834076,1291.0945734996349,None,0.28292129933834076,,,94Aloud,001,2022_Nov_21_1347,ProdSingRedoBetween,2021.2.3,60.034856321279314,
,,,,40,0,40,0,,,,,,,,,,,,,,,,,,,,,,1294.3121114997193,None,,,,,,,,,,,,,,,,,addition,32,41,aloud,old,blue,1291.9098614994437,None,1291.9098614994437,None,6,1.5313732996582985,1291.9098614994437,None,1.5313732996582985,1293.4622193994,None,1293.9621476000175,None,1293.9621476000175,None,r,0.3190566999837756,1293.9621476000175,None,0.3190566999837756,,,94Aloud,001,2022_Nov_21_1347,ProdSingRedoBetween,2021.2.3,60.034856321279314,
,,,,41,0,41,0,,,,,,,,,,,,,,,,,,,,,,1298.8833766998723,None,,,,,,,,,,,,,,,,,danger,146,42,aloud,new,null,1294.8146283999085,None,1294.8146283999085,None,6,3.2025657994672656,1294.8146283999085,None,3.2025657994672656,1298.0325237996876,None,1298.5355750992894,None,1298.5355750992894,None,r,0.3215997004881501,1298.5355750992894,None,0.3215997004881501,,,94Aloud,001,2022_Nov_21_1347,ProdSingRedoBetween,2021.2.3,60.034856321279314,
,,,,42,0,42,0,,,,,,,,,,,,,,,,,,,,,,1301.6361218001693,None,,,,,,,,,,,,,,,,,company,0,43,aloud,old,yellow,1299.3923631999642,None,1299.3923631999642,None,6,1.256853399798274,1299.3923631999642,None,1.256853399798274,1300.67153329961,None,1301.1908911000937,None,1301.1908911000937,None,r,0.41829019971191883,1301.1908911000937,None,0.41829019971191883,,,94Aloud,001,2022_Nov_21_1347,ProdSingRedoBetween,2021.2.3,60.034856321279314,
,,,,43,0,43,0,,,,,,,,,,,,,,,,,,,,,,1304.6891553001478,None,,,,,,,,,,,,,,,,,interview,164,44,aloud,new,null,1302.1409486001357,None,1302.1409486001357,None,6,1.5643420992419124,1302.1409486001357,None,1.5643420992419124,1303.7279006000608,None,1304.2389398999512,None,1304.2389398999512,None,r,0.42627699952572584,1304.2389398999512,None,0.42627699952572584,,,94Aloud,001,2022_Nov_21_1347,ProdSingRedoBetween,2021.2.3,60.034856321279314,
,,,,44,0,44,0,,,,,,,,,,,,,,,,,,,,,,1307.5417163996026,None,,,,,,,,,,,,,,,,,drama,13,45,aloud,old,yellow,1305.189766199328,None,1305.189766199328,None,6,1.4354756008833647,1305.189766199328,None,1.4354756008833647,1306.6425781995058,None,1307.1416628994048,None,1307.1416628994048,None,r,0.3715768000110984,1307.1416628994048,None,0.3715768000110984,,,94Aloud,001,2022_Nov_21_1347,ProdSingRedoBetween,2021.2.3,60.034856321279314,
,,,,45,0,45,0,,,,,,,,,,,,,,,,,,,,,,1310.0462639993057,None,,,,,,,,,,,,,,,,,curve,75,46,aloud,old,red,1308.0487944995984,None,1308.0487944995984,None,6,1.1524562006816268,1308.0487944995984,None,1.1524562006816268,1309.2348026996478,None,1309.7465276997536,None,1309.7465276997536,None,r,0.2786019993945956,1309.7465276997536,None,0.2786019993945956,,,94Aloud,001,2022_Nov_21_1347,ProdSingRedoBetween,2021.2.3,60.034856321279314,
,,,,46,0,46,0,,,,,,,,,,,,,,,,,,,,,,1313.297944699414,None,,,,,,,,,,,,,,,,,dance,97,47,aloud,new,null,1310.5615869993344,None,1310.5615869993344,None,1,1.8396892007440329,1310.5615869993344,None,1.8396892007440329,1312.4348734999076,None,1312.947541099973,None,1312.947541099973,None,n,0.333729499951005,1312.947541099973,None,0.333729499951005,,,94Aloud,001,2022_Nov_21_1347,ProdSingRedoBetween,2021.2.3,60.034856321279314,
,,,,47,0,47,0,,,,,,,,,,,,,,,,,,,,,,1317.2348555997014,None,,,,,,,,,,,,,,,,,music,107,48,aloud,new,null,1313.810295299627,None,1313.810295299627,None,1,2.230807900428772,1313.810295299627,None,2.230807900428772,1316.067812600173,None,1316.5692636994645,None,1316.5692636994645,None,n,0.6479003001004457,1316.5692636994645,None,0.6479003001004457,,,94Aloud,001,2022_Nov_21_1347,ProdSingRedoBetween,2021.2.3,60.034856321279314,
,,,,48,0,48,0,,,,,,,,,,,,,,,,,,,,,,1323.7580973999575,None,,,,,,,,,,,,,,,,,region,142,49,aloud,new,null,1317.7442891998217,None,1317.7442891998217,None,4,5.073109399527311,1317.7442891998217,None,5.073109399527311,1322.8519850997254,None,1323.3647023001686,None,1323.3647023001686,None,f,0.37252299953252077,1323.3647023001686,None,0.37252299953252077,,,94Aloud,001,2022_Nov_21_1347,ProdSingRedoBetween,2021.2.3,60.034856321279314,
,,,,49,0,49,0,,,,,,,,,,,,,,,,,,,,,,1327.1115068001673,None,,,,,,,,,,,,,,,,,second,115,50,aloud,new,null,1324.261744399555,None,1324.261744399555,None,4,1.835800999775529,1324.261744399555,None,1.835800999775529,1326.135758499615,None,1326.644501700066,None,1326.644501700066,None,f,0.44472429994493723,1326.644501700066,None,0.44472429994493723,,,94Aloud,001,2022_Nov_21_1347,ProdSingRedoBetween,2021.2.3,60.034856321279314,
,,,,50,0,50,0,,,,,,,,,,,,,,,,,,,,,,1329.8308886000887,None,,,,,,,,,,,,,,,,,narrow,35,51,aloud,old,blue,1327.624213299714,None,1327.624213299714,None,6,1.344931200146675,1327.624213299714,None,1.344931200146675,1328.9977922998369,None,1329.5035199997947,None,1329.5035199997947,None,r,0.30563140008598566,1329.5035199997947,None,0.30563140008598566,,,94Aloud,001,2022_Nov_21_1347,ProdSingRedoBetween,2021.2.3,60.034856321279314,
,,,,51,0,51,0,,,,,,,,,,,,,,,,,,,,,,1333.3174874996766,None,,,,,,,,,,,,,,,,,sunset,127,52,aloud,new,null,1330.341861399822,None,1330.341861399822,None,1,1.5953612998127937,1330.341861399822,None,1.5953612998127937,1331.966133499518,None,1332.4669718993828,None,1332.4669718993828,None,n,0.8222666997462511,1332.4669718993828,None,0.8222666997462511,,,94Aloud,001,2022_Nov_21_1347,ProdSingRedoBetween,2021.2.3,60.034856321279314,
,,,,52,0,52,0,,,,,,,,,,,,,,,,,,,,,,1336.4218184994534,None,,,,,,,,,,,,,,,,,century,11,53,aloud,old,yellow,1333.821002099663,None,1333.821002099663,None,6,1.55610609985888,1333.821002099663,None,1.55610609985888,1335.4073524996638,None,1335.9248888995498,None,1335.9248888995498,None,r,0.4683221001178026,1335.9248888995498,None,0.4683221001178026,,,94Aloud,001,2022_Nov_21_1347,ProdSingRedoBetween,2021.2.3,60.034856321279314,
,,,,53,0,53,0,,,,,,,,,,,,,,,,,,,,,,1340.075287799351,None,,,,,,,,,,,,,,,,,health,96,54,aloud,new,null,1336.9244773993269,None,1336.9244773993269,None,6,2.220712499693036,1336.9244773993269,None,2.220712499693036,1339.1750606996939,None,1339.675376500003,None,1339.675376500003,None,r,0.3737482000142336,1339.675376500003,None,0.3737482000142336,,,94Aloud,001,2022_Nov_21_1347,ProdSingRedoBetween,2021.2.3,60.034856321279314,
,,,,54,0,54,0,,,,,,,,,,,,,,,,,,,,,,1343.4611505996436,None,,,,,,,,,,,,,,,,,impact,83,55,aloud,old,red,1340.576726499945,None,1340.576726499945,None,1,1.7764101000502706,1340.576726499945,None,1.7764101000502706,1342.3767717992887,None,1342.8774352995679,None,1342.8774352995679,None,n,0.5637099994346499,1342.8774352995679,None,0.5637099994346499,,,94Aloud,001,2022_Nov_21_1347,ProdSingRedoBetween,2021.2.3,60.034856321279314,
,,,,55,0,55,0,,,,,,,,,,,,,,,,,,,,,,1346.9512534001842,None,,,,,,,,,,,,,,,,,story,45,56,aloud,old,blue,1343.9709887998179,None,1343.9709887998179,None,4,2.046160999685526,1343.9709887998179,None,2.046160999685526,1346.0503218993545,None,1346.573020399548,None,1346.573020399548,None,f,0.34815850015729666,1346.573020399548,None,0.34815850015729666,,,94Aloud,001,2022_Nov_21_1347,ProdSingRedoBetween,2021.2.3,60.034856321279314,
,,,,56,0,56,0,,,,,,,,,,,,,,,,,,,,,,1349.9176129996777,None,,,,,,,,,,,,,,,,,cousin,20,57,aloud,old,yellow,1347.4862732999027,None,1347.4862732999027,None,6,1.570919900201261,1347.4862732999027,None,1.570919900201261,1349.090016699396,None,1349.6007432993501,None,1349.6007432993501,None,r,0.2884162999689579,1349.6007432993501,None,0.2884162999689579,,,94Aloud,001,2022_Nov_21_1347,ProdSingRedoBetween,2021.2.3,60.034856321279314,
,,,,57,0,57,0,,,,,,,,,,,,,,,,,,,,,,1353.5380948996171,None,,,,,,,,,,,,,,,,,split,157,58,aloud,new,null,1350.4258932992816,None,1350.4258932992816,None,6,1.5032450007274747,1350.4258932992816,None,1.5032450007274747,1351.9543105997145,None,1352.4536299994215,None,1352.4536299994215,None,r,1.067467000335455,1352.4536299994215,None,1.067467000335455,,,94Aloud,001,2022_Nov_21_1347,ProdSingRedoBetween,2021.2.3,60.034856321279314,
,,,,58,0,58,0,,,,,,,,,,,,,,,,,,,,,,1356.7577570993453,None,,,,,,,,,,,,,,,,,division,92,59,aloud,new,null,1354.0476183993742,None,1354.0476183993742,None,1,1.7134092999622226,1354.0476183993742,None,1.7134092999622226,1355.790452199988,None,1356.3068972993642,None,1356.3068972993642,None,n,0.4223352996632457,1356.3068972993642,None,0.4223352996632457,,,94Aloud,001,2022_Nov_21_1347,ProdSingRedoBetween,2021.2.3,60.034856321279314,
,,,,59,0,59,0,,,,,,,,,,,,,,,,,,,,,,1359.4771235994995,None,,,,,,,,,,,,,,,,,empty,5,60,aloud,old,yellow,1357.2809552000836,None,1357.2809552000836,None,6,1.424146200530231,1357.2809552000836,None,1.424146200530231,1358.7273877998814,None,1359.229931499809,None,1359.229931499809,None,r,0.21923859976232052,1359.229931499809,None,0.21923859976232052,,,94Aloud,001,2022_Nov_21_1347,ProdSingRedoBetween,2021.2.3,60.034856321279314,
,,,,60,0,60,0,,,,,,,,,,,,,,,,,,,,,,1363.4310627998784,None,,,,,,,,,,,,,,,,,discussion,93,61,aloud,new,null,1359.9904047995806,None,1359.9904047995806,None,4,2.3948012003675103,1359.9904047995806,None,2.3948012003675103,1362.419993000105,None,1362.9322864999995,None,1362.9322864999995,None,f,0.4688369994983077,1362.9322864999995,None,0.4688369994983077,,,94Aloud,001,2022_Nov_21_1347,ProdSingRedoBetween,2021.2.3,60.034856321279314,
,,,,61,0,61,0,,,,,,,,,,,,,,,,,,,,,,1366.5339509993792,None,,,,,,,,,,,,,,,,,device,140,62,aloud,new,null,1363.9343877993524,None,1363.9343877993524,None,1,1.6828080993145704,1363.9343877993524,None,1.6828080993145704,1365.6403353996575,None,1366.1505608996376,None,1366.1505608996376,None,n,0.3544728998094797,1366.1505608996376,None,0.3544728998094797,,,94Aloud,001,2022_Nov_21_1347,ProdSingRedoBetween,2021.2.3,60.034856321279314,
,,,,62,0,62,0,,,,,,,,,,,,,,,,,,,,,,1369.6036342000589,None,,,,,,,,,,,,,,,,,force,60,63,aloud,old,red,1367.0382843995467,None,1367.0382843995467,None,4,1.5387340998277068,1367.0382843995467,None,1.5387340998277068,1368.6042798999697,None,1369.1119531001896,None,1369.1119531001896,None,f,0.47324900049716234,1369.1119531001896,None,0.47324900049716234,,,94Aloud,001,2022_Nov_21_1347,ProdSingRedoBetween,2021.2.3,60.034856321279314,
,,,,63,0,63,0,,,,,,,,,,,,,,,,,,,,,,1373.2909517996013,None,,,,,,,,,,,,,,,,,marriage,95,64,aloud,new,null,1370.1070494996384,None,1370.1070494996384,None,6,2.182133199647069,1370.1070494996384,None,2.182133199647069,1372.3106176992878,None,1372.8282747995108,None,1372.8282747995108,None,r,0.4450754998251796,1372.8282747995108,None,0.4450754998251796,,,94Aloud,001,2022_Nov_21_1347,ProdSingRedoBetween,2021.2.3,60.034856321279314,
,,,,64,0,64,0,,,,,,,,,,,,,,,,,,,,,,1376.6943060001358,None,,,,,,,,,,,,,,,,,carry,106,65,aloud,new,null,1373.794528500177,None,1373.794528500177,None,5,2.062757200561464,1373.794528500177,None,2.062757200561464,1375.8887502998114,None,1376.3957268996164,None,1376.3957268996164,None,f,0.2773463996127248,1376.3957268996164,None,0.2773463996127248,,,94Aloud,001,2022_Nov_21_1347,ProdSingRedoBetween,2021.2.3,60.034856321279314,
,,,,65,0,65,0,,,,,,,,,,,,,,,,,,,,,,1382.7336697997525,None,,,,,,,,,,,,,,,,,prime,91,66,aloud,new,null,1377.1946808993816,None,1377.1946808993816,None,1,3.7983932001516223,1377.1946808993816,None,3.7983932001516223,1381.0165685992688,None,1381.5164439994842,None,1381.5164439994842,None,n,1.1966450000181794,1381.5164439994842,None,1.1966450000181794,,,94Aloud,001,2022_Nov_21_1347,ProdSingRedoBetween,2021.2.3,60.034856321279314,
,,,,66,0,66,0,,,,,,,,,,,,,,,,,,,,,,1385.3772344999015,None,,,,,,,,,,,,,,,,,frank,80,67,aloud,old,red,1383.2465739995241,None,1383.2465739995241,None,6,1.3065202003344893,1383.2465739995241,None,1.3065202003344893,1384.5708494000137,None,1385.0923050995916,None,1385.0923050995916,None,r,0.2610602006316185,1385.0923050995916,None,0.2610602006316185,,,94Aloud,001,2022_Nov_21_1347,ProdSingRedoBetween,2021.2.3,60.034856321279314,
,,,,67,0,67,0,,,,,,,,,,,,,,,,,,,,,,1388.4226575000212,None,,,,,,,,,,,,,,,,,junior,41,68,aloud,old,blue,1385.8929105997086,None,1385.8929105997086,None,1,1.6284269001334906,1385.8929105997086,None,1.6284269001334906,1387.554226799868,None,1388.0556970993057,None,1388.0556970993057,None,n,0.3373785000294447,1388.0556970993057,None,0.3373785000294447,,,94Aloud,001,2022_Nov_21_1347,ProdSingRedoBetween,2021.2.3,60.034856321279314,
,,,,68,0,68,0,,,,,,,,,,,,,,,,,,,,,,1391.2254229998216,None,,,,,,,,,,,,,,,,,damage,27,69,aloud,old,yellow,1388.9310241993517,None,1388.9310241993517,None,5,1.3740010997280478,1388.9310241993517,None,1.3740010997280478,1390.3255415000021,None,1390.8292985996231,None,1390.8292985996231,None,f,0.37981889955699444,1390.8292985996231,None,0.37981889955699444,,,94Aloud,001,2022_Nov_21_1347,ProdSingRedoBetween,2021.2.3,60.034856321279314,
,,,,69,0,69,0,,,,,,,,,,,,,,,,,,,,,,1394.6121736997738,None,,,,,,,,,,,,,,,,,escape,76,70,aloud,old,red,1391.7289261994883,None,1391.7289261994883,None,5,2.1121335001662374,1391.7289261994883,None,2.1121335001662374,1393.8627022001892,None,1394.362069199793,None,1394.362069199793,None,f,0.22293309960514307,1394.362069199793,None,0.22293309960514307,,,94Aloud,001,2022_Nov_21_1347,ProdSingRedoBetween,2021.2.3,60.034856321279314,
,,,,70,0,70,0,,,,,,,,,,,,,,,,,,,,,,1398.0987773993984,None,,,,,,,,,,,,,,,,,design,154,71,aloud,new,null,1395.1189080001786,None,1395.1189080001786,None,4,2.1221619993448257,1395.1189080001786,None,2.1221619993448257,1397.264813600108,None,1397.7700154995546,None,1397.7700154995546,None,f,0.31102109979838133,1397.7700154995546,None,0.31102109979838133,,,94Aloud,001,2022_Nov_21_1347,ProdSingRedoBetween,2021.2.3,60.034856321279314,
,,,,71,0,71,0,,,,,,,,,,,,,,,,,,,,,,1401.6874826997519,None,,,,,,,,,,,,,,,,,level,135,72,aloud,new,null,1398.6054277997464,None,1398.6054277997464,None,1,2.1715430999174714,1398.6054277997464,None,2.1715430999174714,1400.8093630997464,None,1401.3244158001617,None,1401.3244158001617,None,n,0.3408236997202039,1401.3244158001617,None,0.3408236997202039,,,94Aloud,001,2022_Nov_21_1347,ProdSingRedoBetween,2021.2.3,60.034856321279314,
,,,,72,0,72,0,,,,,,,,,,,,,,,,,,,,,,1405.1059834994376,None,,,,,,,,,,,,,,,,,straight,150,73,aloud,new,null,1402.1968762995675,None,1402.1968762995675,None,4,2.092437599785626,1402.1968762995675,None,2.092437599785626,1404.3062881994992,None,1404.8089614994824,None,1404.8089614994824,None,f,0.27214560005813837,1404.8089614994824,None,0.27214560005813837,,,94Aloud,001,2022_Nov_21_1347,ProdSingRedoBetween,2021.2.3,60.034856321279314,
,,,,73,0,73,0,,,,,,,,,,,,,,,,,,,,,,1411.0619161995128,None,,,,,,,,,,,,,,,,,resistance,171,74,aloud,new,null,1405.6189741995186,None,1405.6189741995186,None,6,3.382089199498296,1405.6189741995186,None,3.382089199498296,1409.0342831993476,None,1409.5509575996548,None,1409.5509575996548,None,r,1.4820969002321362,1409.5509575996548,None,1.4820969002321362,,,94Aloud,001,2022_Nov_21_1347,ProdSingRedoBetween,2021.2.3,60.034856321279314,
,,,,74,0,74,0,,,,,,,,,,,,,,,,,,,,,,1413.8980636000633,None,,,,,,,,,,,,,,,,,appeal,21,75,aloud,old,yellow,1411.57006429974,None,1411.57006429974,None,6,1.270986800082028,1411.57006429974,None,1.270986800082028,1412.8670310992748,None,1413.3830396998674,None,1413.3830396998674,None,r,0.4899814995005727,1413.3830396998674,None,0.4899814995005727,,,94Aloud,001,2022_Nov_21_1347,ProdSingRedoBetween,2021.2.3,60.034856321279314,
,,,,75,0,75,0,,,,,,,,,,,,,,,,,,,,,,1417.069588799961,None,,,,,,,,,,,,,,,,,state,69,76,aloud,old,red,1414.4105615997687,None,1414.4105615997687,None,4,1.55044149979949,1414.4105615997687,None,1.55044149979949,1415.9847389999777,None,1416.487364899367,None,1416.487364899367,None,f,0.5536892004311085,1416.487364899367,None,0.5536892004311085,,,94Aloud,001,2022_Nov_21_1347,ProdSingRedoBetween,2021.2.3,60.034856321279314,
,,,,76,0,76,0,,,,,,,,,,,,,,,,,,,,,,1421.5057343998924,None,,,,,,,,,,,,,,,,,quantity,25,77,aloud,old,yellow,1417.5866021998227,None,1417.5866021998227,None,6,2.862406499683857,1417.5866021998227,None,2.862406499683857,1420.4727457994595,None,1420.9793857997283,None,1420.9793857997283,None,r,0.5095907002687454,1420.9793857997283,None,0.5095907002687454,,,94Aloud,001,2022_Nov_21_1347,ProdSingRedoBetween,2021.2.3,60.034856321279314,
,,,,77,0,77,0,,,,,,,,,,,,,,,,,,,,,,1424.3919116994366,None,,,,,,,,,,,,,,,,,atmosphere,66,78,aloud,old,red,1422.0192837994546,None,1422.0192837994546,None,6,1.2538048001006246,1422.0192837994546,None,1.2538048001006246,1423.2941758995876,None,1423.8128186995164,None,1423.8128186995164,None,r,0.5641721999272704,1423.8128186995164,None,0.5641721999272704,,,94Aloud,001,2022_Nov_21_1347,ProdSingRedoBetween,2021.2.3,60.034856321279314,
,,,,78,0,78,0,,,,,,,,,,,,,,,,,,,,,,1427.0486320992932,None,,,,,,,,,,,,,,,,,emergency,40,79,aloud,old,blue,1424.8931935001165,None,1424.8931935001165,None,6,1.2278113001957536,1424.8931935001165,None,1.2278113001957536,1426.146422999911,None,1426.6620033001527,None,1426.6620033001527,None,r,0.36322089936584234,1426.6620033001527,None,0.36322089936584234,,,94Aloud,001,2022_Nov_21_1347,ProdSingRedoBetween,2021.2.3,60.034856321279314,
,,,,79,0,79,0,,,,,,,,,,,,,,,,,,,,,,1430.2491374993697,None,,,,,,,,,,,,,,,,,court,71,80,aloud,old,red,1427.5617725001648,None,1427.5617725001648,None,4,1.7915644999593496,1427.5617725001648,None,1.7915644999593496,1429.392262299545,None,1429.9030682994053,None,1429.9030682994053,None,f,0.32183089945465326,1429.9030682994053,None,0.32183089945465326,,,94Aloud,001,2022_Nov_21_1347,ProdSingRedoBetween,2021.2.3,60.034856321279314,
,,,,80,0,80,0,,,,,,,,,,,,,,,,,,,,,,1433.8679770994931,None,,,,,,,,,,,,,,,,,charter,148,81,aloud,new,null,1430.765039499849,None,1430.765039499849,None,1,1.771959699690342,1430.765039499849,None,1.771959699690342,1432.568280399777,None,1433.0713264998049,None,1433.0713264998049,None,n,0.7776455003768206,1433.0713264998049,None,0.7776455003768206,,,94Aloud,001,2022_Nov_21_1347,ProdSingRedoBetween,2021.2.3,60.034856321279314,
,,,,81,0,81,0,,,,,,,,,,,,,,,,,,,,,,1436.9544289996848,None,,,,,,,,,,,,,,,,,instrument,1,82,aloud,old,yellow,1434.3743228996173,None,1434.3743228996173,None,6,1.5626370999962091,1434.3743228996173,None,1.5626370999962091,1435.9546668995172,None,1436.4596898993477,None,1436.4596898993477,None,r,0.46933129988610744,1436.4596898993477,None,0.46933129988610744,,,94Aloud,001,2022_Nov_21_1347,ProdSingRedoBetween,2021.2.3,60.034856321279314,
,,,,82,0,82,0,,,,,,,,,,,,,,,,,,,,,,1440.4243812998757,None,,,,,,,,,,,,,,,,,discovery,120,83,aloud,new,null,1437.4668990001082,None,1437.4668990001082,None,4,2.0380122996866703,1437.4668990001082,None,2.0380122996866703,1439.5282648997381,None,1440.0444636996835,None,1440.0444636996835,None,f,0.364427899941802,1440.0444636996835,None,0.364427899941802,,,94Aloud,001,2022_Nov_21_1347,ProdSingRedoBetween,2021.2.3,60.034856321279314,
,,,,83,0,83,0,,,,,,,,,,,,,,,,,,,,,,1443.2949099000543,None,,,,,,,,,,,,,,,,,victory,73,84,aloud,old,red,1440.9345715995878,None,1440.9345715995878,None,6,1.5064455000683665,1440.9345715995878,None,1.5064455000683665,1442.4661868996918,None,1442.9787563998252,None,1442.9787563998252,None,r,0.2942866003140807,1442.9787563998252,None,0.2942866003140807,,,94Aloud,001,2022_Nov_21_1347,ProdSingRedoBetween,2021.2.3,60.034856321279314,
,,,,84,0,84,0,,,,,,,,,,,,,,,,,,,,,,1446.380451399833,None,,,,,,,,,,,,,,,,,beauty,111,85,aloud,new,null,1443.8073982996866,None,1443.8073982996866,None,1,1.537508999928832,1443.8073982996866,None,1.537508999928832,1445.3638137001544,None,1445.8673676000908,None,1445.8673676000908,None,n,0.49358739983290434,1445.8673676000908,None,0.49358739983290434,,,94Aloud,001,2022_Nov_21_1347,ProdSingRedoBetween,2021.2.3,60.034856321279314,
,,,,85,0,85,0,,,,,,,,,,,,,,,,,,,,,,1449.7024786993861,None,,,,,,,,,,,,,,,,,threat,12,86,aloud,old,yellow,1446.8897359995171,None,1446.8897359995171,None,5,1.5591911999508739,1446.8897359995171,None,1.5591911999508739,1448.4688778994605,None,1448.986364999786,None,1448.986364999786,None,f,0.6946203000843525,1448.986364999786,None,0.6946203000843525,,,94Aloud,001,2022_Nov_21_1347,ProdSingRedoBetween,2021.2.3,60.034856321279314,
,,,,86,0,86,0,,,,,,,,,,,,,,,,,,,,,,1453.2873449996114,None,,,,,,,,,,,,,,,,,relation,178,87,aloud,new,null,1450.230263799429,None,1450.230263799429,None,1,2.0506731001660228,1450.230263799429,None,2.0506731001660228,1452.3048727996647,None,1452.820401799865,None,1452.820401799865,None,n,0.4445949997752905,1452.820401799865,None,0.4445949997752905,,,94Aloud,001,2022_Nov_21_1347,ProdSingRedoBetween,2021.2.3,60.034856321279314,
,,,,87,0,87,0,,,,,,,,,,,,,,,,,,,,,,1457.5917072994635,None,,,,,,,,,,,,,,,,,evidence,99,88,aloud,new,null,1453.7985185999423,None,1453.7985185999423,None,4,2.6504220999777317,1453.7985185999423,None,2.6504220999777317,1456.476845599711,None,1456.9912174995989,None,1456.9912174995989,None,f,0.5777374999597669,1456.9912174995989,None,0.5777374999597669,,,94Aloud,001,2022_Nov_21_1347,ProdSingRedoBetween,2021.2.3,60.034856321279314,
,,,,88,0,88,0,,,,,,,,,,,,,,,,,,,,,,1462.3463504994288,None,,,,,,,,,,,,,,,,,order,138,89,aloud,new,null,1458.1043842993677,None,1458.1043842993677,None,5,3.1525493999943137,1458.1043842993677,None,3.1525493999943137,1461.2821560995653,None,1461.804231199436,None,1461.804231199436,None,f,0.5166621003299952,1461.804231199436,None,0.5166621003299952,,,94Aloud,001,2022_Nov_21_1347,ProdSingRedoBetween,2021.2.3,60.034856321279314,
,,,,89,0,89,0,,,,,,,,,,,,,,,,,,,,,,1466.6004757992923,None,,,,,,,,,,,,,,,,,broke,160,90,aloud,new,null,1462.8700701994821,None,1462.8700701994821,None,1,2.3467859998345375,1462.8700701994821,None,2.3467859998345375,1465.2340131001547,None,1465.7391844997182,None,1465.7391844997182,None,n,0.8457606993615627,1465.7391844997182,None,0.8457606993615627,,,94Aloud,001,2022_Nov_21_1347,ProdSingRedoBetween,2021.2.3,60.034856321279314,
,,,,90,0,90,0,,,,,,,,,,,,,,,,,,,,,,1470.6546671995893,None,,,,,,,,,,,,,,,,,ground,161,91,aloud,new,null,1467.109147099778,None,1467.109147099778,None,1,2.299736199900508,1467.109147099778,None,2.299736199900508,1469.436794099398,None,1469.9393155993894,None,1469.9393155993894,None,n,0.6935825999826193,1469.9393155993894,None,0.6935825999826193,,,94Aloud,001,2022_Nov_21_1347,ProdSingRedoBetween,2021.2.3,60.034856321279314,
,,,,91,0,91,0,,,,,,,,,,,,,,,,,,,,,,1473.8254050994292,None,,,,,,,,,,,,,,,,,property,88,92,aloud,old,red,1471.1671553999186,None,1471.1671553999186,None,6,1.521708800457418,1471.1671553999186,None,1.521708800457418,1472.709950399585,None,1473.2289629997686,None,1473.2289629997686,None,r,0.5719764996320009,1473.2289629997686,None,0.5719764996320009,,,94Aloud,001,2022_Nov_21_1347,ProdSingRedoBetween,2021.2.3,60.034856321279314,
,,,,92,0,92,0,,,,,,,,,,,,,,,,,,,,,,1477.1277956999838,None,,,,,,,,,,,,,,,,,interior,58,93,aloud,old,blue,1474.325128399767,None,1474.325128399767,None,4,1.827793199568987,1474.325128399767,None,1.827793199568987,1476.1777625000104,None,1476.6809158995748,None,1476.6809158995748,None,f,0.4240011004731059,1476.6809158995748,None,0.4240011004731059,,,94Aloud,001,2022_Nov_21_1347,ProdSingRedoBetween,2021.2.3,60.034856321279314,
,,,,93,0,93,0,,,,,,,,,,,,,,,,,,,,,,1482.449779599905,None,,,,,,,,,,,,,,,,,fight,9,94,aloud,old,yellow,1477.631199900061,None,1477.631199900061,None,1,2.4736609999090433,1477.631199900061,None,2.4736609999090433,1480.1321454998106,None,1480.6372401993722,None,1480.6372401993722,None,n,1.7956245001405478,1480.6372401993722,None,1.7956245001405478,,,94Aloud,001,2022_Nov_21_1347,ProdSingRedoBetween,2021.2.3,60.034856321279314,
,,,,94,0,94,0,,,,,,,,,,,,,,,,,,,,,,1486.5215894998983,None,,,,,,,,,,,,,,,,,route,110,95,aloud,new,null,1482.9580977996811,None,1482.9580977996811,None,6,2.130853299982846,1482.9580977996811,None,2.130853299982846,1485.1231113001704,None,1485.637204299681,None,1485.637204299681,None,r,0.8597446996718645,1485.637204299681,None,0.8597446996718645,,,94Aloud,001,2022_Nov_21_1347,ProdSingRedoBetween,2021.2.3,60.034856321279314,
,,,,95,0,95,0,,,,,,,,,,,,,,,,,,,,,,1490.574382700026,None,,,,,,,,,,,,,,,,,comfort,18,96,aloud,old,yellow,1487.0259019993246,None,1487.0259019993246,None,4,2.2150061996653676,1487.0259019993246,None,2.2150061996653676,1489.2580558992922,None,1489.7573060998693,None,1489.7573060998693,None,f,0.7877106005325913,1489.7573060998693,None,0.7877106005325913,,,94Aloud,001,2022_Nov_21_1347,ProdSingRedoBetween,2021.2.3,60.034856321279314,
,,,,96,0,96,0,,,,,,,,,,,,,,,,,,,,,,1495.679640399292,None,,,,,,,,,,,,,,,,,surface,169,97,aloud,new,null,1491.0828796001151,None,1491.0828796001151,None,6,3.4540232997387648,1491.0828796001151,None,3.4540232997387648,1494.5712620001286,None,1495.0800406001508,None,1495.0800406001508,None,r,0.5768718998879194,1495.0800406001508,None,0.5768718998879194,,,94Aloud,001,2022_Nov_21_1347,ProdSingRedoBetween,2021.2.3,60.034856321279314,
,,,,97,0,97,0,,,,,,,,,,,,,,,,,,,,,,1501.4855421995744,None,,,,,,,,,,,,,,,,,little,53,98,aloud,old,blue,1496.1878298996016,None,1496.1878298996016,None,1,4.285070200450718,1496.1878298996016,None,4.285070200450718,1500.5017309999093,None,1501.0017499001697,None,1501.0017499001697,None,n,0.455175600014627,1501.0017499001697,None,0.455175600014627,,,94Aloud,001,2022_Nov_21_1347,ProdSingRedoBetween,2021.2.3,60.034856321279314,
,,,,98,0,98,0,,,,,,,,,,,,,,,,,,,,,,1508.4114454993978,None,,,,,,,,,,,,,,,,,display,74,99,aloud,old,red,1501.9943328993395,None,1501.9943328993395,None,1,5.454500200226903,1501.9943328993395,None,5.454500200226903,1507.4766806000844,None,1507.9919344997033,None,1507.9919344997033,None,n,0.4009106997400522,1507.9919344997033,None,0.4009106997400522,,,94Aloud,001,2022_Nov_21_1347,ProdSingRedoBetween,2021.2.3,60.034856321279314,
,,,,99,0,99,0,,,,,,,,,,,,,,,,,,,,,,1511.9625124996528,None,,,,,,,,,,,,,,,,,throw,174,100,aloud,new,null,1508.9322998998687,None,1508.9322998998687,None,4,2.0207136999815702,1508.9322998998687,None,2.0207136999815702,1510.9872495001182,None,1511.4955853996798,None,1511.4955853996798,None,f,0.44123040046542883,1511.4955853996798,None,0.44123040046542883,,,94Aloud,001,2022_Nov_21_1347,ProdSingRedoBetween,2021.2.3,60.034856321279314,
,,,,100,0,100,0,,,,,,,,,,,,,,,,,,,,,,1514.7654037000611,None,,,,,,,,,,,,,,,,,taste,56,101,aloud,old,blue,1512.4736615000293,None,1512.4736615000293,None,5,1.4953020000830293,1512.4736615000293,None,1.4953020000830293,1514.0001592999324,None,1514.5179822994396,None,1514.5179822994396,None,f,0.2269377000629902,1514.5179822994396,None,0.2269377000629902,,,94Aloud,001,2022_Nov_21_1347,ProdSingRedoBetween,2021.2.3,60.034856321279314,
,,,,101,0,101,0,,,,,,,,,,,,,,,,,,,,,,1517.670808499679,None,,,,,,,,,,,,,,,,,silence,59,102,aloud,old,yellow,1515.2742189997807,None,1515.2742189997807,None,6,1.4707467006519437,1515.2742189997807,None,1.4707467006519437,1516.7749774996191,None,1517.2861736994237,None,1517.2861736994237,None,r,0.362894999794662,1517.2861736994237,None,0.362894999794662,,,94Aloud,001,2022_Nov_21_1347,ProdSingRedoBetween,2021.2.3,60.034856321279314,
,,,,102,0,102,0,,,,,,,,,,,,,,,,,,,,,,1520.3896020995453,None,,,,,,,,,,,,,,,,,color,62,103,aloud,old,red,1518.192053699866,None,1518.192053699866,None,6,1.3449432998895645,1518.192053699866,None,1.3449432998895645,1519.5630270997062,None,1520.0706047993153,None,1520.0706047993153,None,r,0.298225499689579,1520.0706047993153,None,0.298225499689579,,,94Aloud,001,2022_Nov_21_1347,ProdSingRedoBetween,2021.2.3,60.034856321279314,
,,,,103,0,103,0,,,,,,,,,,,,,,,,,,,,,,1523.407282399945,None,,,,,,,,,,,,,,,,,novel,129,104,aloud,new,null,1520.9074141997844,None,1520.9074141997844,None,1,1.533385300077498,1520.9074141997844,None,1.533385300077498,1522.4562412993982,None,1522.9597900994122,None,1522.9597900994122,None,n,0.4169343998655677,1522.9597900994122,None,0.4169343998655677,,,94Aloud,001,2022_Nov_21_1347,ProdSingRedoBetween,2021.2.3,60.034856321279314,
,,,,104,0,104,0,,,,,,,,,,,,,,,,,,,,,,1526.593591099605,None,,,,,,,,,,,,,,,,,recall,85,105,aloud,old,red,1523.9155775001273,None,1523.9155775001273,None,4,1.693240899592638,1523.9155775001273,None,1.693240899592638,1525.626138399355,None,1526.130740299821,None,1526.130740299821,None,f,0.4381289007142186,1526.130740299821,None,0.4381289007142186,,,94Aloud,001,2022_Nov_21_1347,ProdSingRedoBetween,2021.2.3,60.034856321279314,
,,,,105,0,105,0,,,,,,,,,,,,,,,,,,,,,,1529.630150699988,None,,,,,,,,,,,,,,,,,answer,52,106,aloud,old,blue,1527.0972229996696,None,1527.0972229996696,None,5,1.6397995995357633,1527.0972229996696,None,1.6397995995357633,1528.7660408997908,None,1529.287650199607,None,1529.287650199607,None,f,0.32120570074766874,1529.287650199607,None,0.32120570074766874,,,94Aloud,001,2022_Nov_21_1347,ProdSingRedoBetween,2021.2.3,60.034856321279314,
,,,,106,0,106,0,,,,,,,,,,,,,,,,,,,,,,1533.5173368994147,None,,,,,,,,,,,,,,,,,department,128,107,aloud,new,null,1530.1409595999867,None,1530.1409595999867,None,5,2.5558258006349206,1530.1409595999867,None,2.5558258006349206,1532.7192187998444,None,1533.2338199000806,None,1533.2338199000806,None,f,0.26299940049648285,1533.2338199000806,None,0.26299940049648285,,,94Aloud,001,2022_Nov_21_1347,ProdSingRedoBetween,2021.2.3,60.034856321279314,
,,,,107,0,107,0,,,,,,,,,,,,,,,,,,,,,,1536.2534366995096,None,,,,,,,,,,,,,,,,,tragedy,109,108,aloud,new,null,1534.0268930001184,None,1534.0268930001184,None,6,1.3099736999720335,1534.0268930001184,None,1.3099736999720335,1535.3536487994716,None,1535.8532555997372,None,1535.8532555997372,None,r,0.3715756004676223,1535.8532555997372,None,0.3715756004676223,,,94Aloud,001,2022_Nov_21_1347,ProdSingRedoBetween,2021.2.3,60.034856321279314,
,,,,108,0,108,0,,,,,,,,,,,,,,,,,,,,,,1539.2564613996074,None,,,,,,,,,,,,,,,,,sound,147,109,aloud,new,null,1536.7621781993657,None,1536.7621781993657,None,1,1.4946224996820092,1536.7621781993657,None,1.4946224996820092,1538.2766622994095,None,1538.7893816996366,None,1538.7893816996366,None,n,0.451431299559772,1538.7893816996366,None,0.451431299559772,,,94Aloud,001,2022_Nov_21_1347,ProdSingRedoBetween,2021.2.3,60.034856321279314,
,,,,109,0,109,0,,,,,,,,,,,,,,,,,,,,,,1542.476309299469,None,,,,,,,,,,,,,,,,,education,103,110,aloud,new,null,1539.762943599373,None,1539.762943599373,None,6,1.8220302993431687,1539.762943599373,None,1.8220302993431687,1541.6177084995434,None,1542.126116999425,None,1542.126116999425,None,r,0.3226918997243047,1542.126116999425,None,0.3226918997243047,,,94Aloud,001,2022_Nov_21_1347,ProdSingRedoBetween,2021.2.3,60.034856321279314,
,,,,110,0,110,0,,,,,,,,,,,,,,,,,,,,,,1545.379186399281,None,,,,,,,,,,,,,,,,,profession,119,111,aloud,new,null,1542.994820999913,None,1542.994820999913,None,6,1.5020278003066778,1542.994820999913,None,1.5020278003066778,1544.5163128999993,None,1545.028890799731,None,1545.028890799731,None,r,0.3240084992721677,1545.028890799731,None,0.3240084992721677,,,94Aloud,001,2022_Nov_21_1347,ProdSingRedoBetween,2021.2.3,60.034856321279314,
,,,,111,0,111,0,,,,,,,,,,,,,,,,,,,,,,1548.732338800095,None,,,,,,,,,,,,,,,,,suspect,47,112,aloud,old,blue,1545.8914271993563,None,1545.8914271993563,None,5,1.9973360002040863,1545.8914271993563,None,1.9973360002040863,1547.9164321999997,None,1548.4256619000807,None,1548.4256619000807,None,f,0.28720800019800663,1548.4256619000807,None,0.28720800019800663,,,94Aloud,001,2022_Nov_21_1347,ProdSingRedoBetween,2021.2.3,60.034856321279314,
,,,,112,0,112,0,,,,,,,,,,,,,,,,,,,,,,1551.8584456993267,None,,,,,,,,,,,,,,,,,sleep,57,113,aloud,old,blue,1549.2401041993871,None,1549.2401041993871,None,5,1.8167052995413542,1549.2401041993871,None,1.8167052995413542,1551.0874616997316,None,1551.6110356999561,None,1551.6110356999561,None,f,0.21387150045484304,1551.6110356999561,None,0.21387150045484304,,,94Aloud,001,2022_Nov_21_1347,ProdSingRedoBetween,2021.2.3,60.034856321279314,
,,,,113,0,113,0,,,,,,,,,,,,,,,,,,,,,,1554.6384225999936,None,,,,,,,,,,,,,,,,,theme,33,114,aloud,old,blue,1552.3697058996186,None,1552.3697058996186,None,5,1.4390942994505167,1552.3697058996186,None,1.4390942994505167,1553.8376640994102,None,1554.3410200001672,None,1554.3410200001672,None,f,0.2677488997578621,1554.3410200001672,None,0.2677488997578621,,,94Aloud,001,2022_Nov_21_1347,ProdSingRedoBetween,2021.2.3,60.034856321279314,
,,,,114,0,114,0,,,,,,,,,,,,,,,,,,,,,,1557.3909605992958,None,,,,,,,,,,,,,,,,,measure,50,115,aloud,old,blue,1555.1390110999346,None,1555.1390110999346,None,6,1.4219490000978112,1555.1390110999346,None,1.4219490000978112,1556.5985057996586,None,1557.1162933995947,None,1557.1162933995947,None,r,0.24449979979544878,1557.1162933995947,None,0.24449979979544878,,,94Aloud,001,2022_Nov_21_1347,ProdSingRedoBetween,2021.2.3,60.034856321279314,
,,,,115,0,115,0,,,,,,,,,,,,,,,,,,,,,,1559.976861299947,None,,,,,,,,,,,,,,,,,defeat,173,116,aloud,new,null,1557.8945610998198,None,1557.8945610998198,None,6,1.3702509002760053,1557.8945610998198,None,1.3702509002760053,1559.294989399612,None,1559.8105025999248,None,1559.8105025999248,None,r,0.14226659946143627,1559.8105025999248,None,0.14226659946143627,,,94Aloud,001,2022_Nov_21_1347,ProdSingRedoBetween,2021.2.3,60.034856321279314,
,,,,116,0,116,0,,,,,,,,,,,,,,,,,,,,,,1562.4296028995886,None,,,,,,,,,,,,,,,,,mayor,61,117,aloud,old,red,1560.4867084994912,None,1560.4867084994912,None,6,1.2181482007727027,1560.4867084994912,None,1.2181482007727027,1561.7370400996879,None,1562.2494834000245,None,1562.2494834000245,None,r,0.15129690058529377,1562.2494834000245,None,0.15129690058529377,,,94Aloud,001,2022_Nov_21_1347,ProdSingRedoBetween,2021.2.3,60.034856321279314,
,,,,117,0,117,0,,,,,,,,,,,,,,,,,,,,,,1566.052914599888,None,,,,,,,,,,,,,,,,,candidate,98,118,aloud,new,null,1562.944334199652,None,1562.944334199652,None,1,1.952335000038147,1562.944334199652,None,1.952335000038147,1564.91632679943,None,1565.416838400066,None,1565.416838400066,None,n,0.6159092001616955,1565.416838400066,None,0.6159092001616955,,,94Aloud,001,2022_Nov_21_1347,ProdSingRedoBetween,2021.2.3,60.034856321279314,
,,,,118,0,118,0,,,,,,,,,,,,,,,,,,,,,,1570.2038075998425,None,,,,,,,,,,,,,,,,,collection,26,119,aloud,old,yellow,1566.5713844001293,None,1566.5713844001293,None,1,2.485360000282526,1566.5713844001293,None,2.485360000282526,1569.0876767998561,None,1569.5890937997028,None,1569.5890937997028,None,n,0.5875690998509526,1569.5890937997028,None,0.5875690998509526,,,94Aloud,001,2022_Nov_21_1347,ProdSingRedoBetween,2021.2.3,60.034856321279314,
,,,,119,0,119,0,,,,,,,,,,,,,,,,,,,,,,1579.8300085999072,None,,,,,,,,,,,,,,,,,problem,159,120,aloud,new,null,1570.7076712995768,None,1570.7076712995768,None,4,8.244951800443232,1570.7076712995768,None,8.244951800443232,1579.0040576998144,None,1579.5133536001667,None,1579.5133536001667,None,f,0.2874631993472576,1579.5133536001667,None,0.2874631993472576,,,94Aloud,001,2022_Nov_21_1347,ProdSingRedoBetween,2021.2.3,60.034856321279314,
,,,,120,0,120,0,,,,,,,,,,,,,,,,,,,,,,1582.786220099777,None,,,,,,,,,,,,,,,,,crowd,158,121,aloud,new,null,1580.330544100143,None,1580.330544100143,None,4,1.5662035997956991,1580.330544100143,None,1.5662035997956991,1581.916661599651,None,1582.4272731998935,None,1582.4272731998935,None,f,0.3256746996194124,1582.4272731998935,None,0.3256746996194124,,,94Aloud,001,2022_Nov_21_1347,ProdSingRedoBetween,2021.2.3,60.034856321279314,
,,,,121,0,121,0,,,,,,,,,,,,,,,,,,,,,,1586.1365043995902,None,,,,,,,,,,,,,,,,,plane,28,122,aloud,old,yellow,1583.3095006998628,None,1583.3095006998628,None,1,1.6352413995191455,1583.3095006998628,None,1.6352413995191455,1584.9706106996164,None,1585.4899931000546,None,1585.4899931000546,None,n,0.6308158999308944,1585.4899931000546,None,0.6308158999308944,,,94Aloud,001,2022_Nov_21_1347,ProdSingRedoBetween,2021.2.3,60.034856321279314,
,,,,122,0,122,0,,,,,,,,,,,,,,,,,,,,,,1590.0403909999877,None,,,,,,,,,,,,,,,,,travel,7,123,aloud,old,yellow,1586.6402632994577,None,1586.6402632994577,None,1,2.384599800221622,1586.6402632994577,None,2.384599800221622,1589.0630821995437,None,1589.5764540992677,None,1589.5764540992677,None,n,0.44025580026209354,1589.5764540992677,None,0.44025580026209354,,,94Aloud,001,2022_Nov_21_1347,ProdSingRedoBetween,2021.2.3,60.034856321279314,
,,,,123,0,123,0,,,,,,,,,,,,,,,,,,,,,,1593.5773069001734,None,,,,,,,,,,,,,,,,,command,43,124,aloud,old,blue,1590.5484774000943,None,1590.5484774000943,None,1,2.1962287994101644,1590.5484774000943,None,2.1962287994101644,1592.7606942998245,None,1593.2604369996116,None,1593.2604369996116,None,n,0.3005904005840421,1593.2604369996116,None,0.3005904005840421,,,94Aloud,001,2022_Nov_21_1347,ProdSingRedoBetween,2021.2.3,60.034856321279314,
,,,,124,0,124,0,,,,,,,,,,,,,,,,,,,,,,1597.9983797995374,None,,,,,,,,,,,,,,,,,minor,172,125,aloud,new,null,1594.0853100996464,None,1594.0853100996464,None,6,2.7394337002187967,1594.0853100996464,None,2.7394337002187967,1596.8503703000024,None,1597.3698549997061,None,1597.3698549997061,None,r,0.6068286001682281,1597.3698549997061,None,0.6068286001682281,,,94Aloud,001,2022_Nov_21_1347,ProdSingRedoBetween,2021.2.3,60.034856321279314,
,,,,125,0,125,0,,,,,,,,,,,,,,,,,,,,,,1603.1094764992595,None,,,,,,,,,,,,,,,,,production,78,126,aloud,old,red,1598.504687199369,None,1598.504687199369,None,1,3.0320076001808047,1598.504687199369,None,3.0320076001808047,1601.5531973000616,None,1602.0576008995995,None,1602.0576008995995,None,n,1.0312064001336694,1602.0576008995995,None,1.0312064001336694,,,94Aloud,001,2022_Nov_21_1347,ProdSingRedoBetween,2021.2.3,60.034856321279314,
,,,,126,0,126,0,,,,,,,,,,,,,,,,,,,,,,1606.1398032996804,None,,,,,,,,,,,,,,,,,general,177,127,aloud,new,null,1603.628905300051,None,1603.628905300051,None,4,1.707850399427116,1603.628905300051,None,1.707850399427116,1605.358402799815,None,1605.8764319000766,None,1605.8764319000766,None,f,0.24439100082963705,1605.8764319000766,None,0.24439100082963705,,,94Aloud,001,2022_Nov_21_1347,ProdSingRedoBetween,2021.2.3,60.034856321279314,
,,,,127,0,127,0,,,,,,,,,,,,,,,,,,,,,,1608.742167999968,None,,,,,,,,,,,,,,,,,agency,42,128,aloud,old,blue,1606.6529387999326,None,1606.6529387999326,None,6,1.371688799932599,1606.6529387999326,None,1.371688799932599,1608.0449246997014,None,1608.5590292001143,None,1608.5590292001143,None,r,0.16166399978101254,1608.5590292001143,None,0.16166399978101254,,,94Aloud,001,2022_Nov_21_1347,ProdSingRedoBetween,2021.2.3,60.034856321279314,
,,,,128,0,128,0,,,,,,,,,,,,,,,,,,,,,,1611.6471464000642,None,,,,,,,,,,,,,,,,,article,114,129,aloud,new,null,1609.2552454993129,None,1609.2552454993129,None,4,1.6494169998914003,1609.2552454993129,None,1.6494169998914003,1610.9276401996613,None,1611.4287810996175,None,1611.4287810996175,None,f,0.19605119992047548,1611.4287810996175,None,0.19605119992047548,,,94Aloud,001,2022_Nov_21_1347,ProdSingRedoBetween,2021.2.3,60.034856321279314,
,,,,129,0,129,0,,,,,,,,,,,,,,,,,,,,,,1614.264649800025,None,,,,,,,,,,,,,,,,,cross,86,130,aloud,old,red,1612.1634800992906,None,1612.1634800992906,None,6,1.3491655001416802,1612.1634800992906,None,1.3491655001416802,1613.531952300109,None,1614.0371281998232,None,1614.0371281998232,None,r,0.2036295998841524,1614.0371281998232,None,0.2036295998841524,,,94Aloud,001,2022_Nov_21_1347,ProdSingRedoBetween,2021.2.3,60.034856321279314,
,,,,130,0,130,0,,,,,,,,,,,,,,,,,,,,,,1617.1005561994389,None,,,,,,,,,,,,,,,,,bicycle,143,131,aloud,new,null,1614.768920299597,None,1614.768920299597,None,1,1.5277490997686982,1614.768920299597,None,1.5277490997686982,1616.3179930998012,None,1616.8261494999751,None,1616.8261494999751,None,n,0.2465775003656745,1616.8261494999751,None,0.2465775003656745,,,94Aloud,001,2022_Nov_21_1347,ProdSingRedoBetween,2021.2.3,60.034856321279314,
,,,,131,0,131,0,,,,,,,,,,,,,,,,,,,,,,1621.2571013001725,None,,,,,,,,,,,,,,,,,balance,117,132,aloud,new,null,1617.6039937995374,None,1617.6039937995374,None,4,2.6687789000570774,1617.6039937995374,None,2.6687789000570774,1620.3046073997393,None,1620.8105042995885,None,1620.8105042995885,None,f,0.41436969954520464,1620.8105042995885,None,0.41436969954520464,,,94Aloud,001,2022_Nov_21_1347,ProdSingRedoBetween,2021.2.3,60.034856321279314,
,,,,132,0,132,0,,,,,,,,,,,,,,,,,,,,,,1624.3079193001613,None,,,,,,,,,,,,,,,,,shock,101,133,aloud,new,null,1621.782784299925,None,1621.782784299925,None,6,1.8579421006143093,1621.782784299925,None,1.8579421006143093,1623.6634874995798,None,1624.1758770998567,None,1624.1758770998567,None,r,0.10477409977465868,1624.1758770998567,None,0.10477409977465868,,,94Aloud,001,2022_Nov_21_1347,ProdSingRedoBetween,2021.2.3,60.034856321279314,
,,,,133,0,133,0,,,,,,,,,,,,,,,,,,,,,,1627.494400399737,None,,,,,,,,,,,,,,,,,primary,14,134,aloud,old,yellow,1624.8170058997348,None,1624.8170058997348,None,6,2.0636446001008153,1624.8170058997348,None,2.0636446001008153,1626.9123026998714,None,1627.4350159000605,None,1627.4350159000605,None,r,0.029947400093078613,1627.4350159000605,None,0.029947400093078613,,,94Aloud,001,2022_Nov_21_1347,ProdSingRedoBetween,2021.2.3,60.034856321279314,
,,,,134,0,134,0,,,,,,,,,,,,,,,,,,,,,,1630.1970978993922,None,,,,,,,,,,,,,,,,,captain,153,135,aloud,new,null,1627.9981311000884,None,1627.9981311000884,None,6,1.5384992994368076,1627.9981311000884,None,1.5384992994368076,1629.564398800023,None,1630.063797599636,None,1630.063797599636,None,r,0.11284989956766367,1630.063797599636,None,0.11284989956766367,,,94Aloud,001,2022_Nov_21_1347,ProdSingRedoBetween,2021.2.3,60.034856321279314,
,,,,135,0,135,0,,,,,,,,,,,,,,,,,,,,,,1637.954892899841,None,,,,,,,,,,,,,,,,,reach,176,136,aloud,new,null,1630.6978105995804,None,1630.6978105995804,None,6,4.214865799993277,1630.6978105995804,None,4.214865799993277,1634.9384955000132,None,1635.4525643996894,None,1635.4525643996894,None,r,2.484004099853337,1635.4525643996894,None,2.484004099853337,,,94Aloud,001,2022_Nov_21_1347,ProdSingRedoBetween,2021.2.3,60.034856321279314,
,,,,136,0,136,0,,,,,,,,,,,,,,,,,,,,,,1641.4751025997102,None,,,,,,,,,,,,,,,,,sight,102,137,aloud,new,null,1638.4647744996473,None,1638.4647744996473,None,1,2.087797999382019,1638.4647744996473,None,2.087797999382019,1640.5774731999263,None,1641.0915375994518,None,1641.0915375994518,None,n,0.3570678997784853,1641.0915375994518,None,0.3570678997784853,,,94Aloud,001,2022_Nov_21_1347,ProdSingRedoBetween,2021.2.3,60.034856321279314,
,,,,137,0,137,0,,,,,,,,,,,,,,,,,,,,,,1643.9442270994186,None,,,,,,,,,,,,,,,,,express,105,138,aloud,new,null,1641.975724699907,None,1641.975724699907,None,6,1.3529497999697924,1641.975724699907,None,1.3529497999697924,1643.3466916996986,None,1643.8606306994334,None,1643.8606306994334,None,r,0.05205539986491203,1643.8606306994334,None,0.05205539986491203,,,94Aloud,001,2022_Nov_21_1347,ProdSingRedoBetween,2021.2.3,60.034856321279314,
,,,,138,0,138,0,,,,,,,,,,,,,,,,,,,,,,1647.247445399873,None,,,,,,,,,,,,,,,,,hunger,55,139,aloud,old,blue,1644.453954199329,None,1644.453954199329,None,6,2.090717200189829,1644.453954199329,None,2.090717200189829,1646.5632087001577,None,1647.0680641997606,None,1647.0680641997606,None,r,0.14851370081305504,1647.0680641997606,None,0.14851370081305504,,,94Aloud,001,2022_Nov_21_1347,ProdSingRedoBetween,2021.2.3,60.034856321279314,
,,,,139,0,139,0,,,,,,,,,,,,,,,,,,,,,,1651.0846384996548,None,,,,,,,,,,,,,,,,,strain,131,140,aloud,new,null,1647.7565572997555,None,1647.7565572997555,None,4,2.475998300127685,1647.7565572997555,None,2.475998300127685,1650.251731899567,None,1650.7572552999482,None,1650.7572552999482,None,f,0.29940960090607405,1650.7572552999482,None,0.29940960090607405,,,94Aloud,001,2022_Nov_21_1347,ProdSingRedoBetween,2021.2.3,60.034856321279314,
,,,,140,0,140,0,,,,,,,,,,,,,,,,,,,,,,1653.7043295996264,None,,,,,,,,,,,,,,,,,industry,65,141,aloud,old,red,1651.5901919994503,None,1651.5901919994503,None,6,1.5384577997028828,1651.5901919994503,None,1.5384577997028828,1653.1584124993533,None,1653.6705112997442,None,1653.6705112997442,None,r,0.018115299753844738,1653.6705112997442,None,0.018115299753844738,,,94Aloud,001,2022_Nov_21_1347,ProdSingRedoBetween,2021.2.3,60.034856321279314,
,,,,141,0,141,0,,,,,,,,,,,,,,,,,,,,,,1657.657846399583,None,,,,,,,,,,,,,,,,,review,156,142,aloud,new,null,1654.2085194000974,None,1654.2085194000974,None,1,2.527959399856627,1654.2085194000974,None,2.527959399856627,1656.7610791996121,None,1657.2742483001202,None,1657.2742483001202,None,n,0.3663432002067566,1657.2742483001202,None,0.3663432002067566,,,94Aloud,001,2022_Nov_21_1347,ProdSingRedoBetween,2021.2.3,60.034856321279314,
,,,,142,0,142,0,,,,,,,,,,,,,,,,,,,,,,1661.4115464994684,None,,,,,,,,,,,,,,,,,safety,51,143,aloud,old,blue,1658.1583770997822,None,1658.1583770997822,None,4,2.4504268001765013,1658.1583770997822,None,2.4504268001765013,1660.6387884998694,None,1661.1480799997225,None,1661.1480799997225,None,f,0.23655710089951754,1661.1480799997225,None,0.23655710089951754,,,94Aloud,001,2022_Nov_21_1347,ProdSingRedoBetween,2021.2.3,60.034856321279314,
,,,,143,0,143,0,,,,,,,,,,,,,,,,,,,,,,1664.0975722996518,None,,,,,,,,,,,,,,,,,birth,15,144,aloud,old,yellow,1661.9131172001362,None,1661.9131172001362,None,6,1.3995711002498865,1661.9131172001362,None,1.3995711002498865,1663.3347116997465,None,1663.8474375000224,None,1663.8474375000224,None,r,0.22516349982470274,1663.8474375000224,None,0.22516349982470274,,,94Aloud,001,2022_Nov_21_1347,ProdSingRedoBetween,2021.2.3,60.034856321279314,
,,,,144,0,144,0,,,,,,,,,,,,,,,,,,,,,,1666.9171121995896,None,,,,,,,,,,,,,,,,,gesture,126,145,aloud,new,null,1664.608680400066,None,1664.608680400066,None,1,1.4960377998650074,1664.608680400066,None,1.4960377998650074,1666.1442590998486,None,1666.6502088997513,None,1666.6502088997513,None,n,0.23838850017637014,1666.6502088997513,None,0.23838850017637014,,,94Aloud,001,2022_Nov_21_1347,ProdSingRedoBetween,2021.2.3,60.034856321279314,
,,,,145,0,145,0,,,,,,,,,,,,,,,,,,,,,,1670.1703065000474,None,,,,,,,,,,,,,,,,,front,79,146,aloud,old,red,1667.4344742996618,None,1667.4344742996618,None,4,2.0621503004804254,1667.4344742996618,None,2.0621503004804254,1669.52340419963,None,1670.0366567000747,None,1670.0366567000747,None,f,0.11588350031524897,1670.0366567000747,None,0.11588350031524897,,,94Aloud,001,2022_Nov_21_1347,ProdSingRedoBetween,2021.2.3,60.034856321279314,
,,,,146,0,146,0,,,,,,,,,,,,,,,,,,,,,,1675.6425214000046,None,,,,,,,,,,,,,,,,,household,125,147,aloud,new,null,1670.6729453001171,None,1670.6729453001171,None,5,4.1196462996304035,1670.6729453001171,None,4.1196462996304035,1674.814855599776,None,1675.3257420994341,None,1675.3257420994341,None,f,0.29892969969660044,1675.3257420994341,None,0.29892969969660044,,,94Aloud,001,2022_Nov_21_1347,ProdSingRedoBetween,2021.2.3,60.034856321279314,
,,,,147,0,147,0,,,,,,,,,,,,,,,,,,,,,,1678.094927799888,None,,,,,,,,,,,,,,,,,symbol,179,148,aloud,new,null,1676.1461600996554,None,1676.1461600996554,None,6,1.3024735003709793,1676.1461600996554,None,1.3024735003709793,1677.4786487994716,None,1677.982419299893,None,1677.982419299893,None,r,0.09012959990650415,1677.982419299893,None,0.09012959990650415,,,94Aloud,001,2022_Nov_21_1347,ProdSingRedoBetween,2021.2.3,60.034856321279314,
,,,,148,0,148,0,,,,,,,,,,,,,,,,,,,,,,1680.6668576998636,None,,,,,,,,,,,,,,,,,mankind,166,149,aloud,new,null,1678.6030727997422,None,1678.6030727997422,None,1,1.2374931005761027,1678.6030727997422,None,1.2374931005761027,1679.8645909996703,None,1680.3687835000455,None,1680.3687835000455,None,n,0.27199240028858185,1680.3687835000455,None,0.27199240028858185,,,94Aloud,001,2022_Nov_21_1347,ProdSingRedoBetween,2021.2.3,60.034856321279314,
,,,,149,0,149,0,,,,,,,,,,,,,,,,,,,,,,1683.6504443995655,None,,,,,,,,,,,,,,,,,election,3,150,aloud,old,yellow,1681.1814108993858,None,1681.1814108993858,None,1,1.619281499646604,1681.1814108993858,None,1.619281499646604,1682.8239553999156,None,1683.3339188992977,None,1683.3339188992977,None,n,0.2986432993784547,1683.3339188992977,None,0.2986432993784547,,,94Aloud,001,2022_Nov_21_1347,ProdSingRedoBetween,2021.2.3,60.034856321279314,
,,,,150,0,150,0,,,,,,,,,,,,,,,,,,,,,,1688.0882024997845,None,,,,,,,,,,,,,,,,,finish,133,151,aloud,new,null,1684.1511022001505,None,1684.1511022001505,None,4,2.31344769988209,1684.1511022001505,None,2.31344769988209,1686.4878500001505,None,1686.9872718993574,None,1686.9872718993574,None,f,1.0852894000709057,1686.9872718993574,None,1.0852894000709057,,,94Aloud,001,2022_Nov_21_1347,ProdSingRedoBetween,2021.2.3,60.034856321279314,
,,,,151,0,151,0,,,,,,,,,,,,,,,,,,,,,,1693.1124820001423,None,,,,,,,,,,,,,,,,,vision,144,152,aloud,new,null,1688.5918438993394,None,1688.5918438993394,None,4,3.8006686000153422,1688.5918438993394,None,3.8006686000153422,1692.4180788993835,None,1692.9313656995073,None,1692.9313656995073,None,f,0.1572198998183012,1692.9313656995073,None,0.1572198998183012,,,94Aloud,001,2022_Nov_21_1347,ProdSingRedoBetween,2021.2.3,60.034856321279314,
,,,,152,0,152,0,,,,,,,,,,,,,,,,,,,,,,1695.5789761999622,None,,,,,,,,,,,,,,,,,track,6,153,aloud,old,yellow,1693.636833500117,None,1693.636833500117,None,6,1.2997038997709751,1693.636833500117,None,1.2997038997709751,1694.9630141993985,None,1695.4668862000108,None,1695.4668862000108,None,r,0.0937067000195384,1695.4668862000108,None,0.0937067000195384,,,94Aloud,001,2022_Nov_21_1347,ProdSingRedoBetween,2021.2.3,60.034856321279314,
,,,,153,0,153,0,,,,,,,,,,,,,,,,,,,,,,1698.0314047001302,None,,,,,,,,,,,,,,,,,weight,70,154,aloud,old,red,1696.0826320992783,None,1696.0826320992783,None,6,1.3338842000812292,1696.0826320992783,None,1.3338842000812292,1697.450215799734,None,1697.9664701996371,None,1697.9664701996371,None,r,0.04209539946168661,1697.9664701996371,None,0.04209539946168661,,,94Aloud,001,2022_Nov_21_1347,ProdSingRedoBetween,2021.2.3,60.034856321279314,
,,,,154,0,154,0,,,,,,,,,,,,,,,,,,,,,,1702.7528257993981,None,,,,,,,,,,,,,,,,,welcome,2,155,aloud,old,yellow,1698.5407079001889,None,1698.5407079001889,None,6,2.299723000265658,1698.5407079001889,None,2.299723000265658,1700.8685328001156,None,1701.3709624996409,None,1701.3709624996409,None,r,1.3576060999184847,1701.3709624996409,None,1.3576060999184847,,,94Aloud,001,2022_Nov_21_1347,ProdSingRedoBetween,2021.2.3,60.034856321279314,
,,,,155,0,155,0,,,,,,,,,,,,,,,,,,,,,,1706.4398254994303,None,,,,,,,,,,,,,,,,,piece,23,156,aloud,old,yellow,1703.264205799438,None,1703.264205799438,None,6,1.4962788997218013,1703.264205799438,None,1.4962788997218013,1704.7897565001622,None,1705.3054432999343,None,1705.3054432999343,None,r,1.1190058998763561,1705.3054432999343,None,1.1190058998763561,,,94Aloud,001,2022_Nov_21_1347,ProdSingRedoBetween,2021.2.3,60.034856321279314,
,,,,156,0,156,0,,,,,,,,,,,,,,,,,,,,,,1712.613793199882,None,,,,,,,,,,,,,,,,,accident,54,157,aloud,old,blue,1706.9478854993358,None,1706.9478854993358,None,6,4.844607699662447,1706.9478854993358,None,4.844607699662447,1711.811671199277,None,1712.3152347998694,None,1712.3152347998694,None,r,0.27733829990029335,1712.3152347998694,None,0.27733829990029335,,,94Aloud,001,2022_Nov_21_1347,ProdSingRedoBetween,2021.2.3,60.034856321279314,
,,,,157,0,157,0,,,,,,,,,,,,,,,,,,,,,,1714.9835484996438,None,,,,,,,,,,,,,,,,,breath,72,158,aloud,old,red,1713.1156397992745,None,1713.1156397992745,None,6,1.2528818994760513,1713.1156397992745,None,1.2528818994760513,1714.3983658999205,None,1714.9055837998167,None,1714.9055837998167,None,r,0.05497629940509796,1714.9055837998167,None,0.05497629940509796,,,94Aloud,001,2022_Nov_21_1347,ProdSingRedoBetween,2021.2.3,60.034856321279314,
,,,,158,0,158,0,,,,,,,,,,,,,,,,,,,,,,1720.0542224999517,None,,,,,,,,,,,,,,,,,material,134,159,aloud,new,null,1715.5061729997396,None,1715.5061729997396,None,4,3.7742461003363132,1715.5061729997396,None,3.7742461003363132,1719.305626699701,None,1719.8199584996328,None,1719.8199584996328,None,f,0.21270660031586885,1719.8199584996328,None,0.21270660031586885,,,94Aloud,001,2022_Nov_21_1347,ProdSingRedoBetween,2021.2.3,60.034856321279314,
,,,,159,0,159,0,,,,,,,,,,,,,,,,,,,,,,1722.4635792998597,None,,,,,,,,,,,,,,,,,capital,100,160,aloud,new,null,1720.5662450995296,None,1720.5662450995296,None,6,1.2904878007248044,1720.5662450995296,None,1.2904878007248044,1721.8959981994703,None,1722.412005899474,None,1722.412005899474,None,r,0.02863449975848198,1722.412005899474,None,0.02863449975848198,,,94Aloud,001,2022_Nov_21_1347,ProdSingRedoBetween,2021.2.3,60.034856321279314,
,,,,160,0,160,0,,,,,,,,,,,,,,,,,,,,,,1725.7424286995083,None,,,,,,,,,,,,,,,,,guard,162,161,aloud,new,null,1722.9930007001385,None,1722.9930007001385,None,1,2.0235042991116643,1722.9930007001385,None,2.0235042991116643,1725.0426158998162,None,1725.5456700995564,None,1725.5456700995564,None,n,0.1748501006513834,1725.5456700995564,None,0.1748501006513834,,,94Aloud,001,2022_Nov_21_1347,ProdSingRedoBetween,2021.2.3,60.034856321279314,
,,,,161,0,161,0,,,,,,,,,,,,,,,,,,,,,,1729.6461339993402,None,,,,,,,,,,,,,,,,,patient,49,162,aloud,old,blue,1726.2446766998619,None,1726.2446766998619,None,6,1.4918622002005577,1726.2446766998619,None,1.4918622002005577,1727.766252699308,None,1728.2805873993784,None,1728.2805873993784,None,r,1.3438921999186277,1728.2805873993784,None,1.3438921999186277,,,94Aloud,001,2022_Nov_21_1347,ProdSingRedoBetween,2021.2.3,60.034856321279314,
,,,,162,0,162,0,,,,,,,,,,,,,,,,,,,,,,1733.3667225996032,None,,,,,,,,,,,,,,,,,permit,168,163,aloud,new,null,1730.1495591001585,None,1730.1495591001585,None,1,2.2990268003195524,1730.1495591001585,None,2.2990268003195524,1732.470563199371,None,1732.9855129001662,None,1732.9855129001662,None,n,0.35101559944450855,1732.9855129001662,None,0.35101559944450855,,,94Aloud,001,2022_Nov_21_1347,ProdSingRedoBetween,2021.2.3,60.034856321279314,
,,,,163,0,163,0,,,,,,,,,,,,,,,,,,,,,,1735.5355035997927,None,,,,,,,,,,,,,,,,,murder,37,164,aloud,old,blue,1733.8721333993599,None,1733.8721333993599,None,6,1.080340700224042,1733.8721333993599,None,1.080340700224042,1734.9700069995597,None,1735.485636299476,None,1735.485636299476,None,r,0.026832199655473232,1735.485636299476,None,0.026832199655473232,,,94Aloud,001,2022_Nov_21_1347,ProdSingRedoBetween,2021.2.3,60.034856321279314,
,,,,164,0,164,0,,,,,,,,,,,,,,,,,,,,,,1738.438416599296,None,,,,,,,,,,,,,,,,,drink,94,165,aloud,new,null,1736.045486100018,None,1736.045486100018,None,1,1.5310108996927738,1736.045486100018,None,1.5310108996927738,1737.6066789999604,None,1738.1259945994243,None,1738.1259945994243,None,n,0.2904591001570225,1738.1259945994243,None,0.2904591001570225,,,94Aloud,001,2022_Nov_21_1347,ProdSingRedoBetween,2021.2.3,60.034856321279314,
,,,,165,0,165,0,,,,,,,,,,,,,,,,,,,,,,1740.8241280000657,None,,,,,,,,,,,,,,,,,bucket,29,166,aloud,old,blue,1738.9464890994132,None,1738.9464890994132,None,6,1.2299310993403196,1738.9464890994132,None,1.2299310993403196,1740.20783859957,None,1740.7133332993835,None,1740.7133332993835,None,r,0.08710470050573349,1740.7133332993835,None,0.08710470050573349,,,94Aloud,001,2022_Nov_21_1347,ProdSingRedoBetween,2021.2.3,60.034856321279314,
,,,,166,0,166,0,,,,,,,,,,,,,,,,,,,,,,1746.129396399483,None,,,,,,,,,,,,,,,,,majority,132,167,aloud,new,null,1741.3340053996071,None,1741.3340053996071,None,4,4.226540300063789,1741.3340053996071,None,4.226540300063789,1745.5879555996507,None,1746.0988064995036,None,1746.0988064995036,None,f,0.013680900447070599,1746.0988064995036,None,0.013680900447070599,,,94Aloud,001,2022_Nov_21_1347,ProdSingRedoBetween,2021.2.3,60.034856321279314,
,,,,167,0,167,0,,,,,,,,,,,,,,,,,,,,,,1750.8542155995965,None,,,,,,,,,,,,,,,,,style,4,168,aloud,old,yellow,1746.6334271999076,None,1746.6334271999076,None,5,3.6070255003869534,1746.6334271999076,None,3.6070255003869534,1750.2685151994228,None,1750.776842199266,None,1750.776842199266,None,f,0.05567849986255169,1750.776842199266,None,0.05567849986255169,,,94Aloud,001,2022_Nov_21_1347,ProdSingRedoBetween,2021.2.3,60.034856321279314,
,,,,168,0,168,0,,,,,,,,,,,,,,,,,,,,,,1754.55882359948,None,,,,,,,,,,,,,,,,,chief,136,169,aloud,new,null,1751.3689909996465,None,1751.3689909996465,None,1,2.487402499653399,1751.3689909996465,None,2.487402499653399,1753.8881810000166,None,1754.390188199468,None,1754.390188199468,None,n,0.14619280025362968,1754.390188199468,None,0.14619280025362968,,,94Aloud,001,2022_Nov_21_1347,ProdSingRedoBetween,2021.2.3,60.034856321279314,
,,,,169,0,169,0,,,,,,,,,,,,,,,,,,,,,,1757.3406360996887,None,,,,,,,,,,,,,,,,,dozen,151,170,aloud,new,null,1755.0718050999567,None,1755.0718050999567,None,1,1.5286279004067183,1755.0718050999567,None,1.5286279004067183,1756.6260877996683,None,1757.142516599968,None,1757.142516599968,None,n,0.1699266005307436,1757.142516599968,None,0.1699266005307436,,,94Aloud,001,2022_Nov_21_1347,ProdSingRedoBetween,2021.2.3,60.034856321279314,
,,,,170,0,170,0,,,,,,,,,,,,,,,,,,,,,,1759.7114066993818,None,,,,,,,,,,,,,,,,,goose,130,171,aloud,new,null,1757.8475645994768,None,1757.8475645994768,None,1,1.176800899207592,1757.8475645994768,None,1.176800899207592,1759.0452299993485,None,1759.5630443999544,None,1759.5630443999544,None,n,0.12563509959727526,1759.5630443999544,None,0.12563509959727526,,,94Aloud,001,2022_Nov_21_1347,ProdSingRedoBetween,2021.2.3,60.034856321279314,
,,,,171,0,171,0,,,,,,,,,,,,,,,,,,,,,,1763.3465745998546,None,,,,,,,,,,,,,,,,,rough,63,172,aloud,old,red,1760.2268046997488,None,1760.2268046997488,None,6,1.1256579998880625,1760.2268046997488,None,1.1256579998880625,1761.3779691997916,None,1761.87967129983,None,1761.87967129983,None,r,1.440717600286007,1761.87967129983,None,1.440717600286007,,,94Aloud,001,2022_Nov_21_1347,ProdSingRedoBetween,2021.2.3,60.034856321279314,
,,,,172,0,172,0,,,,,,,,,,,,,,,,,,,,,,1765.9841359993443,None,,,,,,,,,,,,,,,,,raise,139,173,aloud,new,null,1763.8563104001805,None,1763.8563104001805,None,4,1.560122700408101,1763.8563104001805,None,1.560122700408101,1765.4332470996305,None,1765.946440000087,None,1765.946440000087,None,f,0.022142600268125534,1765.946440000087,None,0.022142600268125534,,,94Aloud,001,2022_Nov_21_1347,ProdSingRedoBetween,2021.2.3,60.034856321279314,
,,,,173,0,173,0,,,,,,,,,,,,,,,,,,,,,,1768.8854112001136,None,,,,,,,,,,,,,,,,,revolution,46,174,aloud,old,blue,1766.509990199469,None,1766.509990199469,None,6,1.0263654999434948,1766.509990199469,None,1.0263654999434948,1767.5705563994125,None,1768.0848100995645,None,1768.0848100995645,None,r,0.7796013001352549,1768.0848100995645,None,0.7796013001352549,,,94Aloud,001,2022_Nov_21_1347,ProdSingRedoBetween,2021.2.3,60.034856321279314,
,,,,174,0,174,0,,,,,,,,,,,,,,,,,,,,,,1772.6416925992817,None,,,,,,,,,,,,,,,,,hearing,121,175,aloud,new,null,1769.3859765995294,None,1769.3859765995294,None,4,2.3904553996399045,1769.3859765995294,None,2.3904553996399045,1771.8106833994389,None,1772.3224973995239,None,1772.3224973995239,None,f,0.2859605001285672,1772.3224973995239,None,0.2859605001285672,,,94Aloud,001,2022_Nov_21_1347,ProdSingRedoBetween,2021.2.3,60.034856321279314,
