StudyLoop.thisRepN,StudyLoop.thisTrialN,StudyLoop.thisN,StudyLoop.thisIndex,TestLoop.thisRepN,TestLoop.thisTrialN,TestLoop.thisN,TestLoop.thisIndex,textCondition.started,textCondition.stopped,keyCondition.keys,keyCondition.rt,keyCondition.started,keyCondition.stopped,Condition,textWelcome.started,textWelcome.stopped,keyWelcome.keys,keyWelcome.rt,keyWelcome.started,keyWelcome.stopped,textAloud.started,textAloud.stopped,textSilent.started,textSilent.stopped,textSing.started,textSing.stopped,conditional_text.started,conditional_text.stopped,textBlank500.started,textBlank500.stopped,study_word,study_num,study_order,study_type,word_color,textStudy.started,textStudy.stopped,keyStudy.keys,keyStudy.started,keyStudy.stopped,textTestInstructions.started,textTestInstructions.stopped,key_resp_3.keys,key_resp_3.rt,key_resp_3.started,key_resp_3.stopped,test_word,test_num,test_order,test_condition,old_new_test,test_word_original_color,textConf.started,textConf.stopped,textConfScale.started,textConfScale.stopped,keyConf.keys,keyConf.rt,keyConf.started,keyConf.stopped,confidence response time,textTestBlank.started,textTestBlank.stopped,textRKN.started,textRKN.stopped,textRKNScale.started,textRKNScale.stopped,keyRKN.keys,keyRKN.rt,keyRKN.started,keyRKN.stopped,rkn response time,textEnd.started,textEnd.stopped,participant,session,date,expName,psychopyVersion,frameRate
,,,,,,,,33.6452104,None,b,231.2045908,33.6452104,None,,,,,,,,,,,,,,,,,,,,,,,,,,,,,,,,,,,,,,,,,,,,,,,,,,,,,,,,,,,,,,Nov21Aloud3,95,2022_Nov_21_1653,ProdSingRedoBetween,2021.2.3,59.9501335
,,,,,,,,,,,,,,AloudTest,264.9042135,None,space,16.9053486,264.9042135,None,,,,,,,,,,,,,,,,,,,,,,,,,,,,,,,,,,,,,,,,,,,,,,,,,,,,,,,Nov21Aloud3,95,2022_Nov_21_1653,ProdSingRedoBetween,2021.2.3,59.9501335
0,0,0,0,,,,,,,,,,,,,,,,,,264.9042135,None,264.9042135,None,264.9042135,None,264.9042135,None,284.3475048,None,pattern,43,1,aloud,blue,282.3400111,None,None,282.3400111,None,,,,,,,,,,,,,,,,,,,,,,,,,,,,,,,,,,,Nov21Aloud3,95,2022_Nov_21_1653,ProdSingRedoBetween,2021.2.3,59.9501335
1,0,1,0,,,,,,,,,,,,,,,,,,,,,,,,,,286.8667007,None,author,12,2,aloud,yellow,284.8514535,None,None,284.8514535,None,,,,,,,,,,,,,,,,,,,,,,,,,,,,,,,,,,,Nov21Aloud3,95,2022_Nov_21_1653,ProdSingRedoBetween,2021.2.3,59.9501335
2,0,2,0,,,,,,,,,,,,,,,,,,,,,,,,,,289.3860312,None,heavy,84,3,aloud,red,287.3794323,None,None,287.3794323,None,,,,,,,,,,,,,,,,,,,,,,,,,,,,,,,,,,,Nov21Aloud3,95,2022_Nov_21_1653,ProdSingRedoBetween,2021.2.3,59.9501335
3,0,3,0,,,,,,,,,,,,,,,,,,,,,,,,,,291.8883392,None,front,62,4,aloud,red,289.8878172,None,None,289.8878172,None,,,,,,,,,,,,,,,,,,,,,,,,,,,,,,,,,,,Nov21Aloud3,95,2022_Nov_21_1653,ProdSingRedoBetween,2021.2.3,59.9501335
4,0,4,0,,,,,,,,,,,,,,,,,,,,,,,,,,294.3907555,None,engineer,55,5,aloud,blue,292.3888504,None,None,292.3888504,None,,,,,,,,,,,,,,,,,,,,,,,,,,,,,,,,,,,Nov21Aloud3,95,2022_Nov_21_1653,ProdSingRedoBetween,2021.2.3,59.9501335
5,0,5,0,,,,,,,,,,,,,,,,,,,,,,,,,,296.9100102,None,background,40,6,aloud,blue,294.8992174,None,None,294.8992174,None,,,,,,,,,,,,,,,,,,,,,,,,,,,,,,,,,,,Nov21Aloud3,95,2022_Nov_21_1653,ProdSingRedoBetween,2021.2.3,59.9501335
6,0,6,0,,,,,,,,,,,,,,,,,,,,,,,,,,299.4291713,None,service,69,7,aloud,red,297.4145431,None,None,297.4145431,None,,,,,,,,,,,,,,,,,,,,,,,,,,,,,,,,,,,Nov21Aloud3,95,2022_Nov_21_1653,ProdSingRedoBetween,2021.2.3,59.9501335
7,0,7,0,,,,,,,,,,,,,,,,,,,,,,,,,,301.9313612,None,government,77,8,aloud,red,299.9297288,None,None,299.9297288,None,,,,,,,,,,,,,,,,,,,,,,,,,,,,,,,,,,,Nov21Aloud3,95,2022_Nov_21_1653,ProdSingRedoBetween,2021.2.3,59.9501335
8,0,8,0,,,,,,,,,,,,,,,,,,,,,,,,,,304.4510238,None,quick,49,9,aloud,blue,302.4408271,None,None,302.4408271,None,,,,,,,,,,,,,,,,,,,,,,,,,,,,,,,,,,,Nov21Aloud3,95,2022_Nov_21_1653,ProdSingRedoBetween,2021.2.3,59.9501335
9,0,9,0,,,,,,,,,,,,,,,,,,,,,,,,,,306.953452,None,budget,41,10,aloud,blue,304.9532696,None,None,304.9532696,None,,,,,,,,,,,,,,,,,,,,,,,,,,,,,,,,,,,Nov21Aloud3,95,2022_Nov_21_1653,ProdSingRedoBetween,2021.2.3,59.9501335
10,0,10,0,,,,,,,,,,,,,,,,,,,,,,,,,,309.455828,None,member,10,11,aloud,yellow,307.4562794,None,None,307.4562794,None,,,,,,,,,,,,,,,,,,,,,,,,,,,,,,,,,,,Nov21Aloud3,95,2022_Nov_21_1653,ProdSingRedoBetween,2021.2.3,59.9501335
11,0,11,0,,,,,,,,,,,,,,,,,,,,,,,,,,311.9750074,None,comfort,29,12,aloud,blue,309.9640772,None,None,309.9640772,None,,,,,,,,,,,,,,,,,,,,,,,,,,,,,,,,,,,Nov21Aloud3,95,2022_Nov_21_1653,ProdSingRedoBetween,2021.2.3,59.9501335
12,0,12,0,,,,,,,,,,,,,,,,,,,,,,,,,,314.4942527,None,length,28,13,aloud,yellow,312.4797052,None,None,312.4797052,None,,,,,,,,,,,,,,,,,,,,,,,,,,,,,,,,,,,Nov21Aloud3,95,2022_Nov_21_1653,ProdSingRedoBetween,2021.2.3,59.9501335
13,0,13,0,,,,,,,,,,,,,,,,,,,,,,,,,,316.9965927,None,production,51,14,aloud,blue,314.9947071,None,None,314.9947071,None,,,,,,,,,,,,,,,,,,,,,,,,,,,,,,,,,,,Nov21Aloud3,95,2022_Nov_21_1653,ProdSingRedoBetween,2021.2.3,59.9501335
14,0,14,0,,,,,,,,,,,,,,,,,,,,,,,,,,319.499185,None,finish,76,15,aloud,red,317.4969817,None,None,317.4969817,None,,,,,,,,,,,,,,,,,,,,,,,,,,,,,,,,,,,Nov21Aloud3,95,2022_Nov_21_1653,ProdSingRedoBetween,2021.2.3,59.9501335
15,0,15,0,,,,,,,,,,,,,,,,,,,,,,,,,,322.0184435,None,clear,71,16,aloud,red,320.005927,None,None,320.005927,None,,,,,,,,,,,,,,,,,,,,,,,,,,,,,,,,,,,Nov21Aloud3,95,2022_Nov_21_1653,ProdSingRedoBetween,2021.2.3,59.9501335
16,0,16,0,,,,,,,,,,,,,,,,,,,,,,,,,,324.5209791,None,plane,30,17,aloud,blue,322.5206026,None,None,322.5206026,None,,,,,,,,,,,,,,,,,,,,,,,,,,,,,,,,,,,Nov21Aloud3,95,2022_Nov_21_1653,ProdSingRedoBetween,2021.2.3,59.9501335
17,0,17,0,,,,,,,,,,,,,,,,,,,,,,,,,,327.0401849,None,guest,31,18,aloud,blue,325.0248768,None,None,325.0248768,None,,,,,,,,,,,,,,,,,,,,,,,,,,,,,,,,,,,Nov21Aloud3,95,2022_Nov_21_1653,ProdSingRedoBetween,2021.2.3,59.9501335
18,0,18,0,,,,,,,,,,,,,,,,,,,,,,,,,,329.5592828,None,narrow,66,19,aloud,red,327.5443854,None,None,327.5443854,None,,,,,,,,,,,,,,,,,,,,,,,,,,,,,,,,,,,Nov21Aloud3,95,2022_Nov_21_1653,ProdSingRedoBetween,2021.2.3,59.9501335
19,0,19,0,,,,,,,,,,,,,,,,,,,,,,,,,,332.0618046,None,trend,16,20,aloud,yellow,330.0598007,None,None,330.0598007,None,,,,,,,,,,,,,,,,,,,,,,,,,,,,,,,,,,,Nov21Aloud3,95,2022_Nov_21_1653,ProdSingRedoBetween,2021.2.3,59.9501335
20,0,20,0,,,,,,,,,,,,,,,,,,,,,,,,,,334.5642426,None,substance,25,21,aloud,yellow,332.5621673,None,None,332.5621673,None,,,,,,,,,,,,,,,,,,,,,,,,,,,,,,,,,,,Nov21Aloud3,95,2022_Nov_21_1653,ProdSingRedoBetween,2021.2.3,59.9501335
21,0,21,0,,,,,,,,,,,,,,,,,,,,,,,,,,337.0834535,None,interior,14,22,aloud,yellow,335.0680513,None,None,335.0680513,None,,,,,,,,,,,,,,,,,,,,,,,,,,,,,,,,,,,Nov21Aloud3,95,2022_Nov_21_1653,ProdSingRedoBetween,2021.2.3,59.9501335
22,0,22,0,,,,,,,,,,,,,,,,,,,,,,,,,,339.5858216,None,country,0,23,aloud,yellow,337.5838179,None,None,337.5838179,None,,,,,,,,,,,,,,,,,,,,,,,,,,,,,,,,,,,Nov21Aloud3,95,2022_Nov_21_1653,ProdSingRedoBetween,2021.2.3,59.9501335
23,0,23,0,,,,,,,,,,,,,,,,,,,,,,,,,,342.0882743,None,straight,47,24,aloud,blue,340.0865453,None,None,340.0865453,None,,,,,,,,,,,,,,,,,,,,,,,,,,,,,,,,,,,Nov21Aloud3,95,2022_Nov_21_1653,ProdSingRedoBetween,2021.2.3,59.9501335
24,0,24,0,,,,,,,,,,,,,,,,,,,,,,,,,,344.590702,None,broke,45,25,aloud,blue,342.589154,None,None,342.589154,None,,,,,,,,,,,,,,,,,,,,,,,,,,,,,,,,,,,Nov21Aloud3,95,2022_Nov_21_1653,ProdSingRedoBetween,2021.2.3,59.9501335
25,0,25,0,,,,,,,,,,,,,,,,,,,,,,,,,,347.0934022,None,curve,22,26,aloud,yellow,345.0941143,None,None,345.0941143,None,,,,,,,,,,,,,,,,,,,,,,,,,,,,,,,,,,,Nov21Aloud3,95,2022_Nov_21_1653,ProdSingRedoBetween,2021.2.3,59.9501335
26,0,26,0,,,,,,,,,,,,,,,,,,,,,,,,,,349.612682,None,majority,83,27,aloud,red,347.5996893,None,None,347.5996893,None,,,,,,,,,,,,,,,,,,,,,,,,,,,,,,,,,,,Nov21Aloud3,95,2022_Nov_21_1653,ProdSingRedoBetween,2021.2.3,59.9501335
27,0,27,0,,,,,,,,,,,,,,,,,,,,,,,,,,352.1151859,None,beauty,60,28,aloud,red,350.1145594,None,None,350.1145594,None,,,,,,,,,,,,,,,,,,,,,,,,,,,,,,,,,,,Nov21Aloud3,95,2022_Nov_21_1653,ProdSingRedoBetween,2021.2.3,59.9501335
28,0,28,0,,,,,,,,,,,,,,,,,,,,,,,,,,354.6343257,None,light,88,29,aloud,red,352.6190795,None,None,352.6190795,None,,,,,,,,,,,,,,,,,,,,,,,,,,,,,,,,,,,Nov21Aloud3,95,2022_Nov_21_1653,ProdSingRedoBetween,2021.2.3,59.9501335
29,0,29,0,,,,,,,,,,,,,,,,,,,,,,,,,,357.1536007,None,mechanical,24,30,aloud,yellow,355.1440813,None,None,355.1440813,None,,,,,,,,,,,,,,,,,,,,,,,,,,,,,,,,,,,Nov21Aloud3,95,2022_Nov_21_1653,ProdSingRedoBetween,2021.2.3,59.9501335
30,0,30,0,,,,,,,,,,,,,,,,,,,,,,,,,,359.6559141,None,discussion,23,31,aloud,yellow,357.6550475,None,None,357.6550475,None,,,,,,,,,,,,,,,,,,,,,,,,,,,,,,,,,,,Nov21Aloud3,95,2022_Nov_21_1653,ProdSingRedoBetween,2021.2.3,59.9501335
31,0,31,0,,,,,,,,,,,,,,,,,,,,,,,,,,362.1748064,None,discovery,54,32,aloud,blue,360.1631873,None,None,360.1631873,None,,,,,,,,,,,,,,,,,,,,,,,,,,,,,,,,,,,Nov21Aloud3,95,2022_Nov_21_1653,ProdSingRedoBetween,2021.2.3,59.9501335
32,0,32,0,,,,,,,,,,,,,,,,,,,,,,,,,,364.6776405,None,business,6,33,aloud,yellow,362.6756331,None,None,362.6756331,None,,,,,,,,,,,,,,,,,,,,,,,,,,,,,,,,,,,Nov21Aloud3,95,2022_Nov_21_1653,ProdSingRedoBetween,2021.2.3,59.9501335
33,0,33,0,,,,,,,,,,,,,,,,,,,,,,,,,,367.1800712,None,weight,33,34,aloud,blue,365.1795763,None,None,365.1795763,None,,,,,,,,,,,,,,,,,,,,,,,,,,,,,,,,,,,Nov21Aloud3,95,2022_Nov_21_1653,ProdSingRedoBetween,2021.2.3,59.9501335
34,0,34,0,,,,,,,,,,,,,,,,,,,,,,,,,,369.6826203,None,salary,8,35,aloud,yellow,367.6806106,None,None,367.6806106,None,,,,,,,,,,,,,,,,,,,,,,,,,,,,,,,,,,,Nov21Aloud3,95,2022_Nov_21_1653,ProdSingRedoBetween,2021.2.3,59.9501335
35,0,35,0,,,,,,,,,,,,,,,,,,,,,,,,,,372.1850285,None,bucket,20,36,aloud,yellow,370.1829938,None,None,370.1829938,None,,,,,,,,,,,,,,,,,,,,,,,,,,,,,,,,,,,Nov21Aloud3,95,2022_Nov_21_1653,ProdSingRedoBetween,2021.2.3,59.9501335
36,0,36,0,,,,,,,,,,,,,,,,,,,,,,,,,,374.7043391,None,story,79,37,aloud,red,372.6935073,None,None,372.6935073,None,,,,,,,,,,,,,,,,,,,,,,,,,,,,,,,,,,,Nov21Aloud3,95,2022_Nov_21_1653,ProdSingRedoBetween,2021.2.3,59.9501335
37,0,37,0,,,,,,,,,,,,,,,,,,,,,,,,,,377.2065451,None,clean,59,38,aloud,yellow,375.2048834,None,None,375.2048834,None,,,,,,,,,,,,,,,,,,,,,,,,,,,,,,,,,,,Nov21Aloud3,95,2022_Nov_21_1653,ProdSingRedoBetween,2021.2.3,59.9501335
38,0,38,0,,,,,,,,,,,,,,,,,,,,,,,,,,379.7092903,None,tragedy,70,39,aloud,red,377.7070763,None,None,377.7070763,None,,,,,,,,,,,,,,,,,,,,,,,,,,,,,,,,,,,Nov21Aloud3,95,2022_Nov_21_1653,ProdSingRedoBetween,2021.2.3,59.9501335
39,0,39,0,,,,,,,,,,,,,,,,,,,,,,,,,,382.2118917,None,surface,80,40,aloud,red,380.2098411,None,None,380.2098411,None,,,,,,,,,,,,,,,,,,,,,,,,,,,,,,,,,,,Nov21Aloud3,95,2022_Nov_21_1653,ProdSingRedoBetween,2021.2.3,59.9501335
40,0,40,0,,,,,,,,,,,,,,,,,,,,,,,,,,384.7143017,None,measure,17,41,aloud,yellow,382.7124763,None,None,382.7124763,None,,,,,,,,,,,,,,,,,,,,,,,,,,,,,,,,,,,Nov21Aloud3,95,2022_Nov_21_1653,ProdSingRedoBetween,2021.2.3,59.9501335
41,0,41,0,,,,,,,,,,,,,,,,,,,,,,,,,,387.216754,None,threat,81,42,aloud,red,385.2147597,None,None,385.2147597,None,,,,,,,,,,,,,,,,,,,,,,,,,,,,,,,,,,,Nov21Aloud3,95,2022_Nov_21_1653,ProdSingRedoBetween,2021.2.3,59.9501335
42,0,42,0,,,,,,,,,,,,,,,,,,,,,,,,,,389.735987,None,owner,86,43,aloud,red,387.7261902,None,None,387.7261902,None,,,,,,,,,,,,,,,,,,,,,,,,,,,,,,,,,,,Nov21Aloud3,95,2022_Nov_21_1653,ProdSingRedoBetween,2021.2.3,59.9501335
43,0,43,0,,,,,,,,,,,,,,,,,,,,,,,,,,392.2384658,None,object,37,44,aloud,blue,390.2375203,None,None,390.2375203,None,,,,,,,,,,,,,,,,,,,,,,,,,,,,,,,,,,,Nov21Aloud3,95,2022_Nov_21_1653,ProdSingRedoBetween,2021.2.3,59.9501335
44,0,44,0,,,,,,,,,,,,,,,,,,,,,,,,,,394.7576266,None,center,3,45,aloud,yellow,392.7456926,None,None,392.7456926,None,,,,,,,,,,,,,,,,,,,,,,,,,,,,,,,,,,,Nov21Aloud3,95,2022_Nov_21_1653,ProdSingRedoBetween,2021.2.3,59.9501335
45,0,45,0,,,,,,,,,,,,,,,,,,,,,,,,,,397.2601649,None,committee,26,46,aloud,yellow,395.2581875,None,None,395.2581875,None,,,,,,,,,,,,,,,,,,,,,,,,,,,,,,,,,,,Nov21Aloud3,95,2022_Nov_21_1653,ProdSingRedoBetween,2021.2.3,59.9501335
46,0,46,0,,,,,,,,,,,,,,,,,,,,,,,,,,399.7793096,None,fight,78,47,aloud,red,397.7701962,None,None,397.7701962,None,,,,,,,,,,,,,,,,,,,,,,,,,,,,,,,,,,,Nov21Aloud3,95,2022_Nov_21_1653,ProdSingRedoBetween,2021.2.3,59.9501335
47,0,47,0,,,,,,,,,,,,,,,,,,,,,,,,,,402.281891,None,season,75,48,aloud,red,400.2798462,None,None,400.2798462,None,,,,,,,,,,,,,,,,,,,,,,,,,,,,,,,,,,,Nov21Aloud3,95,2022_Nov_21_1653,ProdSingRedoBetween,2021.2.3,59.9501335
48,0,48,0,,,,,,,,,,,,,,,,,,,,,,,,,,404.8010393,None,union,1,49,aloud,yellow,402.7866154,None,None,402.7866154,None,,,,,,,,,,,,,,,,,,,,,,,,,,,,,,,,,,,Nov21Aloud3,95,2022_Nov_21_1653,ProdSingRedoBetween,2021.2.3,59.9501335
49,0,49,0,,,,,,,,,,,,,,,,,,,,,,,,,,407.3035297,None,treatment,5,50,aloud,yellow,405.3038358,None,None,405.3038358,None,,,,,,,,,,,,,,,,,,,,,,,,,,,,,,,,,,,Nov21Aloud3,95,2022_Nov_21_1653,ProdSingRedoBetween,2021.2.3,59.9501335
50,0,50,0,,,,,,,,,,,,,,,,,,,,,,,,,,409.8060194,None,build,42,51,aloud,blue,407.8061004,None,None,407.8061004,None,,,,,,,,,,,,,,,,,,,,,,,,,,,,,,,,,,,Nov21Aloud3,95,2022_Nov_21_1653,ProdSingRedoBetween,2021.2.3,59.9501335
51,0,51,0,,,,,,,,,,,,,,,,,,,,,,,,,,412.3248449,None,turkey,87,52,aloud,red,410.3108236,None,None,410.3108236,None,,,,,,,,,,,,,,,,,,,,,,,,,,,,,,,,,,,Nov21Aloud3,95,2022_Nov_21_1653,ProdSingRedoBetween,2021.2.3,59.9501335
52,0,52,0,,,,,,,,,,,,,,,,,,,,,,,,,,414.8275891,None,express,89,53,aloud,red,412.8254812,None,None,412.8254812,None,,,,,,,,,,,,,,,,,,,,,,,,,,,,,,,,,,,Nov21Aloud3,95,2022_Nov_21_1653,ProdSingRedoBetween,2021.2.3,59.9501335
53,0,53,0,,,,,,,,,,,,,,,,,,,,,,,,,,417.3301451,None,notice,53,54,aloud,blue,415.3283224,None,None,415.3283224,None,,,,,,,,,,,,,,,,,,,,,,,,,,,,,,,,,,,Nov21Aloud3,95,2022_Nov_21_1653,ProdSingRedoBetween,2021.2.3,59.9501335
54,0,54,0,,,,,,,,,,,,,,,,,,,,,,,,,,419.8326347,None,route,58,55,aloud,blue,417.8306702,None,None,417.8306702,None,,,,,,,,,,,,,,,,,,,,,,,,,,,,,,,,,,,Nov21Aloud3,95,2022_Nov_21_1653,ProdSingRedoBetween,2021.2.3,59.9501335
55,0,55,0,,,,,,,,,,,,,,,,,,,,,,,,,,422.3347961,None,report,32,56,aloud,blue,420.3338012,None,None,420.3338012,None,,,,,,,,,,,,,,,,,,,,,,,,,,,,,,,,,,,Nov21Aloud3,95,2022_Nov_21_1653,ProdSingRedoBetween,2021.2.3,59.9501335
56,0,56,0,,,,,,,,,,,,,,,,,,,,,,,,,,424.8377416,None,foundation,64,57,aloud,red,422.8354575,None,None,422.8354575,None,,,,,,,,,,,,,,,,,,,,,,,,,,,,,,,,,,,Nov21Aloud3,95,2022_Nov_21_1653,ProdSingRedoBetween,2021.2.3,59.9501335
57,0,57,0,,,,,,,,,,,,,,,,,,,,,,,,,,427.3568561,None,character,52,58,aloud,blue,425.3434996,None,None,425.3434996,None,,,,,,,,,,,,,,,,,,,,,,,,,,,,,,,,,,,Nov21Aloud3,95,2022_Nov_21_1653,ProdSingRedoBetween,2021.2.3,59.9501335
58,0,58,0,,,,,,,,,,,,,,,,,,,,,,,,,,429.8759795,None,frank,67,59,aloud,red,427.8689719,None,None,427.8689719,None,,,,,,,,,,,,,,,,,,,,,,,,,,,,,,,,,,,Nov21Aloud3,95,2022_Nov_21_1653,ProdSingRedoBetween,2021.2.3,59.9501335
59,0,59,0,,,,,,,,,,,,,,,,,,,,,,,,,,432.395244,None,shear,36,60,aloud,blue,430.379837,None,None,430.379837,None,,,,,,,,,,,,,,,,,,,,,,,,,,,,,,,,,,,Nov21Aloud3,95,2022_Nov_21_1653,ProdSingRedoBetween,2021.2.3,59.9501335
60,0,60,0,,,,,,,,,,,,,,,,,,,,,,,,,,434.8976076,None,career,21,61,aloud,yellow,432.8966394,None,None,432.8966394,None,,,,,,,,,,,,,,,,,,,,,,,,,,,,,,,,,,,Nov21Aloud3,95,2022_Nov_21_1653,ProdSingRedoBetween,2021.2.3,59.9501335
61,0,61,0,,,,,,,,,,,,,,,,,,,,,,,,,,437.4169833,None,direction,15,62,aloud,yellow,435.4027526,None,None,435.4027526,None,,,,,,,,,,,,,,,,,,,,,,,,,,,,,,,,,,,Nov21Aloud3,95,2022_Nov_21_1653,ProdSingRedoBetween,2021.2.3,59.9501335
62,0,62,0,,,,,,,,,,,,,,,,,,,,,,,,,,439.9359745,None,broad,85,63,aloud,red,437.9208443,None,None,437.9208443,None,,,,,,,,,,,,,,,,,,,,,,,,,,,,,,,,,,,Nov21Aloud3,95,2022_Nov_21_1653,ProdSingRedoBetween,2021.2.3,59.9501335
63,0,63,0,,,,,,,,,,,,,,,,,,,,,,,,,,442.4381992,None,problem,4,64,aloud,yellow,440.4363488,None,None,440.4363488,None,,,,,,,,,,,,,,,,,,,,,,,,,,,,,,,,,,,Nov21Aloud3,95,2022_Nov_21_1653,ProdSingRedoBetween,2021.2.3,59.9501335
64,0,64,0,,,,,,,,,,,,,,,,,,,,,,,,,,444.9410537,None,sight,35,65,aloud,blue,442.9390064,None,None,442.9390064,None,,,,,,,,,,,,,,,,,,,,,,,,,,,,,,,,,,,Nov21Aloud3,95,2022_Nov_21_1653,ProdSingRedoBetween,2021.2.3,59.9501335
65,0,65,0,,,,,,,,,,,,,,,,,,,,,,,,,,447.4604162,None,count,38,66,aloud,blue,445.4487591,None,None,445.4487591,None,,,,,,,,,,,,,,,,,,,,,,,,,,,,,,,,,,,Nov21Aloud3,95,2022_Nov_21_1653,ProdSingRedoBetween,2021.2.3,59.9501335
66,0,66,0,,,,,,,,,,,,,,,,,,,,,,,,,,449.9628376,None,fashion,63,67,aloud,red,447.9618656,None,None,447.9618656,None,,,,,,,,,,,,,,,,,,,,,,,,,,,,,,,,,,,Nov21Aloud3,95,2022_Nov_21_1653,ProdSingRedoBetween,2021.2.3,59.9501335
67,0,67,0,,,,,,,,,,,,,,,,,,,,,,,,,,452.4815289,None,council,27,68,aloud,yellow,450.4715183,None,None,450.4715183,None,,,,,,,,,,,,,,,,,,,,,,,,,,,,,,,,,,,Nov21Aloud3,95,2022_Nov_21_1653,ProdSingRedoBetween,2021.2.3,59.9501335
68,0,68,0,,,,,,,,,,,,,,,,,,,,,,,,,,454.9842643,None,appearance,68,69,aloud,red,452.9820824,None,None,452.9820824,None,,,,,,,,,,,,,,,,,,,,,,,,,,,,,,,,,,,Nov21Aloud3,95,2022_Nov_21_1653,ProdSingRedoBetween,2021.2.3,59.9501335
69,0,69,0,,,,,,,,,,,,,,,,,,,,,,,,,,457.486569,None,century,82,70,aloud,red,455.4849089,None,None,455.4849089,None,,,,,,,,,,,,,,,,,,,,,,,,,,,,,,,,,,,Nov21Aloud3,95,2022_Nov_21_1653,ProdSingRedoBetween,2021.2.3,59.9501335
70,0,70,0,,,,,,,,,,,,,,,,,,,,,,,,,,459.9893496,None,point,48,71,aloud,blue,457.9873979,None,None,457.9873979,None,,,,,,,,,,,,,,,,,,,,,,,,,,,,,,,,,,,Nov21Aloud3,95,2022_Nov_21_1653,ProdSingRedoBetween,2021.2.3,59.9501335
71,0,71,0,,,,,,,,,,,,,,,,,,,,,,,,,,462.5085493,None,running,57,72,aloud,blue,460.4951842,None,None,460.4951842,None,,,,,,,,,,,,,,,,,,,,,,,,,,,,,,,,,,,Nov21Aloud3,95,2022_Nov_21_1653,ProdSingRedoBetween,2021.2.3,59.9501335
72,0,72,0,,,,,,,,,,,,,,,,,,,,,,,,,,465.027767,None,short,11,73,aloud,yellow,463.0134155,None,None,463.0134155,None,,,,,,,,,,,,,,,,,,,,,,,,,,,,,,,,,,,Nov21Aloud3,95,2022_Nov_21_1653,ProdSingRedoBetween,2021.2.3,59.9501335
73,0,73,0,,,,,,,,,,,,,,,,,,,,,,,,,,467.5469011,None,household,19,74,aloud,yellow,465.5324643,None,None,465.5324643,None,,,,,,,,,,,,,,,,,,,,,,,,,,,,,,,,,,,Nov21Aloud3,95,2022_Nov_21_1653,ProdSingRedoBetween,2021.2.3,59.9501335
74,0,74,0,,,,,,,,,,,,,,,,,,,,,,,,,,470.0494259,None,bicycle,65,75,aloud,red,468.0474546,None,None,468.0474546,None,,,,,,,,,,,,,,,,,,,,,,,,,,,,,,,,,,,Nov21Aloud3,95,2022_Nov_21_1653,ProdSingRedoBetween,2021.2.3,59.9501335
75,0,75,0,,,,,,,,,,,,,,,,,,,,,,,,,,472.568587,None,block,61,76,aloud,red,470.5603733,None,None,470.5603733,None,,,,,,,,,,,,,,,,,,,,,,,,,,,,,,,,,,,Nov21Aloud3,95,2022_Nov_21_1653,ProdSingRedoBetween,2021.2.3,59.9501335
76,0,76,0,,,,,,,,,,,,,,,,,,,,,,,,,,475.0710506,None,orchestra,74,77,aloud,red,473.070334,None,None,473.070334,None,,,,,,,,,,,,,,,,,,,,,,,,,,,,,,,,,,,Nov21Aloud3,95,2022_Nov_21_1653,ProdSingRedoBetween,2021.2.3,59.9501335
77,0,77,0,,,,,,,,,,,,,,,,,,,,,,,,,,477.573584,None,whole,2,78,aloud,yellow,475.5714451,None,None,475.5714451,None,,,,,,,,,,,,,,,,,,,,,,,,,,,,,,,,,,,Nov21Aloud3,95,2022_Nov_21_1653,ProdSingRedoBetween,2021.2.3,59.9501335
78,0,78,0,,,,,,,,,,,,,,,,,,,,,,,,,,480.0760878,None,beginning,39,79,aloud,blue,478.0759477,None,None,478.0759477,None,,,,,,,,,,,,,,,,,,,,,,,,,,,,,,,,,,,Nov21Aloud3,95,2022_Nov_21_1653,ProdSingRedoBetween,2021.2.3,59.9501335
79,0,79,0,,,,,,,,,,,,,,,,,,,,,,,,,,482.595099,None,company,56,80,aloud,blue,480.5806275,None,None,480.5806275,None,,,,,,,,,,,,,,,,,,,,,,,,,,,,,,,,,,,Nov21Aloud3,95,2022_Nov_21_1653,ProdSingRedoBetween,2021.2.3,59.9501335
80,0,80,0,,,,,,,,,,,,,,,,,,,,,,,,,,485.1145036,None,signal,72,81,aloud,red,483.102061,None,None,483.102061,None,,,,,,,,,,,,,,,,,,,,,,,,,,,,,,,,,,,Nov21Aloud3,95,2022_Nov_21_1653,ProdSingRedoBetween,2021.2.3,59.9501335
81,0,81,0,,,,,,,,,,,,,,,,,,,,,,,,,,487.6170167,None,skill,9,82,aloud,yellow,485.6149187,None,None,485.6149187,None,,,,,,,,,,,,,,,,,,,,,,,,,,,,,,,,,,,Nov21Aloud3,95,2022_Nov_21_1653,ProdSingRedoBetween,2021.2.3,59.9501335
82,0,82,0,,,,,,,,,,,,,,,,,,,,,,,,,,490.1359331,None,gesture,44,83,aloud,blue,488.1205423,None,None,488.1205423,None,,,,,,,,,,,,,,,,,,,,,,,,,,,,,,,,,,,Nov21Aloud3,95,2022_Nov_21_1653,ProdSingRedoBetween,2021.2.3,59.9501335
83,0,83,0,,,,,,,,,,,,,,,,,,,,,,,,,,492.6387373,None,exchange,7,84,aloud,yellow,490.6363869,None,None,490.6363869,None,,,,,,,,,,,,,,,,,,,,,,,,,,,,,,,,,,,Nov21Aloud3,95,2022_Nov_21_1653,ProdSingRedoBetween,2021.2.3,59.9501335
84,0,84,0,,,,,,,,,,,,,,,,,,,,,,,,,,495.1410357,None,recall,34,85,aloud,blue,493.1393892,None,None,493.1393892,None,,,,,,,,,,,,,,,,,,,,,,,,,,,,,,,,,,,Nov21Aloud3,95,2022_Nov_21_1653,ProdSingRedoBetween,2021.2.3,59.9501335
85,0,85,0,,,,,,,,,,,,,,,,,,,,,,,,,,497.6432664,None,power,50,86,aloud,blue,495.6433198,None,None,495.6433198,None,,,,,,,,,,,,,,,,,,,,,,,,,,,,,,,,,,,Nov21Aloud3,95,2022_Nov_21_1653,ProdSingRedoBetween,2021.2.3,59.9501335
86,0,86,0,,,,,,,,,,,,,,,,,,,,,,,,,,500.1460369,None,listen,13,87,aloud,yellow,498.1440323,None,None,498.1440323,None,,,,,,,,,,,,,,,,,,,,,,,,,,,,,,,,,,,Nov21Aloud3,95,2022_Nov_21_1653,ProdSingRedoBetween,2021.2.3,59.9501335
87,0,87,0,,,,,,,,,,,,,,,,,,,,,,,,,,502.6486404,None,answer,46,88,aloud,blue,500.6466224,None,None,500.6466224,None,,,,,,,,,,,,,,,,,,,,,,,,,,,,,,,,,,,Nov21Aloud3,95,2022_Nov_21_1653,ProdSingRedoBetween,2021.2.3,59.9501335
88,0,88,0,,,,,,,,,,,,,,,,,,,,,,,,,,505.1677988,None,quantity,18,89,aloud,yellow,503.1533203,None,None,503.1533203,None,,,,,,,,,,,,,,,,,,,,,,,,,,,,,,,,,,,Nov21Aloud3,95,2022_Nov_21_1653,ProdSingRedoBetween,2021.2.3,59.9501335
89,0,89,0,,,,,,,,,,,,,,,,,,,,,,,,,,507.6702778,None,literature,73,90,aloud,red,505.6692133,None,None,505.6692133,None,,,,,,,,,,,,,,,,,,,,,,,,,,,,,,,,,,,Nov21Aloud3,95,2022_Nov_21_1653,ProdSingRedoBetween,2021.2.3,59.9501335
,,,,,,,,,,,,,,,,,,,,,,,,,,,,,,,,,,,,,,,,,508.1708202,None,k,92.5023403,508.1708202,None,,,,,,,,,,,,,,,,,,,,,,,,,,,,,Nov21Aloud3,95,2022_Nov_21_1653,ProdSingRedoBetween,2021.2.3,59.9501335
,,,,0,0,0,0,,,,,,,,,,,,,,,,,,,,,,610.6406672,None,,,,,,,,,,,,,,,,,fellow,114,1,aloud,new,null,601.2050282,None,601.2050282,None,1,6.1718701,601.2050282,None,6.1718701,607.4051311,None,607.9316449,None,607.9316449,None,n,2.685350801,607.9316449,None,2.685350801,,,Nov21Aloud3,95,2022_Nov_21_1653,ProdSingRedoBetween,2021.2.3,59.9501335
,,,,1,0,1,0,,,,,,,,,,,,,,,,,,,,,,615.0939785,None,,,,,,,,,,,,,,,,,state,118,2,aloud,new,null,611.1400503,None,611.1400503,None,1,1.9969085,611.1400503,None,1.9969085,613.1602462,None,613.6634945,None,613.6634945,None,n,1.4013665,613.6634945,None,1.4013665,,,Nov21Aloud3,95,2022_Nov_21_1653,ProdSingRedoBetween,2021.2.3,59.9501335
,,,,2,0,2,0,,,,,,,,,,,,,,,,,,,,,,626.0383249,None,,,,,,,,,,,,,,,,,front,62,3,aloud,old,red,615.6103299,None,615.6103299,None,4,5.454592899,615.6103299,None,5.454592899,621.0853533,None,621.6066169,None,621.6066169,None,f,4.402302,621.6066169,None,4.402302,,,Nov21Aloud3,95,2022_Nov_21_1653,ProdSingRedoBetween,2021.2.3,59.9501335
,,,,3,0,3,0,,,,,,,,,,,,,,,,,,,,,,634.6969297,None,,,,,,,,,,,,,,,,,length,28,4,aloud,old,yellow,626.5490072,None,626.5490072,None,4,5.1719035,626.5490072,None,5.1719035,631.7444332,None,632.249446,None,632.249446,None,f,2.4314359,632.249446,None,2.4314359,,,Nov21Aloud3,95,2022_Nov_21_1653,ProdSingRedoBetween,2021.2.3,59.9501335
,,,,4,0,4,0,,,,,,,,,,,,,,,,,,,,,,639.1845224,None,,,,,,,,,,,,,,,,,patient,106,5,aloud,new,null,635.2045882,None,635.2045882,None,1,2.348432899,635.2045882,None,2.348432899,637.584163,None,638.0870737,None,638.0870737,None,n,1.081853,638.0870737,None,1.081853,,,Nov21Aloud3,95,2022_Nov_21_1653,ProdSingRedoBetween,2021.2.3,59.9501335
,,,,5,0,5,0,,,,,,,,,,,,,,,,,,,,,,643.1218504,None,,,,,,,,,,,,,,,,,pancakes,90,6,aloud,new,null,639.6969767,None,639.6969767,None,1,1.719914,639.6969767,None,1.719914,641.4392869,None,641.959229,None,641.959229,None,n,1.137912801,641.959229,None,1.137912801,,,Nov21Aloud3,95,2022_Nov_21_1653,ProdSingRedoBetween,2021.2.3,59.9501335
,,,,6,0,6,0,,,,,,,,,,,,,,,,,,,,,,651.2813586,None,,,,,,,,,,,,,,,,,people,99,7,aloud,new,null,643.6299596,None,643.6299596,None,1,5.8349421,643.6299596,None,5.8349421,649.4959092,None,650.010576,None,650.010576,None,n,1.2542727,650.010576,None,1.2542727,,,Nov21Aloud3,95,2022_Nov_21_1653,ProdSingRedoBetween,2021.2.3,59.9501335
,,,,7,0,7,0,,,,,,,,,,,,,,,,,,,,,,655.9014177,None,,,,,,,,,,,,,,,,,article,110,8,aloud,new,null,651.7958181,None,651.7958181,None,1,2.3249519,651.7958181,None,2.3249519,654.1495897,None,654.6538448,None,654.6538448,None,n,1.2270336,654.6538448,None,1.2270336,,,Nov21Aloud3,95,2022_Nov_21_1653,ProdSingRedoBetween,2021.2.3,59.9501335
,,,,8,0,8,0,,,,,,,,,,,,,,,,,,,,,,669.3315102,None,,,,,,,,,,,,,,,,,career,21,9,aloud,old,yellow,656.4090761,None,656.4090761,None,5,9.727689801,656.4090761,None,9.727689801,666.1688392,None,666.6786703,None,666.6786703,None,r,2.6261524,666.6786703,None,2.6261524,,,Nov21Aloud3,95,2022_Nov_21_1653,ProdSingRedoBetween,2021.2.3,59.9501335
,,,,9,0,9,0,,,,,,,,,,,,,,,,,,,,,,675.0704937,None,,,,,,,,,,,,,,,,,quantity,18,10,aloud,old,yellow,669.8484198,None,669.8484198,None,6,2.7205121,669.8484198,None,2.7205121,672.5907516,None,673.1019842,None,673.1019842,None,r,1.946858,673.1019842,None,1.946858,,,Nov21Aloud3,95,2022_Nov_21_1653,ProdSingRedoBetween,2021.2.3,59.9501335
,,,,10,0,10,0,,,,,,,,,,,,,,,,,,,,,,679.5917373,None,,,,,,,,,,,,,,,,,design,109,11,aloud,new,null,675.578761,None,675.578761,None,1,2.2060747,675.578761,None,2.2060747,677.8095281,None,678.325052,None,678.325052,None,n,1.235805,678.325052,None,1.235805,,,Nov21Aloud3,95,2022_Nov_21_1653,ProdSingRedoBetween,2021.2.3,59.9501335
,,,,11,0,11,0,,,,,,,,,,,,,,,,,,,,,,684.4129684,None,,,,,,,,,,,,,,,,,society,176,12,aloud,new,null,680.0958351,None,680.0958351,None,1,2.4250659,680.0958351,None,2.4250659,682.5507048,None,683.0642446,None,683.0642446,None,n,1.3284996,683.0642446,None,1.3284996,,,Nov21Aloud3,95,2022_Nov_21_1653,ProdSingRedoBetween,2021.2.3,59.9501335
,,,,12,0,12,0,,,,,,,,,,,,,,,,,,,,,,689.0343249,None,,,,,,,,,,,,,,,,,broke,45,13,aloud,old,blue,684.9214141,None,684.9214141,None,6,2.3194245,684.9214141,None,2.3194245,687.2672618,None,687.7664796,None,687.7664796,None,r,1.242384899,687.7664796,None,1.242384899,,,Nov21Aloud3,95,2022_Nov_21_1653,ProdSingRedoBetween,2021.2.3,59.9501335
,,,,13,0,13,0,,,,,,,,,,,,,,,,,,,,,,693.2720168,None,,,,,,,,,,,,,,,,,recall,34,14,aloud,old,blue,689.5357351,None,689.5357351,None,1,2.2651796,689.5357351,None,2.2651796,691.8274118,None,692.3391531,None,692.3391531,None,n,0.901762799,692.3391531,None,0.901762799,,,Nov21Aloud3,95,2022_Nov_21_1653,ProdSingRedoBetween,2021.2.3,59.9501335
,,,,14,0,14,0,,,,,,,,,,,,,,,,,,,,,,699.4964652,None,,,,,,,,,,,,,,,,,engineer,55,15,aloud,old,blue,693.7783802,None,693.7783802,None,6,2.7825316,693.7783802,None,2.7825316,696.5934389,None,697.0972421,None,697.0972421,None,f,2.375467501,697.0972421,None,2.375467501,,,Nov21Aloud3,95,2022_Nov_21_1653,ProdSingRedoBetween,2021.2.3,59.9501335
,,,,15,0,15,0,,,,,,,,,,,,,,,,,,,,,,712.0416805,None,,,,,,,,,,,,,,,,,conference,151,16,aloud,new,null,700.0141173,None,700.0141173,None,2,8.1146253,700.0141173,None,8.1146253,708.1541819,None,708.6541317,None,708.6541317,None,n,3.362699,708.6541317,None,3.362699,,,Nov21Aloud3,95,2022_Nov_21_1653,ProdSingRedoBetween,2021.2.3,59.9501335
,,,,16,0,16,0,,,,,,,,,,,,,,,,,,,,,,724.1361469,None,,,,,,,,,,,,,,,,,point,48,17,aloud,old,blue,712.5415672,None,712.5415672,None,3,9.84325,712.5415672,None,9.84325,722.407017,None,722.9183704,None,722.9183704,None,f,1.2023765,722.9183704,None,1.2023765,,,Nov21Aloud3,95,2022_Nov_21_1653,ProdSingRedoBetween,2021.2.3,59.9501335
,,,,17,0,17,0,,,,,,,,,,,,,,,,,,,,,,727.9563803,None,,,,,,,,,,,,,,,,,resistance,160,18,aloud,new,null,724.6486913,None,724.6486913,None,1,1.6800417,724.6486913,None,1.6800417,726.357674,None,726.8766084,None,726.8766084,None,n,1.0602017,726.8766084,None,1.0602017,,,Nov21Aloud3,95,2022_Nov_21_1653,ProdSingRedoBetween,2021.2.3,59.9501335
,,,,18,0,18,0,,,,,,,,,,,,,,,,,,,,,,734.396404,None,,,,,,,,,,,,,,,,,nation,113,19,aloud,new,null,728.4644538,None,728.4644538,None,1,4.3204338,728.4644538,None,4.3204338,732.8131784,None,733.3322893,None,733.3322893,None,n,1.0443979,733.3322893,None,1.0443979,,,Nov21Aloud3,95,2022_Nov_21_1653,ProdSingRedoBetween,2021.2.3,59.9501335
,,,,19,0,19,0,,,,,,,,,,,,,,,,,,,,,,739.2512442,None,,,,,,,,,,,,,,,,,threat,81,20,aloud,old,red,734.9009835,None,734.9009835,None,1,2.7716558,734.9009835,None,2.7716558,737.7017775,None,738.2168496,None,738.2168496,None,n,1.0079365,738.2168496,None,1.0079365,,,Nov21Aloud3,95,2022_Nov_21_1653,ProdSingRedoBetween,2021.2.3,59.9501335
,,,,20,0,20,0,,,,,,,,,,,,,,,,,,,,,,752.9982987,None,,,,,,,,,,,,,,,,,power,50,21,aloud,old,blue,739.7589605,None,739.7589605,None,2,9.0337648,739.7589605,None,9.0337648,748.8132988,None,749.3277065,None,749.3277065,None,n,3.648990001,749.3277065,None,3.648990001,,,Nov21Aloud3,95,2022_Nov_21_1653,ProdSingRedoBetween,2021.2.3,59.9501335
,,,,21,0,21,0,,,,,,,,,,,,,,,,,,,,,,761.0729544,None,,,,,,,,,,,,,,,,,permit,91,22,aloud,new,null,753.5113518,None,753.5113518,None,1,6.0972492,753.5113518,None,6.0972492,759.6406115,None,760.155474,None,760.155474,None,n,0.9012253,760.155474,None,0.9012253,,,Nov21Aloud3,95,2022_Nov_21_1653,ProdSingRedoBetween,2021.2.3,59.9501335
,,,,22,0,22,0,,,,,,,,,,,,,,,,,,,,,,766.9707276,None,,,,,,,,,,,,,,,,,congress,138,23,aloud,new,null,761.5861414,None,761.5861414,None,1,3.9266163,761.5861414,None,3.9266163,765.5455322,None,766.0498533,None,766.0498533,None,n,0.895102,766.0498533,None,0.895102,,,Nov21Aloud3,95,2022_Nov_21_1653,ProdSingRedoBetween,2021.2.3,59.9501335
,,,,23,0,23,0,,,,,,,,,,,,,,,,,,,,,,772.1173277,None,,,,,,,,,,,,,,,,,interior,14,24,aloud,old,yellow,767.4895458,None,767.4895458,None,6,2.4070649,767.4895458,None,2.4070649,769.9268102,None,770.4344425,None,770.4344425,None,f,1.662234901,770.4344425,None,1.662234901,,,Nov21Aloud3,95,2022_Nov_21_1653,ProdSingRedoBetween,2021.2.3,59.9501335
,,,,24,0,24,0,,,,,,,,,,,,,,,,,,,,,,777.5393812,None,,,,,,,,,,,,,,,,,running,57,25,aloud,old,blue,772.6288822,None,772.6288822,None,6,3.3638015,772.6288822,None,3.3638015,776.0209478,None,776.5247302,None,776.5247302,None,r,0.9959996,776.5247302,None,0.9959996,,,Nov21Aloud3,95,2022_Nov_21_1653,ProdSingRedoBetween,2021.2.3,59.9501335
,,,,25,0,25,0,,,,,,,,,,,,,,,,,,,,,,781.9314689,None,,,,,,,,,,,,,,,,,stranger,157,26,aloud,new,null,778.0522395,None,778.0522395,None,1,2.4367008,778.0522395,None,2.4367008,780.5140718,None,781.0281838,None,781.0281838,None,n,0.8766267,781.0281838,None,0.8766267,,,Nov21Aloud3,95,2022_Nov_21_1653,ProdSingRedoBetween,2021.2.3,59.9501335
,,,,26,0,26,0,,,,,,,,,,,,,,,,,,,,,,786.2653179,None,,,,,,,,,,,,,,,,,figure,135,27,aloud,new,null,782.4509805,None,782.4509805,None,1,2.6776343,782.4509805,None,2.6776343,785.1480388,None,785.654841,None,785.654841,None,n,0.5938847,785.654841,None,0.5938847,,,Nov21Aloud3,95,2022_Nov_21_1653,ProdSingRedoBetween,2021.2.3,59.9501335
,,,,27,0,27,0,,,,,,,,,,,,,,,,,,,,,,789.2176589,None,,,,,,,,,,,,,,,,,master,102,28,aloud,new,null,786.7770474,None,786.7770474,None,1,1.1356794,786.7770474,None,1.1356794,787.9383866,None,788.4521362,None,788.4521362,None,n,0.7485004,788.4521362,None,0.7485004,,,Nov21Aloud3,95,2022_Nov_21_1653,ProdSingRedoBetween,2021.2.3,59.9501335
,,,,28,0,28,0,,,,,,,,,,,,,,,,,,,,,,794.0224434,None,,,,,,,,,,,,,,,,,burden,155,29,aloud,new,null,789.7255859,None,789.7255859,None,1,2.859278601,789.7255859,None,2.859278601,792.6102369,None,793.1242325,None,793.1242325,None,n,0.8764165,793.1242325,None,0.8764165,,,Nov21Aloud3,95,2022_Nov_21_1653,ProdSingRedoBetween,2021.2.3,59.9501335
,,,,29,0,29,0,,,,,,,,,,,,,,,,,,,,,,801.3144894,None,,,,,,,,,,,,,,,,,character,52,30,aloud,old,blue,794.5320063,None,794.5320063,None,6,2.6845772,794.5320063,None,2.6845772,797.2477366,None,797.7596066,None,797.7596066,None,f,3.5369903,797.7596066,None,3.5369903,,,Nov21Aloud3,95,2022_Nov_21_1653,ProdSingRedoBetween,2021.2.3,59.9501335
,,,,30,0,30,0,,,,,,,,,,,,,,,,,,,,,,807.736183,None,,,,,,,,,,,,,,,,,scale,129,31,aloud,new,null,801.8227217,None,801.8227217,None,1,4.3778254,801.8227217,None,4.3778254,806.2197213,None,806.7385876,None,806.7385876,None,n,0.9740131,806.7385876,None,0.9740131,,,Nov21Aloud3,95,2022_Nov_21_1653,ProdSingRedoBetween,2021.2.3,59.9501335
,,,,31,0,31,0,,,,,,,,,,,,,,,,,,,,,,812.5242279,None,,,,,,,,,,,,,,,,,emergency,143,32,aloud,new,null,808.2367393,None,808.2367393,None,1,2.6198169,808.2367393,None,2.6198169,810.8755985,None,811.3912137,None,811.3912137,None,n,1.105360299,811.3912137,None,1.105360299,,,Nov21Aloud3,95,2022_Nov_21_1653,ProdSingRedoBetween,2021.2.3,59.9501335
,,,,32,0,32,0,,,,,,,,,,,,,,,,,,,,,,816.6617313,None,,,,,,,,,,,,,,,,,medicine,132,33,aloud,new,null,813.0275349,None,813.0275349,None,1,1.9570884,813.0275349,None,1.9570884,815.0109836,None,815.5143185,None,815.5143185,None,n,1.1263185,815.5143185,None,1.1263185,,,Nov21Aloud3,95,2022_Nov_21_1653,ProdSingRedoBetween,2021.2.3,59.9501335
,,,,33,0,33,0,,,,,,,,,,,,,,,,,,,,,,822.8343541,None,,,,,,,,,,,,,,,,,narrow,66,34,aloud,old,red,817.1701109,None,817.1701109,None,5,4.0863665,817.1701109,None,4.0863665,821.2844109,None,821.7901994,None,821.7901994,None,f,1.0183903,821.7901994,None,1.0183903,,,Nov21Aloud3,95,2022_Nov_21_1653,ProdSingRedoBetween,2021.2.3,59.9501335
,,,,34,0,34,0,,,,,,,,,,,,,,,,,,,,,,835.0967882,None,,,,,,,,,,,,,,,,,broad,85,35,aloud,old,red,823.3365591,None,823.3365591,None,6,10.1358935,823.3365591,None,10.1358935,833.5082307,None,834.0122349,None,834.0122349,None,r,1.0604628,834.0122349,None,1.0604628,,,Nov21Aloud3,95,2022_Nov_21_1653,ProdSingRedoBetween,2021.2.3,59.9501335
,,,,35,0,35,0,,,,,,,,,,,,,,,,,,,,,,844.8732205,None,,,,,,,,,,,,,,,,,trend,16,36,aloud,old,yellow,835.6143051,None,835.6143051,None,4,6.5301779,835.6143051,None,6.5301779,842.1707748,None,842.6765739,None,842.6765739,None,r,2.1719661,842.6765739,None,2.1719661,,,Nov21Aloud3,95,2022_Nov_21_1653,ProdSingRedoBetween,2021.2.3,59.9501335
,,,,36,0,36,0,,,,,,,,,,,,,,,,,,,,,,848.4601212,None,,,,,,,,,,,,,,,,,question,130,37,aloud,new,null,845.3871756,None,845.3871756,None,1,1.4293879,845.3871756,None,1.4293879,846.8463306,None,847.3590198,None,847.3590198,None,n,1.0815273,847.3590198,None,1.0815273,,,Nov21Aloud3,95,2022_Nov_21_1653,ProdSingRedoBetween,2021.2.3,59.9501335
,,,,37,0,37,0,,,,,,,,,,,,,,,,,,,,,,852.3803659,None,,,,,,,,,,,,,,,,,bright,92,38,aloud,new,null,848.9669257,None,848.9669257,None,1,1.6896175,848.9669257,None,1.6896175,850.6798654,None,851.1795331,None,851.1795331,None,n,1.172967399,851.1795331,None,1.172967399,,,Nov21Aloud3,95,2022_Nov_21_1653,ProdSingRedoBetween,2021.2.3,59.9501335
,,,,38,0,38,0,,,,,,,,,,,,,,,,,,,,,,864.0761814,None,,,,,,,,,,,,,,,,,problem,4,39,aloud,old,yellow,852.8917912,None,852.8917912,None,3,9.7166878,852.8917912,None,9.7166878,862.6252475,None,863.1248274,None,863.1248274,None,f,0.931571,863.1248274,None,0.931571,,,Nov21Aloud3,95,2022_Nov_21_1653,ProdSingRedoBetween,2021.2.3,59.9501335
,,,,39,0,39,0,,,,,,,,,,,,,,,,,,,,,,874.3546713,None,,,,,,,,,,,,,,,,,partner,145,40,aloud,new,null,864.5839109,None,864.5839109,None,1,8.1285609,864.5839109,None,8.1285609,872.7371313,None,873.2516381,None,873.2516381,None,n,1.076894199,873.2516381,None,1.076894199,,,Nov21Aloud3,95,2022_Nov_21_1653,ProdSingRedoBetween,2021.2.3,59.9501335
,,,,40,0,40,0,,,,,,,,,,,,,,,,,,,,,,877.8236321,None,,,,,,,,,,,,,,,,,minute,108,41,aloud,new,null,874.8699352,None,874.8699352,None,1,1.442668,874.8699352,None,1.442668,876.3440657,None,876.8549358,None,876.8549358,None,n,0.9377864,876.8549358,None,0.9377864,,,Nov21Aloud3,95,2022_Nov_21_1653,ProdSingRedoBetween,2021.2.3,59.9501335
,,,,41,0,41,0,,,,,,,,,,,,,,,,,,,,,,883.2614137,None,,,,,,,,,,,,,,,,,spoke,126,42,aloud,new,null,878.3325174,None,878.3325174,None,1,3.3399554,878.3325174,None,3.3399554,881.6955205,None,882.2146788,None,882.2146788,None,n,1.0178843,882.2146788,None,1.0178843,,,Nov21Aloud3,95,2022_Nov_21_1653,ProdSingRedoBetween,2021.2.3,59.9501335
,,,,42,0,42,0,,,,,,,,,,,,,,,,,,,,,,888.183003,None,,,,,,,,,,,,,,,,,session,105,43,aloud,new,null,883.7734821,None,883.7734821,None,1,2.7629827,883.7734821,None,2.7629827,886.5673309,None,887.0862064,None,887.0862064,None,n,1.0662549,887.0862064,None,1.0662549,,,Nov21Aloud3,95,2022_Nov_21_1653,ProdSingRedoBetween,2021.2.3,59.9501335
,,,,43,0,43,0,,,,,,,,,,,,,,,,,,,,,,895.7949962,None,,,,,,,,,,,,,,,,,bucket,20,44,aloud,old,yellow,888.6862267,None,888.6862267,None,6,1.690378101,888.6862267,None,1.690378101,890.4031034,None,890.902527,None,890.902527,None,f,4.8578864,890.902527,None,4.8578864,,,Nov21Aloud3,95,2022_Nov_21_1653,ProdSingRedoBetween,2021.2.3,59.9501335
,,,,44,0,44,0,,,,,,,,,,,,,,,,,,,,,,900.9318268,None,,,,,,,,,,,,,,,,,period,174,45,aloud,new,null,896.3110569,None,896.3110569,None,1,3.145465299,896.3110569,None,3.145465299,899.4866399,None,899.9949135,None,899.9949135,None,n,0.9095848,899.9949135,None,0.9095848,,,Nov21Aloud3,95,2022_Nov_21_1653,ProdSingRedoBetween,2021.2.3,59.9501335
,,,,45,0,45,0,,,,,,,,,,,,,,,,,,,,,,905.9007471,None,,,,,,,,,,,,,,,,,produce,136,46,aloud,new,null,901.447416,None,901.447416,None,1,2.3371392,901.447416,None,2.3371392,903.8170596,None,904.3323518,None,904.3323518,None,n,1.5480991,904.3323518,None,1.5480991,,,Nov21Aloud3,95,2022_Nov_21_1653,ProdSingRedoBetween,2021.2.3,59.9501335
,,,,46,0,46,0,,,,,,,,,,,,,,,,,,,,,,910.7391515,None,,,,,,,,,,,,,,,,,quick,49,47,aloud,old,blue,906.4120174,None,906.4120174,None,6,1.396373999,906.4120174,None,1.396373999,907.8387555,None,908.3570072,None,908.3570072,None,r,2.3553517,908.3570072,None,2.3553517,,,Nov21Aloud3,95,2022_Nov_21_1653,ProdSingRedoBetween,2021.2.3,59.9501335
,,,,47,0,47,0,,,,,,,,,,,,,,,,,,,,,,914.2923876,None,,,,,,,,,,,,,,,,,center,3,48,aloud,old,yellow,911.2448622,None,911.2448622,None,1,1.3876873,911.2448622,None,1.3876873,912.659251,None,913.1775106,None,913.1775106,None,n,1.086969799,913.1775106,None,1.086969799,,,Nov21Aloud3,95,2022_Nov_21_1653,ProdSingRedoBetween,2021.2.3,59.9501335
,,,,48,0,48,0,,,,,,,,,,,,,,,,,,,,,,919.9379433,None,,,,,,,,,,,,,,,,,breath,169,49,aloud,new,null,914.799513,None,914.799513,None,1,3.5368646,914.799513,None,3.5368646,918.3637572,None,918.8754415,None,918.8754415,None,n,1.0291192,918.8754415,None,1.0291192,,,Nov21Aloud3,95,2022_Nov_21_1653,ProdSingRedoBetween,2021.2.3,59.9501335
,,,,49,0,49,0,,,,,,,,,,,,,,,,,,,,,,923.684792,None,,,,,,,,,,,,,,,,,income,154,50,aloud,new,null,920.4500666,None,920.4500666,None,1,1.550359,920.4500666,None,1.550359,922.0199291,None,922.5341016,None,922.5341016,None,n,1.1222157,922.5341016,None,1.1222157,,,Nov21Aloud3,95,2022_Nov_21_1653,ProdSingRedoBetween,2021.2.3,59.9501335
,,,,50,0,50,0,,,,,,,,,,,,,,,,,,,,,,927.9453345,None,,,,,,,,,,,,,,,,,corner,144,51,aloud,new,null,924.1887973,None,924.1887973,None,1,2.131571,924.1887973,None,2.131571,926.3407327,None,926.8623092,None,926.8623092,None,n,1.0501094,926.8623092,None,1.0501094,,,Nov21Aloud3,95,2022_Nov_21_1653,ProdSingRedoBetween,2021.2.3,59.9501335
,,,,51,0,51,0,,,,,,,,,,,,,,,,,,,,,,932.0601873,None,,,,,,,,,,,,,,,,,finish,76,52,aloud,old,red,928.4634309,None,928.4634309,None,6,1.7290963,928.4634309,None,1.7290963,930.2173952,None,930.7256105,None,930.7256105,None,r,1.306726,930.7256105,None,1.306726,,,Nov21Aloud3,95,2022_Nov_21_1653,ProdSingRedoBetween,2021.2.3,59.9501335
,,,,52,0,52,0,,,,,,,,,,,,,,,,,,,,,,938.3830965,None,,,,,,,,,,,,,,,,,pattern,43,53,aloud,old,blue,932.570562,None,932.570562,None,6,3.7018461,932.570562,None,3.7018461,936.2996411,None,936.8167165,None,936.8167165,None,r,1.5356592,936.8167165,None,1.5356592,,,Nov21Aloud3,95,2022_Nov_21_1653,ProdSingRedoBetween,2021.2.3,59.9501335
,,,,53,0,53,0,,,,,,,,,,,,,,,,,,,,,,942.3056501,None,,,,,,,,,,,,,,,,,turkey,87,54,aloud,old,red,938.896984,None,938.896984,None,6,1.5594185,938.896984,None,1.5594185,940.4863691,None,940.9860937,None,940.9860937,None,r,1.2941948,940.9860937,None,1.2941948,,,Nov21Aloud3,95,2022_Nov_21_1653,ProdSingRedoBetween,2021.2.3,59.9501335
,,,,54,0,54,0,,,,,,,,,,,,,,,,,,,,,,947.1418287,None,,,,,,,,,,,,,,,,,ground,167,55,aloud,new,null,942.8256915,None,942.8256915,None,1,1.7426169,942.8256915,None,1.7426169,944.5893294,None,945.0951298,None,945.0951298,None,n,2.0172174,945.0951298,None,2.0172174,,,Nov21Aloud3,95,2022_Nov_21_1653,ProdSingRedoBetween,2021.2.3,59.9501335
,,,,55,0,55,0,,,,,,,,,,,,,,,,,,,,,,950.9479903,None,,,,,,,,,,,,,,,,,owner,86,56,aloud,old,red,947.6513561,None,947.6513561,None,1,1.5971857,947.6513561,None,1.5971857,949.2821365,None,949.7945868,None,949.7945868,None,n,1.125925999,949.7945868,None,1.125925999,,,Nov21Aloud3,95,2022_Nov_21_1653,ProdSingRedoBetween,2021.2.3,59.9501335
,,,,56,0,56,0,,,,,,,,,,,,,,,,,,,,,,956.7514306,None,,,,,,,,,,,,,,,,,discovery,54,57,aloud,old,blue,951.4727161,None,951.4727161,None,5,3.839678099,951.4727161,None,3.839678099,955.3384114,None,955.8606571,None,955.8606571,None,f,0.8676963,955.8606571,None,0.8676963,,,Nov21Aloud3,95,2022_Nov_21_1653,ProdSingRedoBetween,2021.2.3,59.9501335
,,,,57,0,57,0,,,,,,,,,,,,,,,,,,,,,,963.1077177,None,,,,,,,,,,,,,,,,,childhood,104,58,aloud,new,null,957.2588056,None,957.2588056,None,1,4.2695148,957.2588056,None,4.2695148,961.5569026,None,962.0601088,None,962.0601088,None,n,1.028240699,962.0601088,None,1.028240699,,,Nov21Aloud3,95,2022_Nov_21_1653,ProdSingRedoBetween,2021.2.3,59.9501335
,,,,58,0,58,0,,,,,,,,,,,,,,,,,,,,,,968.246168,None,,,,,,,,,,,,,,,,,fight,78,59,aloud,old,red,963.6175578,None,963.6175578,None,3,2.7908269,963.6175578,None,2.7908269,966.4302542,None,966.9450639,None,966.9450639,None,f,1.279282399,966.9450639,None,1.279282399,,,Nov21Aloud3,95,2022_Nov_21_1653,ProdSingRedoBetween,2021.2.3,59.9501335
,,,,59,0,59,0,,,,,,,,,,,,,,,,,,,,,,975.9888814,None,,,,,,,,,,,,,,,,,measure,17,60,aloud,old,yellow,968.754059,None,968.754059,None,1,5.8542354,968.754059,None,5.8542354,974.6366495,None,975.1413783,None,975.1413783,None,n,0.818984,975.1413783,None,0.818984,,,Nov21Aloud3,95,2022_Nov_21_1653,ProdSingRedoBetween,2021.2.3,59.9501335
,,,,60,0,60,0,,,,,,,,,,,,,,,,,,,,,,979.3415107,None,,,,,,,,,,,,,,,,,addition,172,61,aloud,new,null,976.5048235,None,976.5048235,None,1,1.3435652,976.5048235,None,1.3435652,977.8733942,None,978.3753521,None,978.3753521,None,n,0.945202899,978.3753521,None,0.945202899,,,Nov21Aloud3,95,2022_Nov_21_1653,ProdSingRedoBetween,2021.2.3,59.9501335
,,,,61,0,61,0,,,,,,,,,,,,,,,,,,,,,,984.4287797,None,,,,,,,,,,,,,,,,,clean,59,62,aloud,old,yellow,979.8411489,None,979.8411489,None,1,3.0631458,979.8411489,None,3.0631458,982.9272955,None,983.4331184,None,983.4331184,None,n,0.9670796,983.4331184,None,0.9670796,,,Nov21Aloud3,95,2022_Nov_21_1653,ProdSingRedoBetween,2021.2.3,59.9501335
,,,,62,0,62,0,,,,,,,,,,,,,,,,,,,,,,988.3830691,None,,,,,,,,,,,,,,,,,graduate,93,63,aloud,new,null,984.9420631,None,984.9420631,None,1,1.5303471,984.9420631,None,1.5303471,986.5040013,None,987.018102,None,987.018102,None,n,1.334151,987.018102,None,1.334151,,,Nov21Aloud3,95,2022_Nov_21_1653,ProdSingRedoBetween,2021.2.3,59.9501335
,,,,63,0,63,0,,,,,,,,,,,,,,,,,,,,,,994.5557478,None,,,,,,,,,,,,,,,,,union,1,64,aloud,old,yellow,988.8922664,None,988.8922664,None,6,2.140276601,988.8922664,None,2.140276601,991.0633083,None,991.5694867,None,991.5694867,None,r,2.9587542,991.5694867,None,2.9587542,,,Nov21Aloud3,95,2022_Nov_21_1653,ProdSingRedoBetween,2021.2.3,59.9501335
,,,,64,0,64,0,,,,,,,,,,,,,,,,,,,,,,1000.561753,None,,,,,,,,,,,,,,,,,substance,25,65,aloud,old,yellow,995.0696894,None,995.0696894,None,6,4.0265691,995.0696894,None,4.0265691,999.1278927,None,999.6326799,None,999.6326799,None,r,0.911741,999.6326799,None,0.911741,,,Nov21Aloud3,95,2022_Nov_21_1653,ProdSingRedoBetween,2021.2.3,59.9501335
,,,,65,0,65,0,,,,,,,,,,,,,,,,,,,,,,1008.339073,None,,,,,,,,,,,,,,,,,damage,175,66,aloud,new,null,1001.066623,None,1001.066623,None,1,5.7576001,1001.066623,None,5.7576001,1006.852866,None,1007.355041,None,1007.355041,None,n,0.957279501,1007.355041,None,0.957279501,,,Nov21Aloud3,95,2022_Nov_21_1653,ProdSingRedoBetween,2021.2.3,59.9501335
,,,,66,0,66,0,,,,,,,,,,,,,,,,,,,,,,1012.023163,None,,,,,,,,,,,,,,,,,rough,127,67,aloud,new,null,1008.858923,None,1008.858923,None,1,1.5013192,1008.858923,None,1.5013192,1010.390928,None,1010.905408,None,1010.905408,None,n,1.0868092,1010.905408,None,1.0868092,,,Nov21Aloud3,95,2022_Nov_21_1653,ProdSingRedoBetween,2021.2.3,59.9501335
,,,,67,0,67,0,,,,,,,,,,,,,,,,,,,,,,1016.494383,None,,,,,,,,,,,,,,,,,cross,149,68,aloud,new,null,1012.538651,None,1012.538651,None,1,2.4776148,1012.538651,None,2.4776148,1015.050904,None,1015.571377,None,1015.571377,None,n,0.892842201,1015.571377,None,0.892842201,,,Nov21Aloud3,95,2022_Nov_21_1653,ProdSingRedoBetween,2021.2.3,59.9501335
,,,,68,0,68,0,,,,,,,,,,,,,,,,,,,,,,1021.365833,None,,,,,,,,,,,,,,,,,equipment,100,69,aloud,new,null,1017.007674,None,1017.007674,None,1,2.0487452,1017.007674,None,2.0487452,1019.086818,None,1019.604377,None,1019.604377,None,n,1.7398777,1019.604377,None,1.7398777,,,Nov21Aloud3,95,2022_Nov_21_1653,ProdSingRedoBetween,2021.2.3,59.9501335
,,,,69,0,69,0,,,,,,,,,,,,,,,,,,,,,,1029.323774,None,,,,,,,,,,,,,,,,,principal,147,70,aloud,new,null,1021.871534,None,1021.871534,None,1,5.7129181,1021.871534,None,5.7129181,1027.610162,None,1028.128064,None,1028.128064,None,n,1.168114,1028.128064,None,1.168114,,,Nov21Aloud3,95,2022_Nov_21_1653,ProdSingRedoBetween,2021.2.3,59.9501335
,,,,70,0,70,0,,,,,,,,,,,,,,,,,,,,,,1033.961708,None,,,,,,,,,,,,,,,,,business,6,71,aloud,old,yellow,1029.832257,None,1029.832257,None,1,2.5039136,1029.832257,None,2.5039136,1032.367931,None,1032.877447,None,1032.877447,None,n,1.0667603,1032.877447,None,1.0667603,,,Nov21Aloud3,95,2022_Nov_21_1653,ProdSingRedoBetween,2021.2.3,59.9501335
,,,,71,0,71,0,,,,,,,,,,,,,,,,,,,,,,1039.183526,None,,,,,,,,,,,,,,,,,curve,22,72,aloud,old,yellow,1034.472708,None,1034.472708,None,6,2.5834695,1034.472708,None,2.5834695,1037.081856,None,1037.590616,None,1037.590616,None,r,1.5694485,1037.590616,None,1.5694485,,,Nov21Aloud3,95,2022_Nov_21_1653,ProdSingRedoBetween,2021.2.3,59.9501335
,,,,72,0,72,0,,,,,,,,,,,,,,,,,,,,,,1053.264363,None,,,,,,,,,,,,,,,,,plane,30,73,aloud,old,blue,1039.684201,None,1039.684201,None,2,9.796056299,1039.684201,None,9.796056299,1049.511957,None,1050.011194,None,1050.011194,None,f,3.228998,1050.011194,None,3.228998,,,Nov21Aloud3,95,2022_Nov_21_1653,ProdSingRedoBetween,2021.2.3,59.9501335
,,,,73,0,73,0,,,,,,,,,,,,,,,,,,,,,,1059.77894,None,,,,,,,,,,,,,,,,,member,10,74,aloud,old,yellow,1053.765018,None,1053.765018,None,5,4.2991648,1053.765018,None,4.2991648,1058.088479,None,1058.606774,None,1058.606774,None,f,1.137573199,1058.606774,None,1.137573199,,,Nov21Aloud3,95,2022_Nov_21_1653,ProdSingRedoBetween,2021.2.3,59.9501335
,,,,74,0,74,0,,,,,,,,,,,,,,,,,,,,,,1069.199422,None,,,,,,,,,,,,,,,,,sight,35,75,aloud,old,blue,1060.288131,None,1060.288131,None,3,7.648046,1060.288131,None,7.648046,1067.96889,None,1068.47933,None,1068.47933,None,f,0.6889253,1068.47933,None,0.6889253,,,Nov21Aloud3,95,2022_Nov_21_1653,ProdSingRedoBetween,2021.2.3,59.9501335
,,,,75,0,75,0,,,,,,,,,,,,,,,,,,,,,,1078.039019,None,,,,,,,,,,,,,,,,,smell,120,76,aloud,new,null,1069.714049,None,1069.714049,None,1,4.9501034,1069.714049,None,4.9501034,1074.688765,None,1075.202845,None,1075.202845,None,n,2.8052322,1075.202845,None,2.8052322,,,Nov21Aloud3,95,2022_Nov_21_1653,ProdSingRedoBetween,2021.2.3,59.9501335
,,,,76,0,76,0,,,,,,,,,,,,,,,,,,,,,,1083.89792,None,,,,,,,,,,,,,,,,,surface,80,77,aloud,old,red,1078.552699,None,1078.552699,None,5,4.1353789,1078.552699,None,4.1353789,1082.712065,None,1083.227618,None,1083.227618,None,f,0.64446,1083.227618,None,0.64446,,,Nov21Aloud3,95,2022_Nov_21_1653,ProdSingRedoBetween,2021.2.3,59.9501335
,,,,77,0,77,0,,,,,,,,,,,,,,,,,,,,,,1087.416372,None,,,,,,,,,,,,,,,,,route,58,78,aloud,old,blue,1084.412221,None,1084.412221,None,6,1.436268699,1084.412221,None,1.436268699,1085.878834,None,1086.385112,None,1086.385112,None,r,0.9992165,1086.385112,None,0.9992165,,,Nov21Aloud3,95,2022_Nov_21_1653,ProdSingRedoBetween,2021.2.3,59.9501335
,,,,78,0,78,0,,,,,,,,,,,,,,,,,,,,,,1091.635933,None,,,,,,,,,,,,,,,,,theme,128,79,aloud,new,null,1087.923438,None,1087.923438,None,1,2.1407003,1087.923438,None,2.1407003,1090.084149,None,1090.587918,None,1090.587918,None,n,1.0282015,1090.587918,None,1.0282015,,,Nov21Aloud3,95,2022_Nov_21_1653,ProdSingRedoBetween,2021.2.3,59.9501335
,,,,79,0,79,0,,,,,,,,,,,,,,,,,,,,,,1094.822488,None,,,,,,,,,,,,,,,,,institute,173,80,aloud,new,null,1092.141291,None,1092.141291,None,1,1.314828199,1092.141291,None,1.314828199,1093.472553,None,1093.977633,None,1093.977633,None,n,0.8224699,1093.977633,None,0.8224699,,,Nov21Aloud3,95,2022_Nov_21_1653,ProdSingRedoBetween,2021.2.3,59.9501335
,,,,80,0,80,0,,,,,,,,,,,,,,,,,,,,,,1104.131561,None,,,,,,,,,,,,,,,,,express,89,81,aloud,old,red,1095.336458,None,1095.336458,None,5,7.3516897,1095.336458,None,7.3516897,1102.721194,None,1103.230915,None,1103.230915,None,f,0.8810775,1103.230915,None,0.8810775,,,Nov21Aloud3,95,2022_Nov_21_1653,ProdSingRedoBetween,2021.2.3,59.9501335
,,,,81,0,81,0,,,,,,,,,,,,,,,,,,,,,,1107.551801,None,,,,,,,,,,,,,,,,,government,77,82,aloud,old,red,1104.643589,None,1104.643589,None,6,1.484818701,1104.643589,None,1.484818701,1106.154402,None,1106.672062,None,1106.672062,None,r,0.8641598,1106.672062,None,0.8641598,,,Nov21Aloud3,95,2022_Nov_21_1653,ProdSingRedoBetween,2021.2.3,59.9501335
,,,,82,0,82,0,,,,,,,,,,,,,,,,,,,,,,1111.522498,None,,,,,,,,,,,,,,,,,stand,178,83,aloud,new,null,1108.060144,None,1108.060144,None,1,2.1320251,1108.060144,None,2.1320251,1110.235372,None,1110.742454,None,1110.742454,None,n,0.7535603,1110.742454,None,0.7535603,,,Nov21Aloud3,95,2022_Nov_21_1653,ProdSingRedoBetween,2021.2.3,59.9501335
,,,,83,0,83,0,,,,,,,,,,,,,,,,,,,,,,1116.977941,None,,,,,,,,,,,,,,,,,notice,53,84,aloud,old,blue,1112.031183,None,1112.031183,None,5,3.7209334,1112.031183,None,3.7209334,1115.779297,None,1116.295474,None,1116.295474,None,f,0.6566916,1116.295474,None,0.6566916,,,Nov21Aloud3,95,2022_Nov_21_1653,ProdSingRedoBetween,2021.2.3,59.9501335
,,,,84,0,84,0,,,,,,,,,,,,,,,,,,,,,,1120.714992,None,,,,,,,,,,,,,,,,,gesture,44,85,aloud,old,blue,1117.485197,None,1117.485197,None,1,1.6268915,1117.485197,None,1.6268915,1119.135815,None,1119.650627,None,1119.650627,None,n,1.0373831,1119.650627,None,1.0373831,,,Nov21Aloud3,95,2022_Nov_21_1653,ProdSingRedoBetween,2021.2.3,59.9501335
,,,,85,0,85,0,,,,,,,,,,,,,,,,,,,,,,1125.736632,None,,,,,,,,,,,,,,,,,production,51,86,aloud,old,blue,1121.215526,None,1121.215526,None,3,3.3125475,1121.215526,None,3.3125475,1124.555163,None,1125.075849,None,1125.075849,None,f,0.644186,1125.075849,None,0.644186,,,Nov21Aloud3,95,2022_Nov_21_1653,ProdSingRedoBetween,2021.2.3,59.9501335
,,,,86,0,86,0,,,,,,,,,,,,,,,,,,,,,,1131.308986,None,,,,,,,,,,,,,,,,,number,159,87,aloud,new,null,1126.238897,None,1126.238897,None,1,2.8971723,1126.238897,None,2.8971723,1129.157575,None,1129.659971,None,1129.659971,None,n,1.6280809,1129.659971,None,1.6280809,,,Nov21Aloud3,95,2022_Nov_21_1653,ProdSingRedoBetween,2021.2.3,59.9501335
,,,,87,0,87,0,,,,,,,,,,,,,,,,,,,,,,1134.962491,None,,,,,,,,,,,,,,,,,payment,152,88,aloud,new,null,1131.818372,None,1131.818372,None,1,1.365629801,1131.818372,None,1.365629801,1133.211629,None,1133.711052,None,1133.711052,None,n,1.2250116,1133.711052,None,1.2250116,,,Nov21Aloud3,95,2022_Nov_21_1653,ProdSingRedoBetween,2021.2.3,59.9501335
,,,,88,0,88,0,,,,,,,,,,,,,,,,,,,,,,1147.758611,None,,,,,,,,,,,,,,,,,count,38,89,aloud,old,blue,1135.471069,None,1135.471069,None,6,8.6809631,1135.471069,None,8.6809631,1144.174297,None,1144.689013,None,1144.689013,None,r,3.039016699,1144.689013,None,3.039016699,,,Nov21Aloud3,95,2022_Nov_21_1653,ProdSingRedoBetween,2021.2.3,59.9501335
,,,,89,0,89,0,,,,,,,,,,,,,,,,,,,,,,1153.650875,None,,,,,,,,,,,,,,,,,group,116,90,aloud,new,null,1148.268096,None,1148.268096,None,1,3.619915401,1148.268096,None,3.619915401,1151.91568,None,1152.437832,None,1152.437832,None,n,1.1942609,1152.437832,None,1.1942609,,,Nov21Aloud3,95,2022_Nov_21_1653,ProdSingRedoBetween,2021.2.3,59.9501335
,,,,90,0,90,0,,,,,,,,,,,,,,,,,,,,,,1156.953169,None,,,,,,,,,,,,,,,,,household,19,91,aloud,old,yellow,1154.167423,None,1154.167423,None,6,1.3926402,1154.167423,None,1.3926402,1155.588219,None,1156.100409,None,1156.100409,None,r,0.8276522,1156.100409,None,0.8276522,,,Nov21Aloud3,95,2022_Nov_21_1653,ProdSingRedoBetween,2021.2.3,59.9501335
,,,,91,0,91,0,,,,,,,,,,,,,,,,,,,,,,1164.209106,None,,,,,,,,,,,,,,,,,discussion,23,92,aloud,old,yellow,1157.470889,None,1157.470889,None,4,5.593210599,1157.470889,None,5.593210599,1163.102544,None,1163.622209,None,1163.622209,None,f,0.5696843,1163.622209,None,0.5696843,,,Nov21Aloud3,95,2022_Nov_21_1653,ProdSingRedoBetween,2021.2.3,59.9501335
,,,,92,0,92,0,,,,,,,,,,,,,,,,,,,,,,1175.219323,None,,,,,,,,,,,,,,,,,salary,8,93,aloud,old,yellow,1164.713688,None,1164.713688,None,2,5.726296401,1164.713688,None,5.726296401,1170.467456,None,1170.981904,None,1170.981904,None,f,4.2100863,1170.981904,None,4.2100863,,,Nov21Aloud3,95,2022_Nov_21_1653,ProdSingRedoBetween,2021.2.3,59.9501335
,,,,93,0,93,0,,,,,,,,,,,,,,,,,,,,,,1180.758173,None,,,,,,,,,,,,,,,,,signal,72,94,aloud,old,red,1175.723508,None,1175.723508,None,1,3.3165089,1175.723508,None,3.3165089,1179.059806,None,1179.576934,None,1179.576934,None,n,1.1590302,1179.576934,None,1.1590302,,,Nov21Aloud3,95,2022_Nov_21_1653,ProdSingRedoBetween,2021.2.3,59.9501335
,,,,94,0,94,0,,,,,,,,,,,,,,,,,,,,,,1184.912256,None,,,,,,,,,,,,,,,,,heavy,84,95,aloud,old,red,1181.267906,None,1181.267906,None,6,1.8440404,1181.267906,None,1.8440404,1183.130534,None,1183.644404,None,1183.644404,None,r,1.243488399,1183.644404,None,1.243488399,,,Nov21Aloud3,95,2022_Nov_21_1653,ProdSingRedoBetween,2021.2.3,59.9501335
,,,,95,0,95,0,,,,,,,,,,,,,,,,,,,,,,1188.566673,None,,,,,,,,,,,,,,,,,trial,115,96,aloud,new,null,1185.413148,None,1185.413148,None,1,1.5471411,1185.413148,None,1.5471411,1186.988836,None,1187.498332,None,1187.498332,None,n,1.0376741,1187.498332,None,1.0376741,,,Nov21Aloud3,95,2022_Nov_21_1653,ProdSingRedoBetween,2021.2.3,59.9501335
,,,,96,0,96,0,,,,,,,,,,,,,,,,,,,,,,1193.606274,None,,,,,,,,,,,,,,,,,story,79,97,aloud,old,red,1189.073864,None,1189.073864,None,1,3.1260594,1189.073864,None,3.1260594,1192.222621,None,1192.741792,None,1192.741792,None,n,0.8420567,1192.741792,None,0.8420567,,,Nov21Aloud3,95,2022_Nov_21_1653,ProdSingRedoBetween,2021.2.3,59.9501335
,,,,97,0,97,0,,,,,,,,,,,,,,,,,,,,,,1198.442444,None,,,,,,,,,,,,,,,,,taste,170,98,aloud,new,null,1194.121297,None,1194.121297,None,1,2.7026139,1194.121297,None,2.7026139,1196.842107,None,1197.341408,None,1197.341408,None,n,1.074506599,1197.341408,None,1.074506599,,,Nov21Aloud3,95,2022_Nov_21_1653,ProdSingRedoBetween,2021.2.3,59.9501335
,,,,98,0,98,0,,,,,,,,,,,,,,,,,,,,,,1203.414036,None,,,,,,,,,,,,,,,,,mayor,103,99,aloud,new,null,1198.944625,None,1198.944625,None,1,3.0792997,1198.944625,None,3.0792997,1202.049166,None,1202.565961,None,1202.565961,None,n,0.8180819,1202.565961,None,0.8180819,,,Nov21Aloud3,95,2022_Nov_21_1653,ProdSingRedoBetween,2021.2.3,59.9501335
,,,,99,0,99,0,,,,,,,,,,,,,,,,,,,,,,1208.40224,None,,,,,,,,,,,,,,,,,block,61,100,aloud,old,red,1203.921422,None,1203.921422,None,3,3.2383848,1203.921422,None,3.2383848,1207.186416,None,1207.707093,None,1207.707093,None,f,0.668761101,1207.707093,None,0.668761101,,,Nov21Aloud3,95,2022_Nov_21_1653,ProdSingRedoBetween,2021.2.3,59.9501335
,,,,100,0,100,0,,,,,,,,,,,,,,,,,,,,,,1212.272933,None,,,,,,,,,,,,,,,,,platform,150,101,aloud,new,null,1208.903051,None,1208.903051,None,1,1.6408386,1208.903051,None,1.6408386,1210.572785,None,1211.075937,None,1211.075937,None,n,1.1719628,1211.075937,None,1.1719628,,,Nov21Aloud3,95,2022_Nov_21_1653,ProdSingRedoBetween,2021.2.3,59.9501335
,,,,101,0,101,0,,,,,,,,,,,,,,,,,,,,,,1217.544792,None,,,,,,,,,,,,,,,,,education,98,102,aloud,new,null,1212.793223,None,1212.793223,None,1,3.1747632,1212.793223,None,3.1747632,1216.005054,None,1216.513375,None,1216.513375,None,n,1.0064916,1216.513375,None,1.0064916,,,Nov21Aloud3,95,2022_Nov_21_1653,ProdSingRedoBetween,2021.2.3,59.9501335
,,,,102,0,102,0,,,,,,,,,,,,,,,,,,,,,,1221.031726,None,,,,,,,,,,,,,,,,,goose,158,103,aloud,new,null,1218.049556,None,1218.049556,None,1,1.694515,1218.049556,None,1.694515,1219.770643,None,1220.285367,None,1220.285367,None,n,0.7304758,1220.285367,None,0.7304758,,,Nov21Aloud3,95,2022_Nov_21_1653,ProdSingRedoBetween,2021.2.3,59.9501335
,,,,103,0,103,0,,,,,,,,,,,,,,,,,,,,,,1225.085679,None,,,,,,,,,,,,,,,,,under,156,104,aloud,new,null,1221.534605,None,1221.534605,None,1,2.137193601,1221.534605,None,2.137193601,1223.705284,None,1224.218016,None,1224.218016,None,n,0.8378861,1224.218016,None,0.8378861,,,Nov21Aloud3,95,2022_Nov_21_1653,ProdSingRedoBetween,2021.2.3,59.9501335
,,,,104,0,104,0,,,,,,,,,,,,,,,,,,,,,,1238.832678,None,,,,,,,,,,,,,,,,,clear,71,105,aloud,old,red,1225.594833,None,1225.594833,None,2,9.8293068,1225.594833,None,9.8293068,1235.460387,None,1235.963418,None,1235.963418,None,f,2.8524252,1235.963418,None,2.8524252,,,Nov21Aloud3,95,2022_Nov_21_1653,ProdSingRedoBetween,2021.2.3,59.9501335
,,,,105,0,105,0,,,,,,,,,,,,,,,,,,,,,,1247.010255,None,,,,,,,,,,,,,,,,,citizen,148,106,aloud,new,null,1239.341444,None,1239.341444,None,1,6.2183967,1239.341444,None,6.2183967,1245.592094,None,1246.110049,None,1246.110049,None,n,0.8738283,1246.110049,None,0.8738283,,,Nov21Aloud3,95,2022_Nov_21_1653,ProdSingRedoBetween,2021.2.3,59.9501335
,,,,106,0,106,0,,,,,,,,,,,,,,,,,,,,,,1250.661144,None,,,,,,,,,,,,,,,,,escape,125,107,aloud,new,null,1247.526784,None,1247.526784,None,1,1.6811197,1247.526784,None,1.6811197,1249.229479,None,1249.745313,None,1249.745313,None,n,0.8945704,1249.745313,None,0.8945704,,,Nov21Aloud3,95,2022_Nov_21_1653,ProdSingRedoBetween,2021.2.3,59.9501335
,,,,107,0,107,0,,,,,,,,,,,,,,,,,,,,,,1255.849685,None,,,,,,,,,,,,,,,,,suggestion,124,108,aloud,new,null,1251.172643,None,1251.172643,None,1,3.203152101,1251.172643,None,3.203152101,1254.404093,None,1254.921132,None,1254.921132,None,n,0.9106429,1254.921132,None,0.9106429,,,Nov21Aloud3,95,2022_Nov_21_1653,ProdSingRedoBetween,2021.2.3,59.9501335
,,,,108,0,108,0,,,,,,,,,,,,,,,,,,,,,,1262.789964,None,,,,,,,,,,,,,,,,,exchange,7,109,aloud,old,yellow,1256.35851,None,1256.35851,None,6,5.4014269,1256.35851,None,5.4014269,1261.79155,None,1262.306299,None,1262.306299,None,r,0.453534501,1262.306299,None,0.453534501,,,Nov21Aloud3,95,2022_Nov_21_1653,ProdSingRedoBetween,2021.2.3,59.9501335
,,,,109,0,109,0,,,,,,,,,,,,,,,,,,,,,,1269.413265,None,,,,,,,,,,,,,,,,,build,42,110,aloud,old,blue,1263.293275,None,1263.293275,None,2,3.386548799,1263.293275,None,3.386548799,1266.712905,None,1267.228594,None,1267.228594,None,f,2.163218,1267.228594,None,2.163218,,,Nov21Aloud3,95,2022_Nov_21_1653,ProdSingRedoBetween,2021.2.3,59.9501335
,,,,110,0,110,0,,,,,,,,,,,,,,,,,,,,,,1275.802903,None,,,,,,,,,,,,,,,,,committee,26,111,aloud,old,yellow,1269.92062,None,1269.92062,None,3,4.4231875,1269.92062,None,4.4231875,1274.369134,None,1274.872666,None,1274.872666,None,f,0.9113165,1274.872666,None,0.9113165,,,Nov21Aloud3,95,2022_Nov_21_1653,ProdSingRedoBetween,2021.2.3,59.9501335
,,,,111,0,111,0,,,,,,,,,,,,,,,,,,,,,,1279.273052,None,,,,,,,,,,,,,,,,,title,177,112,aloud,new,null,1276.307574,None,1276.307574,None,1,1.508298201,1276.307574,None,1.508298201,1277.845956,None,1278.355575,None,1278.355575,None,n,0.892271601,1278.355575,None,0.892271601,,,Nov21Aloud3,95,2022_Nov_21_1653,ProdSingRedoBetween,2021.2.3,59.9501335
,,,,112,0,112,0,,,,,,,,,,,,,,,,,,,,,,1286.41347,None,,,,,,,,,,,,,,,,,report,32,113,aloud,old,blue,1279.783666,None,1279.783666,None,1,5.1921146,1279.783666,None,5.1921146,1284.999538,None,1285.512747,None,1285.512747,None,n,0.879033,1285.512747,None,0.879033,,,Nov21Aloud3,95,2022_Nov_21_1653,ProdSingRedoBetween,2021.2.3,59.9501335
,,,,113,0,113,0,,,,,,,,,,,,,,,,,,,,,,1294.488278,None,,,,,,,,,,,,,,,,,literature,73,114,aloud,old,red,1286.92511,None,1286.92511,None,6,6.1546898,1286.92511,None,6.1546898,1293.104425,None,1293.608094,None,1293.608094,None,r,0.863671999,1293.608094,None,0.863671999,,,Nov21Aloud3,95,2022_Nov_21_1653,ProdSingRedoBetween,2021.2.3,59.9501335
,,,,114,0,114,0,,,,,,,,,,,,,,,,,,,,,,1301.094891,None,,,,,,,,,,,,,,,,,mechanical,24,115,aloud,old,yellow,1295.001413,None,1295.001413,None,3,4.8863489,1295.001413,None,4.8863489,1299.91212,None,1300.428611,None,1300.428611,None,f,0.6351762,1300.428611,None,0.6351762,,,Nov21Aloud3,95,2022_Nov_21_1653,ProdSingRedoBetween,2021.2.3,59.9501335
,,,,115,0,115,0,,,,,,,,,,,,,,,,,,,,,,1305.766791,None,,,,,,,,,,,,,,,,,generation,153,116,aloud,new,null,1301.597232,None,1301.597232,None,6,2.9225993,1301.597232,None,2.9225993,1304.551157,None,1305.065596,None,1305.065596,None,r,0.6702572,1305.065596,None,0.6702572,,,Nov21Aloud3,95,2022_Nov_21_1653,ProdSingRedoBetween,2021.2.3,59.9501335
,,,,116,0,116,0,,,,,,,,,,,,,,,,,,,,,,1314.758483,None,,,,,,,,,,,,,,,,,service,69,117,aloud,old,red,1306.269938,None,1306.269938,None,2,6.817916,1306.269938,None,6.817916,1313.107957,None,1313.609369,None,1313.609369,None,f,1.1183522,1313.609369,None,1.1183522,,,Nov21Aloud3,95,2022_Nov_21_1653,ProdSingRedoBetween,2021.2.3,59.9501335
,,,,117,0,117,0,,,,,,,,,,,,,,,,,,,,,,1321.031441,None,,,,,,,,,,,,,,,,,company,56,118,aloud,old,blue,1315.272928,None,1315.272928,None,1,3.7987973,1315.272928,None,3.7987973,1319.097332,None,1319.604267,None,1319.604267,None,n,1.4034652,1319.604267,None,1.4034652,,,Nov21Aloud3,95,2022_Nov_21_1653,ProdSingRedoBetween,2021.2.3,59.9501335
,,,,118,0,118,0,,,,,,,,,,,,,,,,,,,,,,1327.387688,None,,,,,,,,,,,,,,,,,treatment,5,119,aloud,old,yellow,1321.541142,None,1321.541142,None,2,3.4347225,1321.541142,None,3.4347225,1325.002934,None,1325.504801,None,1325.504801,None,f,1.862899601,1325.504801,None,1.862899601,,,Nov21Aloud3,95,2022_Nov_21_1653,ProdSingRedoBetween,2021.2.3,59.9501335
,,,,119,0,119,0,,,,,,,,,,,,,,,,,,,,,,1332.008946,None,,,,,,,,,,,,,,,,,whole,2,120,aloud,old,yellow,1327.89775,None,1327.89775,None,6,3.029969701,1327.89775,None,3.029969701,1330.958683,None,1331.462811,None,1331.462811,None,r,0.528850201,1331.462811,None,0.528850201,,,Nov21Aloud3,95,2022_Nov_21_1653,ProdSingRedoBetween,2021.2.3,59.9501335
,,,,120,0,120,0,,,,,,,,,,,,,,,,,,,,,,1336.38006,None,,,,,,,,,,,,,,,,,appearance,68,121,aloud,old,red,1332.513798,None,1332.513798,None,6,2.477895,1332.513798,None,2.477895,1335.011858,None,1335.529206,None,1335.529206,None,r,0.8305228,1335.529206,None,0.8305228,,,Nov21Aloud3,95,2022_Nov_21_1653,ProdSingRedoBetween,2021.2.3,59.9501335
,,,,121,0,121,0,,,,,,,,,,,,,,,,,,,,,,1340.60186,None,,,,,,,,,,,,,,,,,frank,67,122,aloud,old,red,1336.88384,None,1336.88384,None,6,2.1878734,1336.88384,None,2.1878734,1339.103022,None,1339.616689,None,1339.616689,None,r,0.959054201,1339.616689,None,0.959054201,,,Nov21Aloud3,95,2022_Nov_21_1653,ProdSingRedoBetween,2021.2.3,59.9501335
,,,,122,0,122,0,,,,,,,,,,,,,,,,,,,,,,1344.438198,None,,,,,,,,,,,,,,,,,collection,94,123,aloud,new,null,1341.104015,None,1341.104015,None,1,1.711733701,1341.104015,None,1.711733701,1342.842771,None,1343.356985,None,1343.356985,None,n,1.0506301,1343.356985,None,1.0506301,,,Nov21Aloud3,95,2022_Nov_21_1653,ProdSingRedoBetween,2021.2.3,59.9501335
,,,,123,0,123,0,,,,,,,,,,,,,,,,,,,,,,1349.926808,None,,,,,,,,,,,,,,,,,answer,46,124,aloud,old,blue,1344.948403,None,1344.948403,None,6,3.3716503,1344.948403,None,3.3716503,1348.345987,None,1348.85912,None,1348.85912,None,r,1.0447321,1348.85912,None,1.0447321,,,Nov21Aloud3,95,2022_Nov_21_1653,ProdSingRedoBetween,2021.2.3,59.9501335
,,,,124,0,124,0,,,,,,,,,,,,,,,,,,,,,,1354.281052,None,,,,,,,,,,,,,,,,,volume,119,125,aloud,new,null,1350.432619,None,1350.432619,None,1,1.4870522,1350.432619,None,1.4870522,1351.945473,None,1352.446272,None,1352.446272,None,n,1.8173581,1352.446272,None,1.8173581,,,Nov21Aloud3,95,2022_Nov_21_1653,ProdSingRedoBetween,2021.2.3,59.9501335
,,,,125,0,125,0,,,,,,,,,,,,,,,,,,,,,,1359.002487,None,,,,,,,,,,,,,,,,,population,161,126,aloud,new,null,1354.789364,None,1354.789364,None,1,2.7382322,1354.789364,None,2.7382322,1357.554072,None,1358.068429,None,1358.068429,None,n,0.9071915,1358.068429,None,0.9071915,,,Nov21Aloud3,95,2022_Nov_21_1653,ProdSingRedoBetween,2021.2.3,59.9501335
,,,,126,0,126,0,,,,,,,,,,,,,,,,,,,,,,1363.507044,None,,,,,,,,,,,,,,,,,republic,134,127,aloud,new,null,1359.511717,None,1359.511717,None,1,2.0879322,1359.511717,None,2.0879322,1361.623013,None,1362.128468,None,1362.128468,None,n,1.351140901,1362.128468,None,1.351140901,,,Nov21Aloud3,95,2022_Nov_21_1653,ProdSingRedoBetween,2021.2.3,59.9501335
,,,,127,0,127,0,,,,,,,,,,,,,,,,,,,,,,1368.745595,None,,,,,,,,,,,,,,,,,season,75,128,aloud,old,red,1364.016422,None,1364.016422,None,6,2.0232204,1364.016422,None,2.0232204,1366.062732,None,1366.577659,None,1366.577659,None,r,2.1499533,1366.577659,None,2.1499533,,,Nov21Aloud3,95,2022_Nov_21_1653,ProdSingRedoBetween,2021.2.3,59.9501335
,,,,128,0,128,0,,,,,,,,,,,,,,,,,,,,,,1373.750488,None,,,,,,,,,,,,,,,,,weight,33,129,aloud,old,blue,1369.25295,None,1369.25295,None,6,2.986616,1369.25295,None,2.986616,1372.265511,None,1372.770939,None,1372.770939,None,r,0.9486029,1372.770939,None,0.9486029,,,Nov21Aloud3,95,2022_Nov_21_1653,ProdSingRedoBetween,2021.2.3,59.9501335
,,,,129,0,129,0,,,,,,,,,,,,,,,,,,,,,,1377.437631,None,,,,,,,,,,,,,,,,,country,0,130,aloud,old,yellow,1374.251895,None,1374.251895,None,6,1.5637674,1374.251895,None,1.5637674,1375.83593,None,1376.341477,None,1376.341477,None,r,1.074144401,1376.341477,None,1.074144401,,,Nov21Aloud3,95,2022_Nov_21_1653,ProdSingRedoBetween,2021.2.3,59.9501335
,,,,130,0,130,0,,,,,,,,,,,,,,,,,,,,,,1383.927553,None,,,,,,,,,,,,,,,,,beauty,60,131,aloud,old,red,1377.941457,None,1377.941457,None,6,4.0421792,1377.941457,None,4.0421792,1382.011775,None,1382.531135,None,1382.531135,None,r,1.3723767,1382.531135,None,1.3723767,,,Nov21Aloud3,95,2022_Nov_21_1653,ProdSingRedoBetween,2021.2.3,59.9501335
,,,,131,0,131,0,,,,,,,,,,,,,,,,,,,,,,1394.0707,None,,,,,,,,,,,,,,,,,community,171,132,aloud,new,null,1384.439949,None,1384.439949,None,4,8.4635592,1384.439949,None,8.4635592,1392.923948,None,1393.439322,None,1393.439322,None,f,0.6082019,1393.439322,None,0.6082019,,,Nov21Aloud3,95,2022_Nov_21_1653,ProdSingRedoBetween,2021.2.3,59.9501335
,,,,132,0,132,0,,,,,,,,,,,,,,,,,,,,,,1402.89612,None,,,,,,,,,,,,,,,,,council,27,133,aloud,old,yellow,1394.571376,None,1394.571376,None,1,6.6524562,1394.571376,None,6.6524562,1401.246498,None,1401.765239,None,1401.765239,None,n,1.1063788,1401.765239,None,1.1063788,,,Nov21Aloud3,95,2022_Nov_21_1653,ProdSingRedoBetween,2021.2.3,59.9501335
,,,,133,0,133,0,,,,,,,,,,,,,,,,,,,,,,1406.7502,None,,,,,,,,,,,,,,,,,orchestra,74,134,aloud,old,red,1403.40823,None,1403.40823,None,1,1.751490801,1403.40823,None,1.751490801,1405.182025,None,1405.682574,None,1405.682574,None,n,1.0369984,1405.682574,None,1.0369984,,,Nov21Aloud3,95,2022_Nov_21_1653,ProdSingRedoBetween,2021.2.3,59.9501335
,,,,134,0,134,0,,,,,,,,,,,,,,,,,,,,,,1410.605751,None,,,,,,,,,,,,,,,,,territory,168,135,aloud,new,null,1407.260374,None,1407.260374,None,1,1.7391728,1407.260374,None,1.7391728,1409.022011,None,1409.539713,None,1409.539713,None,n,1.0359254,1409.539713,None,1.0359254,,,Nov21Aloud3,95,2022_Nov_21_1653,ProdSingRedoBetween,2021.2.3,59.9501335
,,,,135,0,135,0,,,,,,,,,,,,,,,,,,,,,,1414.591334,None,,,,,,,,,,,,,,,,,pressure,137,136,aloud,new,null,1411.121962,None,1411.121962,None,1,1.8695936,1411.121962,None,1.8695936,1413.007722,None,1413.516516,None,1413.516516,None,n,1.058938299,1413.516516,None,1.058938299,,,Nov21Aloud3,95,2022_Nov_21_1653,ProdSingRedoBetween,2021.2.3,59.9501335
,,,,136,0,136,0,,,,,,,,,,,,,,,,,,,,,,1418.795305,None,,,,,,,,,,,,,,,,,commercial,122,137,aloud,new,null,1415.093271,None,1415.093271,None,1,2.0743001,1415.093271,None,2.0743001,1417.199342,None,1417.711034,None,1417.711034,None,n,1.0564786,1417.711034,None,1.0564786,,,Nov21Aloud3,95,2022_Nov_21_1653,ProdSingRedoBetween,2021.2.3,59.9501335
,,,,137,0,137,0,,,,,,,,,,,,,,,,,,,,,,1422.251726,None,,,,,,,,,,,,,,,,,bicycle,65,138,aloud,old,red,1419.313236,None,1419.313236,None,6,1.5102979,1419.313236,None,1.5102979,1420.851794,None,1421.369285,None,1421.369285,None,r,0.85422,1421.369285,None,0.85422,,,Nov21Aloud3,95,2022_Nov_21_1653,ProdSingRedoBetween,2021.2.3,59.9501335
,,,,138,0,138,0,,,,,,,,,,,,,,,,,,,,,,1425.821329,None,,,,,,,,,,,,,,,,,comfort,29,139,aloud,old,blue,1422.769208,None,1422.769208,None,1,1.5982658,1422.769208,None,1.5982658,1424.38814,None,1424.906758,None,1424.906758,None,n,0.8928245,1424.906758,None,0.8928245,,,Nov21Aloud3,95,2022_Nov_21_1653,ProdSingRedoBetween,2021.2.3,59.9501335
,,,,139,0,139,0,,,,,,,,,,,,,,,,,,,,,,1430.390471,None,,,,,,,,,,,,,,,,,light,88,140,aloud,old,red,1426.34239,None,1426.34239,None,6,2.1291031,1426.34239,None,2.1291031,1428.491265,None,1429.00594,None,1429.00594,None,r,1.3696182,1429.00594,None,1.3696182,,,Nov21Aloud3,95,2022_Nov_21_1653,ProdSingRedoBetween,2021.2.3,59.9501335
,,,,140,0,140,0,,,,,,,,,,,,,,,,,,,,,,1434.794813,None,,,,,,,,,,,,,,,,,prime,141,141,aloud,new,null,1430.901249,None,1430.901249,None,1,2.314251,1430.901249,None,2.314251,1433.246006,None,1433.760327,None,1433.760327,None,n,1.0151987,1433.760327,None,1.0151987,,,Nov21Aloud3,95,2022_Nov_21_1653,ProdSingRedoBetween,2021.2.3,59.9501335
,,,,141,0,141,0,,,,,,,,,,,,,,,,,,,,,,1439.783159,None,,,,,,,,,,,,,,,,,short,11,142,aloud,old,yellow,1435.306609,None,1435.306609,None,1,2.285002,1435.306609,None,2.285002,1437.617143,None,1438.131471,None,1438.131471,None,n,1.6280964,1438.131471,None,1.6280964,,,Nov21Aloud3,95,2022_Nov_21_1653,ProdSingRedoBetween,2021.2.3,59.9501335
,,,,142,0,142,0,,,,,,,,,,,,,,,,,,,,,,1451.67829,None,,,,,,,,,,,,,,,,,minor,140,143,aloud,new,null,1440.287852,None,1440.287852,None,1,9.9356686,1440.287852,None,9.9356686,1450.245337,None,1450.760825,None,1450.760825,None,n,0.8948394,1450.760825,None,0.8948394,,,Nov21Aloud3,95,2022_Nov_21_1653,ProdSingRedoBetween,2021.2.3,59.9501335
,,,,143,0,143,0,,,,,,,,,,,,,,,,,,,,,,1455.69899,None,,,,,,,,,,,,,,,,,object,37,144,aloud,old,blue,1452.186231,None,1452.186231,None,1,1.9252911,1452.186231,None,1.9252911,1454.136665,None,1454.651379,None,1454.651379,None,n,1.0200735,1454.651379,None,1.0200735,,,Nov21Aloud3,95,2022_Nov_21_1653,ProdSingRedoBetween,2021.2.3,59.9501335
,,,,144,0,144,0,,,,,,,,,,,,,,,,,,,,,,1461.488089,None,,,,,,,,,,,,,,,,,cover,164,145,aloud,new,null,1456.213124,None,1456.213124,None,2,3.9782547,1456.213124,None,3.9782547,1460.222139,None,1460.73745,None,1460.73745,None,f,0.7260259,1460.73745,None,0.7260259,,,Nov21Aloud3,95,2022_Nov_21_1653,ProdSingRedoBetween,2021.2.3,59.9501335
,,,,145,0,145,0,,,,,,,,,,,,,,,,,,,,,,1465.396862,None,,,,,,,,,,,,,,,,,region,166,146,aloud,new,null,1462.000214,None,1462.000214,None,1,1.7110925,1462.000214,None,1.7110925,1463.741864,None,1464.257569,None,1464.257569,None,n,1.1101454,1464.257569,None,1.1101454,,,Nov21Aloud3,95,2022_Nov_21_1653,ProdSingRedoBetween,2021.2.3,59.9501335
,,,,146,0,146,0,,,,,,,,,,,,,,,,,,,,,,1472.033984,None,,,,,,,,,,,,,,,,,management,165,147,aloud,new,null,1465.913626,None,1465.913626,None,1,4.4938412,1465.913626,None,4.4938412,1470.43325,None,1470.949365,None,1470.949365,None,n,1.0582694,1470.949365,None,1.0582694,,,Nov21Aloud3,95,2022_Nov_21_1653,ProdSingRedoBetween,2021.2.3,59.9501335
,,,,147,0,147,0,,,,,,,,,,,,,,,,,,,,,,1475.335229,None,,,,,,,,,,,,,,,,,shear,36,148,aloud,old,blue,1472.549195,None,1472.549195,None,6,1.434231601,1472.549195,None,1.434231601,1474.003655,None,1474.520078,None,1474.520078,None,r,0.7995226,1474.520078,None,0.7995226,,,Nov21Aloud3,95,2022_Nov_21_1653,ProdSingRedoBetween,2021.2.3,59.9501335
,,,,148,0,148,0,,,,,,,,,,,,,,,,,,,,,,1481.024275,None,,,,,,,,,,,,,,,,,listen,13,149,aloud,old,yellow,1475.845313,None,1475.845313,None,6,3.098159401,1475.845313,None,3.098159401,1478.974784,None,1479.495961,None,1479.495961,None,r,1.503699699,1479.495961,None,1.503699699,,,Nov21Aloud3,95,2022_Nov_21_1653,ProdSingRedoBetween,2021.2.3,59.9501335
,,,,149,0,149,0,,,,,,,,,,,,,,,,,,,,,,1484.945004,None,,,,,,,,,,,,,,,,,opening,179,150,aloud,new,null,1481.533176,None,1481.533176,None,1,2.002240499,1481.533176,None,2.002240499,1483.56122,None,1484.062696,None,1484.062696,None,n,0.8647132,1484.062696,None,0.8647132,,,Nov21Aloud3,95,2022_Nov_21_1653,ProdSingRedoBetween,2021.2.3,59.9501335
,,,,150,0,150,0,,,,,,,,,,,,,,,,,,,,,,1494.354684,None,,,,,,,,,,,,,,,,,skill,9,151,aloud,old,yellow,1485.458966,None,1485.458966,None,4,7.4365907,1485.458966,None,7.4365907,1492.920237,None,1493.423526,None,1493.423526,None,f,0.9118453,1493.423526,None,0.9118453,,,Nov21Aloud3,95,2022_Nov_21_1653,ProdSingRedoBetween,2021.2.3,59.9501335
,,,,151,0,151,0,,,,,,,,,,,,,,,,,,,,,,1504.247441,None,,,,,,,,,,,,,,,,,property,133,152,aloud,new,null,1494.862477,None,1494.862477,None,3,8.0249514,1494.862477,None,8.0249514,1502.916818,None,1503.430025,None,1503.430025,None,f,0.801487,1503.430025,None,0.801487,,,Nov21Aloud3,95,2022_Nov_21_1653,ProdSingRedoBetween,2021.2.3,59.9501335
,,,,152,0,152,0,,,,,,,,,,,,,,,,,,,,,,1507.684288,None,,,,,,,,,,,,,,,,,audience,112,153,aloud,new,null,1504.758407,None,1504.758407,None,1,1.649011901,1504.758407,None,1.649011901,1506.432735,None,1506.933215,None,1506.933215,None,n,0.7221585,1506.933215,None,0.7221585,,,Nov21Aloud3,95,2022_Nov_21_1653,ProdSingRedoBetween,2021.2.3,59.9501335
,,,,153,0,153,0,,,,,,,,,,,,,,,,,,,,,,1514.073929,None,,,,,,,,,,,,,,,,,straight,47,154,aloud,old,blue,1508.186495,None,1508.186495,None,6,3.404890399,1508.186495,None,3.404890399,1511.624166,None,1512.141147,None,1512.141147,None,r,1.9141513,1512.141147,None,1.9141513,,,Nov21Aloud3,95,2022_Nov_21_1653,ProdSingRedoBetween,2021.2.3,59.9501335
,,,,154,0,154,0,,,,,,,,,,,,,,,,,,,,,,1517.777615,None,,,,,,,,,,,,,,,,,growth,97,155,aloud,new,null,1514.574493,None,1514.574493,None,1,1.6568647,1514.574493,None,1.6568647,1516.263239,None,1516.776671,None,1516.776671,None,n,0.9747513,1516.776671,None,0.9747513,,,Nov21Aloud3,95,2022_Nov_21_1653,ProdSingRedoBetween,2021.2.3,59.9501335
,,,,155,0,155,0,,,,,,,,,,,,,,,,,,,,,,1524.05121,None,,,,,,,,,,,,,,,,,industry,131,156,aloud,new,null,1518.287251,None,1518.287251,None,1,1.5841498,1518.287251,None,1.5841498,1519.899153,None,1520.413692,None,1520.413692,None,n,3.6176188,1520.413692,None,3.6176188,,,Nov21Aloud3,95,2022_Nov_21_1653,ProdSingRedoBetween,2021.2.3,59.9501335
,,,,156,0,156,0,,,,,,,,,,,,,,,,,,,,,,1529.455872,None,,,,,,,,,,,,,,,,,search,95,157,aloud,new,null,1524.551235,None,1524.551235,None,1,3.4721253,1524.551235,None,3.4721253,1528.06101,None,1528.576785,None,1528.576785,None,n,0.8626446,1528.576785,None,0.8626446,,,Nov21Aloud3,95,2022_Nov_21_1653,ProdSingRedoBetween,2021.2.3,59.9501335
,,,,157,0,157,0,,,,,,,,,,,,,,,,,,,,,,1534.160296,None,,,,,,,,,,,,,,,,,captain,162,158,aloud,new,null,1529.957719,None,1529.957719,None,1,2.7298279,1529.957719,None,2.7298279,1532.708945,None,1533.215464,None,1533.215464,None,n,0.927884,1533.215464,None,0.927884,,,Nov21Aloud3,95,2022_Nov_21_1653,ProdSingRedoBetween,2021.2.3,59.9501335
,,,,158,0,158,0,,,,,,,,,,,,,,,,,,,,,,1540.500203,None,,,,,,,,,,,,,,,,,edition,121,159,aloud,new,null,1534.66829,None,1534.66829,None,1,3.899305901,1534.66829,None,3.899305901,1538.601785,None,1539.116333,None,1539.116333,None,n,1.3550286,1539.116333,None,1.3550286,,,Nov21Aloud3,95,2022_Nov_21_1653,ProdSingRedoBetween,2021.2.3,59.9501335
,,,,159,0,159,0,,,,,,,,,,,,,,,,,,,,,,1544.324228,None,,,,,,,,,,,,,,,,,worker,96,160,aloud,new,null,1541.000601,None,1541.000601,None,1,1.7267575,1541.000601,None,1.7267575,1542.754005,None,1543.263528,None,1543.263528,None,n,1.0319124,1543.263528,None,1.0319124,,,Nov21Aloud3,95,2022_Nov_21_1653,ProdSingRedoBetween,2021.2.3,59.9501335
,,,,160,0,160,0,,,,,,,,,,,,,,,,,,,,,,1550.176098,None,,,,,,,,,,,,,,,,,century,82,161,aloud,old,red,1544.849299,None,1544.849299,None,1,3.814074799,1544.849299,None,3.814074799,1548.692713,None,1549.198225,None,1549.198225,None,n,0.9454057,1549.198225,None,0.9454057,,,Nov21Aloud3,95,2022_Nov_21_1653,ProdSingRedoBetween,2021.2.3,59.9501335
,,,,161,0,161,0,,,,,,,,,,,,,,,,,,,,,,1555.081368,None,,,,,,,,,,,,,,,,,guest,31,162,aloud,old,blue,1550.687687,None,1550.687687,None,1,2.9515504,1550.687687,None,2.9515504,1553.671384,None,1554.180789,None,1554.180789,None,n,0.882502301,1554.180789,None,0.882502301,,,Nov21Aloud3,95,2022_Nov_21_1653,ProdSingRedoBetween,2021.2.3,59.9501335
,,,,162,0,162,0,,,,,,,,,,,,,,,,,,,,,,1559.585905,None,,,,,,,,,,,,,,,,,grade,139,163,aloud,new,null,1555.591256,None,1555.591256,None,1,2.6321722,1555.591256,None,2.6321722,1558.262303,None,1558.768518,None,1558.768518,None,n,0.790762999,1558.768518,None,0.790762999,,,Nov21Aloud3,95,2022_Nov_21_1653,ProdSingRedoBetween,2021.2.3,59.9501335
,,,,163,0,163,0,,,,,,,,,,,,,,,,,,,,,,1563.706839,None,,,,,,,,,,,,,,,,,music,107,164,aloud,new,null,1560.094688,None,1560.094688,None,1,2.1048092,1560.094688,None,2.1048092,1562.229549,None,1562.744293,None,1562.744293,None,n,0.9429959,1562.744293,None,0.9429959,,,Nov21Aloud3,95,2022_Nov_21_1653,ProdSingRedoBetween,2021.2.3,59.9501335
,,,,164,0,164,0,,,,,,,,,,,,,,,,,,,,,,1567.262568,None,,,,,,,,,,,,,,,,,tennis,142,165,aloud,new,null,1564.21975,None,1564.21975,None,1,1.6275643,1564.21975,None,1.6275643,1565.876919,None,1566.392865,None,1566.392865,None,n,0.8463576,1566.392865,None,0.8463576,,,Nov21Aloud3,95,2022_Nov_21_1653,ProdSingRedoBetween,2021.2.3,59.9501335
,,,,165,0,165,0,,,,,,,,,,,,,,,,,,,,,,1571.033901,None,,,,,,,,,,,,,,,,,portion,111,166,aloud,new,null,1567.789827,None,1567.789827,None,1,1.8014462,1567.789827,None,1.8014462,1569.614531,None,1570.135982,None,1570.135982,None,n,0.879345,1570.135982,None,0.879345,,,Nov21Aloud3,95,2022_Nov_21_1653,ProdSingRedoBetween,2021.2.3,59.9501335
,,,,166,0,166,0,,,,,,,,,,,,,,,,,,,,,,1575.151492,None,,,,,,,,,,,,,,,,,author,12,167,aloud,old,yellow,1571.548033,None,1571.548033,None,6,2.1633521,1571.548033,None,2.1633521,1573.736084,None,1574.25062,None,1574.25062,None,r,0.884607299,1574.25062,None,0.884607299,,,Nov21Aloud3,95,2022_Nov_21_1653,ProdSingRedoBetween,2021.2.3,59.9501335
,,,,167,0,167,0,,,,,,,,,,,,,,,,,,,,,,1578.710448,None,,,,,,,,,,,,,,,,,fashion,63,168,aloud,old,red,1575.656108,None,1575.656108,None,6,1.5592329,1575.656108,None,1.5592329,1577.24301,None,1577.75497,None,1577.75497,None,r,0.9325884,1577.75497,None,0.9325884,,,Nov21Aloud3,95,2022_Nov_21_1653,ProdSingRedoBetween,2021.2.3,59.9501335
,,,,168,0,168,0,,,,,,,,,,,,,,,,,,,,,,1582.291897,None,,,,,,,,,,,,,,,,,solution,163,169,aloud,new,null,1579.228588,None,1579.228588,None,1,1.6665812,1579.228588,None,1.6665812,1580.925346,None,1581.430204,None,1581.430204,None,n,0.8409806,1581.430204,None,0.8409806,,,Nov21Aloud3,95,2022_Nov_21_1653,ProdSingRedoBetween,2021.2.3,59.9501335
,,,,169,0,169,0,,,,,,,,,,,,,,,,,,,,,,1585.86405,None,,,,,,,,,,,,,,,,,background,40,170,aloud,old,blue,1582.80568,None,1582.80568,None,6,1.4814685,1582.80568,None,1.4814685,1584.318272,None,1584.827648,None,1584.827648,None,r,1.0035989,1584.827648,None,1.0035989,,,Nov21Aloud3,95,2022_Nov_21_1653,ProdSingRedoBetween,2021.2.3,59.9501335
,,,,170,0,170,0,,,,,,,,,,,,,,,,,,,,,,1590.23321,None,,,,,,,,,,,,,,,,,beginning,39,171,aloud,old,blue,1586.379178,None,1586.379178,None,6,2.268052099,1586.379178,None,2.268052099,1588.664838,None,1589.16901,None,1589.16901,None,r,1.0381577,1589.16901,None,1.0381577,,,Nov21Aloud3,95,2022_Nov_21_1653,ProdSingRedoBetween,2021.2.3,59.9501335
,,,,171,0,171,0,,,,,,,,,,,,,,,,,,,,,,1595.171377,None,,,,,,,,,,,,,,,,,foundation,64,172,aloud,old,red,1590.740833,None,1590.740833,None,3,3.010346401,1590.740833,None,3.010346401,1593.771284,None,1594.27883,None,1594.27883,None,f,0.8644549,1594.27883,None,0.8644549,,,Nov21Aloud3,95,2022_Nov_21_1653,ProdSingRedoBetween,2021.2.3,59.9501335
,,,,172,0,172,0,,,,,,,,,,,,,,,,,,,,,,1600.626922,None,,,,,,,,,,,,,,,,,agency,146,173,aloud,new,null,1595.687799,None,1595.687799,None,2,3.631450701,1595.687799,None,3.631450701,1599.345005,None,1599.861053,None,1599.861053,None,f,0.7461993,1599.861053,None,0.7461993,,,Nov21Aloud3,95,2022_Nov_21_1653,ProdSingRedoBetween,2021.2.3,59.9501335
,,,,173,0,173,0,,,,,,,,,,,,,,,,,,,,,,1604.664226,None,,,,,,,,,,,,,,,,,style,123,174,aloud,new,null,1601.130159,None,1601.130159,None,1,1.653200801,1601.130159,None,1.653200801,1602.81525,None,1603.3336,None,1603.3336,None,n,1.3056281,1603.3336,None,1.3056281,,,Nov21Aloud3,95,2022_Nov_21_1653,ProdSingRedoBetween,2021.2.3,59.9501335
,,,,174,0,174,0,,,,,,,,,,,,,,,,,,,,,,1610.269885,None,,,,,,,,,,,,,,,,,direction,15,175,aloud,old,yellow,1605.170166,None,1605.170166,None,1,3.5570706,1605.170166,None,3.5570706,1608.752514,None,1609.253945,None,1609.253945,None,n,0.9853223,1609.253945,None,0.9853223,,,Nov21Aloud3,95,2022_Nov_21_1653,ProdSingRedoBetween,2021.2.3,59.9501335
,,,,175,0,175,0,,,,,,,,,,,,,,,,,,,,,,1618.911764,None,,,,,,,,,,,,,,,,,majority,83,176,aloud,old,red,1610.78275,None,1610.78275,None,3,6.9684346,1610.78275,None,6.9684346,1617.800606,None,1618.311265,None,1618.311265,None,f,0.5839468,1618.311265,None,0.5839468,,,Nov21Aloud3,95,2022_Nov_21_1653,ProdSingRedoBetween,2021.2.3,59.9501335
,,,,176,0,176,0,,,,,,,,,,,,,,,,,,,,,,1622.782321,None,,,,,,,,,,,,,,,,,capital,117,177,aloud,new,null,1619.417408,None,1619.417408,None,1,1.9101206,1619.417408,None,1.9101206,1621.355974,None,1621.867891,None,1621.867891,None,n,0.8993162,1621.867891,None,0.8993162,,,Nov21Aloud3,95,2022_Nov_21_1653,ProdSingRedoBetween,2021.2.3,59.9501335
,,,,177,0,177,0,,,,,,,,,,,,,,,,,,,,,,1628.638187,None,,,,,,,,,,,,,,,,,budget,41,178,aloud,old,blue,1623.287473,None,1623.287473,None,5,4.063784701,1623.287473,None,4.063784701,1627.378382,None,1627.891043,None,1627.891043,None,f,0.7241842,1627.891043,None,0.7241842,,,Nov21Aloud3,95,2022_Nov_21_1653,ProdSingRedoBetween,2021.2.3,59.9501335
,,,,178,0,178,0,,,,,,,,,,,,,,,,,,,,,,1634.493932,None,,,,,,,,,,,,,,,,,tragedy,70,179,aloud,old,red,1629.141759,None,1629.141759,None,6,3.8973673,1629.141759,None,3.8973673,1633.059057,None,1633.565538,None,1633.565538,None,r,0.9056308,1633.565538,None,0.9056308,,,Nov21Aloud3,95,2022_Nov_21_1653,ProdSingRedoBetween,2021.2.3,59.9501335
,,,,179,0,179,0,,,,,,,,,,,,,,,,,,,,,,1638.347861,None,,,,,,,,,,,,,,,,,dozen,101,180,aloud,new,null,1634.994455,None,1634.994455,None,1,1.7807274,1634.994455,None,1.7807274,1636.799409,None,1637.315164,None,1637.315164,None,n,1.0120094,1637.315164,None,1.0120094,,,Nov21Aloud3,95,2022_Nov_21_1653,ProdSingRedoBetween,2021.2.3,59.9501335
,,,,,,,,,,,,,,,,,,,,,,,,,,,,,,,,,,,,,,,,,,,,,,,,,,,,,,,,,,,,,,,,,,,,,,,,,1638.848972,None,,,,,,
