StudyLoop.thisRepN,StudyLoop.thisTrialN,StudyLoop.thisN,StudyLoop.thisIndex,TestLoop.thisRepN,TestLoop.thisTrialN,TestLoop.thisN,TestLoop.thisIndex,textCondition.started,textCondition.stopped,keyCondition.keys,keyCondition.rt,keyCondition.started,keyCondition.stopped,Condition,textWelcome.started,textWelcome.stopped,keyWelcome.keys,keyWelcome.rt,keyWelcome.started,keyWelcome.stopped,textAloud.started,textAloud.stopped,textSilent.started,textSilent.stopped,textSing.started,textSing.stopped,conditional_text.started,conditional_text.stopped,textBlank500.started,textBlank500.stopped,study_word,study_num,study_order,study_type,word_color,textStudy.started,textStudy.stopped,keyStudy.keys,keyStudy.started,keyStudy.stopped,textTestInstructions.started,textTestInstructions.stopped,key_resp_3.keys,key_resp_3.rt,key_resp_3.started,key_resp_3.stopped,test_word,test_num,test_order,test_condition,old_new_test,test_word_original_color,textConf.started,textConf.stopped,textConfScale.started,textConfScale.stopped,keyConf.keys,keyConf.rt,keyConf.started,keyConf.stopped,confidence response time,textTestBlank.started,textTestBlank.stopped,textRKN.started,textRKN.stopped,textRKNScale.started,textRKNScale.stopped,keyRKN.keys,keyRKN.rt,keyRKN.started,keyRKN.stopped,rkn response time,textEnd.started,textEnd.stopped,participant,session,date,expName,psychopyVersion,frameRate,
,,,,,,,,85.52918019983917,None,c,3.5904914001002908,85.52918019983917,None,,,,,,,,,,,,,,,,,,,,,,,,,,,,,,,,,,,,,,,,,,,,,,,,,,,,,,,,,,,,,,96 Sing,001,2022_Nov_22_0957,ProdSingRedoBetween,2021.2.3,59.97242470652595,
,,,,,,,,,,,,,,SingTest,89.17546649929136,None,space,1953.157043300569,89.17546649929136,None,,,,,,,,,,,,,,,,,,,,,,,,,,,,,,,,,,,,,,,,,,,,,,,,,,,,,,,96 Sing,001,2022_Nov_22_0957,ProdSingRedoBetween,2021.2.3,59.97242470652595,
0,0,0,0,,,,,,,,,,,,,,,,,,89.17546649929136,None,89.17546649929136,None,89.17546649929136,None,89.17546649929136,None,2044.8684332994744,None,angle,59,1,sing,yellow,2042.8521835999563,None,None,2042.8521835999563,None,,,,,,,,,,,,,,,,,,,,,,,,,,,,,,,,,,,96 Sing,001,2022_Nov_22_0957,ProdSingRedoBetween,2021.2.3,59.97242470652595,
1,0,1,0,,,,,,,,,,,,,,,,,,,,,,,,,,2047.386471499689,None,design,32,2,sing,blue,2045.373208399862,None,None,2045.373208399862,None,,,,,,,,,,,,,,,,,,,,,,,,,,,,,,,,,,,96 Sing,001,2022_Nov_22_0957,ProdSingRedoBetween,2021.2.3,59.97242470652595,
2,0,2,0,,,,,,,,,,,,,,,,,,,,,,,,,,2049.8889950998127,None,little,12,3,sing,yellow,2047.8869885997847,None,None,2047.8869885997847,None,,,,,,,,,,,,,,,,,,,,,,,,,,,,,,,,,,,96 Sing,001,2022_Nov_22_0957,ProdSingRedoBetween,2021.2.3,59.97242470652595,
3,0,3,0,,,,,,,,,,,,,,,,,,,,,,,,,,2052.4080107994378,None,judge,33,4,sing,blue,2050.4011666998267,None,None,2050.4011666998267,None,,,,,,,,,,,,,,,,,,,,,,,,,,,,,,,,,,,96 Sing,001,2022_Nov_22_0957,ProdSingRedoBetween,2021.2.3,59.97242470652595,
4,0,4,0,,,,,,,,,,,,,,,,,,,,,,,,,,2054.927108699456,None,individual,72,5,sing,red,2052.917682199739,None,None,2052.917682199739,None,,,,,,,,,,,,,,,,,,,,,,,,,,,,,,,,,,,96 Sing,001,2022_Nov_22_0957,ProdSingRedoBetween,2021.2.3,59.97242470652595,
5,0,5,0,,,,,,,,,,,,,,,,,,,,,,,,,,2057.4298203997314,None,afternoon,49,6,sing,blue,2055.4284866992384,None,None,2055.4284866992384,None,,,,,,,,,,,,,,,,,,,,,,,,,,,,,,,,,,,96 Sing,001,2022_Nov_22_0957,ProdSingRedoBetween,2021.2.3,59.97242470652595,
6,0,6,0,,,,,,,,,,,,,,,,,,,,,,,,,,2059.9490121994168,None,impact,39,7,sing,blue,2057.9365657996386,None,None,2057.9365657996386,None,,,,,,,,,,,,,,,,,,,,,,,,,,,,,,,,,,,96 Sing,001,2022_Nov_22_0957,ProdSingRedoBetween,2021.2.3,59.97242470652595,
7,0,7,0,,,,,,,,,,,,,,,,,,,,,,,,,,2062.4515448994935,None,strength,62,8,sing,red,2060.449518799782,None,None,2060.449518799782,None,,,,,,,,,,,,,,,,,,,,,,,,,,,,,,,,,,,96 Sing,001,2022_Nov_22_0957,ProdSingRedoBetween,2021.2.3,59.97242470652595,
8,0,8,0,,,,,,,,,,,,,,,,,,,,,,,,,,2064.953802799806,None,break,15,9,sing,yellow,2062.9527704995126,None,None,2062.9527704995126,None,,,,,,,,,,,,,,,,,,,,,,,,,,,,,,,,,,,96 Sing,001,2022_Nov_22_0957,ProdSingRedoBetween,2021.2.3,59.97242470652595,
9,0,9,0,,,,,,,,,,,,,,,,,,,,,,,,,,2067.473292199895,None,novel,40,10,sing,blue,2065.4598974995315,None,None,2065.4598974995315,None,,,,,,,,,,,,,,,,,,,,,,,,,,,,,,,,,,,96 Sing,001,2022_Nov_22_0957,ProdSingRedoBetween,2021.2.3,59.97242470652595,
10,0,10,0,,,,,,,,,,,,,,,,,,,,,,,,,,2069.975689799525,None,service,1,11,sing,yellow,2067.9736713999882,None,None,2067.9736713999882,None,,,,,,,,,,,,,,,,,,,,,,,,,,,,,,,,,,,96 Sing,001,2022_Nov_22_0957,ProdSingRedoBetween,2021.2.3,59.97242470652595,
11,0,11,0,,,,,,,,,,,,,,,,,,,,,,,,,,2072.4948199996725,None,character,29,12,sing,blue,2070.4795915996656,None,None,2070.4795915996656,None,,,,,,,,,,,,,,,,,,,,,,,,,,,,,,,,,,,96 Sing,001,2022_Nov_22_0957,ProdSingRedoBetween,2021.2.3,59.97242470652595,
12,0,12,0,,,,,,,,,,,,,,,,,,,,,,,,,,2075.0141316996887,None,husband,65,13,sing,red,2072.9987648995593,None,None,2072.9987648995593,None,,,,,,,,,,,,,,,,,,,,,,,,,,,,,,,,,,,96 Sing,001,2022_Nov_22_0957,ProdSingRedoBetween,2021.2.3,59.97242470652595,
13,0,13,0,,,,,,,,,,,,,,,,,,,,,,,,,,2077.5332494992763,None,problem,4,14,sing,yellow,2075.518713299185,None,None,2075.518713299185,None,,,,,,,,,,,,,,,,,,,,,,,,,,,,,,,,,,,96 Sing,001,2022_Nov_22_0957,ProdSingRedoBetween,2021.2.3,59.97242470652595,
14,0,14,0,,,,,,,,,,,,,,,,,,,,,,,,,,2080.035803999752,None,write,44,15,sing,blue,2078.0337485997006,None,None,2078.0337485997006,None,,,,,,,,,,,,,,,,,,,,,,,,,,,,,,,,,,,96 Sing,001,2022_Nov_22_0957,ProdSingRedoBetween,2021.2.3,59.97242470652595,
15,0,15,0,,,,,,,,,,,,,,,,,,,,,,,,,,2082.53817909956,None,symbol,56,16,sing,blue,2080.5389847997576,None,None,2080.5389847997576,None,,,,,,,,,,,,,,,,,,,,,,,,,,,,,,,,,,,96 Sing,001,2022_Nov_22_0957,ProdSingRedoBetween,2021.2.3,59.97242470652595,
16,0,16,0,,,,,,,,,,,,,,,,,,,,,,,,,,2085.0408421000466,None,defeat,7,17,sing,yellow,2083.0408461997285,None,None,2083.0408461997285,None,,,,,,,,,,,,,,,,,,,,,,,,,,,,,,,,,,,96 Sing,001,2022_Nov_22_0957,ProdSingRedoBetween,2021.2.3,59.97242470652595,
17,0,17,0,,,,,,,,,,,,,,,,,,,,,,,,,,2087.559517899528,None,frank,17,18,sing,yellow,2085.5471092993394,None,None,2085.5471092993394,None,,,,,,,,,,,,,,,,,,,,,,,,,,,,,,,,,,,96 Sing,001,2022_Nov_22_0957,ProdSingRedoBetween,2021.2.3,59.97242470652595,
18,0,18,0,,,,,,,,,,,,,,,,,,,,,,,,,,2090.0624118996784,None,theme,54,19,sing,blue,2088.0602702992037,None,None,2088.0602702992037,None,,,,,,,,,,,,,,,,,,,,,,,,,,,,,,,,,,,96 Sing,001,2022_Nov_22_0957,ProdSingRedoBetween,2021.2.3,59.97242470652595,
19,0,19,0,,,,,,,,,,,,,,,,,,,,,,,,,,2092.5816222000867,None,space,6,20,sing,yellow,2090.568266899325,None,None,2090.568266899325,None,,,,,,,,,,,,,,,,,,,,,,,,,,,,,,,,,,,96 Sing,001,2022_Nov_22_0957,ProdSingRedoBetween,2021.2.3,59.97242470652595,
20,0,20,0,,,,,,,,,,,,,,,,,,,,,,,,,,2095.100748899393,None,employment,3,21,sing,yellow,2093.0887452997267,None,None,2093.0887452997267,None,,,,,,,,,,,,,,,,,,,,,,,,,,,,,,,,,,,96 Sing,001,2022_Nov_22_0957,ProdSingRedoBetween,2021.2.3,59.97242470652595,
21,0,21,0,,,,,,,,,,,,,,,,,,,,,,,,,,2097.6196890994906,None,series,51,22,sing,blue,2095.6044192994013,None,None,2095.6044192994013,None,,,,,,,,,,,,,,,,,,,,,,,,,,,,,,,,,,,96 Sing,001,2022_Nov_22_0957,ProdSingRedoBetween,2021.2.3,59.97242470652595,
22,0,22,0,,,,,,,,,,,,,,,,,,,,,,,,,,2100.1225159000605,None,style,79,23,sing,red,2098.1204100996256,None,None,2098.1204100996256,None,,,,,,,,,,,,,,,,,,,,,,,,,,,,,,,,,,,96 Sing,001,2022_Nov_22_0957,ProdSingRedoBetween,2021.2.3,59.97242470652595,
23,0,23,0,,,,,,,,,,,,,,,,,,,,,,,,,,2102.641562799923,None,force,57,24,sing,blue,2100.6289564995095,None,None,2100.6289564995095,None,,,,,,,,,,,,,,,,,,,,,,,,,,,,,,,,,,,96 Sing,001,2022_Nov_22_0957,ProdSingRedoBetween,2021.2.3,59.97242470652595,
24,0,24,0,,,,,,,,,,,,,,,,,,,,,,,,,,2105.144106399268,None,power,19,25,sing,yellow,2103.142104299739,None,None,2103.142104299739,None,,,,,,,,,,,,,,,,,,,,,,,,,,,,,,,,,,,96 Sing,001,2022_Nov_22_0957,ProdSingRedoBetween,2021.2.3,59.97242470652595,
25,0,25,0,,,,,,,,,,,,,,,,,,,,,,,,,,2107.646698399447,None,error,14,26,sing,yellow,2105.6454050000757,None,None,2105.6454050000757,None,,,,,,,,,,,,,,,,,,,,,,,,,,,,,,,,,,,96 Sing,001,2022_Nov_22_0957,ProdSingRedoBetween,2021.2.3,59.97242470652595,
26,0,26,0,,,,,,,,,,,,,,,,,,,,,,,,,,2110.1489319000393,None,education,13,27,sing,yellow,2108.147919099778,None,None,2108.147919099778,None,,,,,,,,,,,,,,,,,,,,,,,,,,,,,,,,,,,96 Sing,001,2022_Nov_22_0957,ProdSingRedoBetween,2021.2.3,59.97242470652595,
27,0,27,0,,,,,,,,,,,,,,,,,,,,,,,,,,2112.668324499391,None,drove,20,28,sing,yellow,2110.6528324997053,None,None,2110.6528324997053,None,,,,,,,,,,,,,,,,,,,,,,,,,,,,,,,,,,,96 Sing,001,2022_Nov_22_0957,ProdSingRedoBetween,2021.2.3,59.97242470652595,
28,0,28,0,,,,,,,,,,,,,,,,,,,,,,,,,,2115.1707173995674,None,victory,41,29,sing,blue,2113.1688677994534,None,None,2113.1688677994534,None,,,,,,,,,,,,,,,,,,,,,,,,,,,,,,,,,,,96 Sing,001,2022_Nov_22_0957,ProdSingRedoBetween,2021.2.3,59.97242470652595,
29,0,29,0,,,,,,,,,,,,,,,,,,,,,,,,,,2117.6732202991843,None,comfort,2,30,sing,yellow,2115.672122099437,None,None,2115.672122099437,None,,,,,,,,,,,,,,,,,,,,,,,,,,,,,,,,,,,96 Sing,001,2022_Nov_22_0957,ProdSingRedoBetween,2021.2.3,59.97242470652595,
30,0,30,0,,,,,,,,,,,,,,,,,,,,,,,,,,2120.1923837000504,None,congress,86,31,sing,red,2118.1793016996235,None,None,2118.1793016996235,None,,,,,,,,,,,,,,,,,,,,,,,,,,,,,,,,,,,96 Sing,001,2022_Nov_22_0957,ProdSingRedoBetween,2021.2.3,59.97242470652595,
31,0,31,0,,,,,,,,,,,,,,,,,,,,,,,,,,2122.7115098992363,None,household,30,32,sing,blue,2120.7056450992823,None,None,2120.7056450992823,None,,,,,,,,,,,,,,,,,,,,,,,,,,,,,,,,,,,96 Sing,001,2022_Nov_22_0957,ProdSingRedoBetween,2021.2.3,59.97242470652595,
32,0,32,0,,,,,,,,,,,,,,,,,,,,,,,,,,2125.2141460999846,None,treatment,48,33,sing,blue,2123.212153799832,None,None,2123.212153799832,None,,,,,,,,,,,,,,,,,,,,,,,,,,,,,,,,,,,96 Sing,001,2022_Nov_22_0957,ProdSingRedoBetween,2021.2.3,59.97242470652595,
33,0,33,0,,,,,,,,,,,,,,,,,,,,,,,,,,2127.7332871994004,None,dance,63,34,sing,red,2125.717660199851,None,None,2125.717660199851,None,,,,,,,,,,,,,,,,,,,,,,,,,,,,,,,,,,,96 Sing,001,2022_Nov_22_0957,ProdSingRedoBetween,2021.2.3,59.97242470652595,
34,0,34,0,,,,,,,,,,,,,,,,,,,,,,,,,,2130.235809199512,None,period,69,35,sing,red,2128.233827199787,None,None,2128.233827199787,None,,,,,,,,,,,,,,,,,,,,,,,,,,,,,,,,,,,96 Sing,001,2022_Nov_22_0957,ProdSingRedoBetween,2021.2.3,59.97242470652595,
35,0,35,0,,,,,,,,,,,,,,,,,,,,,,,,,,2132.755063499324,None,republic,38,36,sing,blue,2130.7407233994454,None,None,2130.7407233994454,None,,,,,,,,,,,,,,,,,,,,,,,,,,,,,,,,,,,96 Sing,001,2022_Nov_22_0957,ProdSingRedoBetween,2021.2.3,59.97242470652595,
36,0,36,0,,,,,,,,,,,,,,,,,,,,,,,,,,2135.2741203997284,None,turkey,16,37,sing,yellow,2133.2687106998637,None,None,2133.2687106998637,None,,,,,,,,,,,,,,,,,,,,,,,,,,,,,,,,,,,96 Sing,001,2022_Nov_22_0957,ProdSingRedoBetween,2021.2.3,59.97242470652595,
37,0,37,0,,,,,,,,,,,,,,,,,,,,,,,,,,2137.7766092997044,None,material,5,38,sing,yellow,2135.774648199789,None,None,2135.774648199789,None,,,,,,,,,,,,,,,,,,,,,,,,,,,,,,,,,,,96 Sing,001,2022_Nov_22_0957,ProdSingRedoBetween,2021.2.3,59.97242470652595,
38,0,38,0,,,,,,,,,,,,,,,,,,,,,,,,,,2140.2787758000195,None,pattern,61,39,sing,red,2138.2771492991596,None,None,2138.2771492991596,None,,,,,,,,,,,,,,,,,,,,,,,,,,,,,,,,,,,96 Sing,001,2022_Nov_22_0957,ProdSingRedoBetween,2021.2.3,59.97242470652595,
39,0,39,0,,,,,,,,,,,,,,,,,,,,,,,,,,2142.781693299301,None,agreement,60,40,sing,red,2140.779644499533,None,None,2140.779644499533,None,,,,,,,,,,,,,,,,,,,,,,,,,,,,,,,,,,,96 Sing,001,2022_Nov_22_0957,ProdSingRedoBetween,2021.2.3,59.97242470652595,
40,0,40,0,,,,,,,,,,,,,,,,,,,,,,,,,,2145.3008455997333,None,scene,74,41,sing,red,2143.287961899303,None,None,2143.287961899303,None,,,,,,,,,,,,,,,,,,,,,,,,,,,,,,,,,,,96 Sing,001,2022_Nov_22_0957,ProdSingRedoBetween,2021.2.3,59.97242470652595,
41,0,41,0,,,,,,,,,,,,,,,,,,,,,,,,,,2147.8199602998793,None,discussion,77,42,sing,red,2145.8132149996236,None,None,2145.8132149996236,None,,,,,,,,,,,,,,,,,,,,,,,,,,,,,,,,,,,96 Sing,001,2022_Nov_22_0957,ProdSingRedoBetween,2021.2.3,59.97242470652595,
42,0,42,0,,,,,,,,,,,,,,,,,,,,,,,,,,2150.338892299682,None,resistance,66,43,sing,red,2148.3338198000565,None,None,2148.3338198000565,None,,,,,,,,,,,,,,,,,,,,,,,,,,,,,,,,,,,96 Sing,001,2022_Nov_22_0957,ProdSingRedoBetween,2021.2.3,59.97242470652595,
43,0,43,0,,,,,,,,,,,,,,,,,,,,,,,,,,2152.841624999419,None,nation,46,44,sing,blue,2150.8397506000474,None,None,2150.8397506000474,None,,,,,,,,,,,,,,,,,,,,,,,,,,,,,,,,,,,96 Sing,001,2022_Nov_22_0957,ProdSingRedoBetween,2021.2.3,59.97242470652595,
44,0,44,0,,,,,,,,,,,,,,,,,,,,,,,,,,2155.3441335996613,None,bicycle,55,45,sing,blue,2153.3439232995734,None,None,2153.3439232995734,None,,,,,,,,,,,,,,,,,,,,,,,,,,,,,,,,,,,96 Sing,001,2022_Nov_22_0957,ProdSingRedoBetween,2021.2.3,59.97242470652595,
45,0,45,0,,,,,,,,,,,,,,,,,,,,,,,,,,2157.863149999641,None,front,28,46,sing,yellow,2155.848940299824,None,None,2155.848940299824,None,,,,,,,,,,,,,,,,,,,,,,,,,,,,,,,,,,,96 Sing,001,2022_Nov_22_0957,ProdSingRedoBetween,2021.2.3,59.97242470652595,
46,0,46,0,,,,,,,,,,,,,,,,,,,,,,,,,,2160.3659405997023,None,benefit,70,47,sing,red,2158.3636601995677,None,None,2158.3636601995677,None,,,,,,,,,,,,,,,,,,,,,,,,,,,,,,,,,,,96 Sing,001,2022_Nov_22_0957,ProdSingRedoBetween,2021.2.3,59.97242470652595,
47,0,47,0,,,,,,,,,,,,,,,,,,,,,,,,,,2162.8852360993624,None,population,23,48,sing,yellow,2160.8755929991603,None,None,2160.8755929991603,None,,,,,,,,,,,,,,,,,,,,,,,,,,,,,,,,,,,96 Sing,001,2022_Nov_22_0957,ProdSingRedoBetween,2021.2.3,59.97242470652595,
48,0,48,0,,,,,,,,,,,,,,,,,,,,,,,,,,2165.3875162992626,None,debate,50,49,sing,blue,2163.3855098998174,None,None,2163.3855098998174,None,,,,,,,,,,,,,,,,,,,,,,,,,,,,,,,,,,,96 Sing,001,2022_Nov_22_0957,ProdSingRedoBetween,2021.2.3,59.97242470652595,
49,0,49,0,,,,,,,,,,,,,,,,,,,,,,,,,,2167.906691699289,None,dispute,78,50,sing,red,2165.8953002998605,None,None,2165.8953002998605,None,,,,,,,,,,,,,,,,,,,,,,,,,,,,,,,,,,,96 Sing,001,2022_Nov_22_0957,ProdSingRedoBetween,2021.2.3,59.97242470652595,
50,0,50,0,,,,,,,,,,,,,,,,,,,,,,,,,,2170.4092139992863,None,right,88,51,sing,red,2168.4072133991867,None,None,2168.4072133991867,None,,,,,,,,,,,,,,,,,,,,,,,,,,,,,,,,,,,96 Sing,001,2022_Nov_22_0957,ProdSingRedoBetween,2021.2.3,59.97242470652595,
51,0,51,0,,,,,,,,,,,,,,,,,,,,,,,,,,2172.9117355998605,None,leader,53,52,sing,blue,2170.9122639000416,None,None,2170.9122639000416,None,,,,,,,,,,,,,,,,,,,,,,,,,,,,,,,,,,,96 Sing,001,2022_Nov_22_0957,ProdSingRedoBetween,2021.2.3,59.97242470652595,
52,0,52,0,,,,,,,,,,,,,,,,,,,,,,,,,,2175.4309398997575,None,alert,81,53,sing,red,2173.4156579999253,None,None,2173.4156579999253,None,,,,,,,,,,,,,,,,,,,,,,,,,,,,,,,,,,,96 Sing,001,2022_Nov_22_0957,ProdSingRedoBetween,2021.2.3,59.97242470652595,
53,0,53,0,,,,,,,,,,,,,,,,,,,,,,,,,,2177.950014899485,None,patient,35,54,sing,blue,2175.938419099897,None,None,2175.938419099897,None,,,,,,,,,,,,,,,,,,,,,,,,,,,,,,,,,,,96 Sing,001,2022_Nov_22_0957,ProdSingRedoBetween,2021.2.3,59.97242470652595,
54,0,54,0,,,,,,,,,,,,,,,,,,,,,,,,,,2180.4525202000514,None,fellow,9,55,sing,yellow,2178.450528799556,None,None,2178.450528799556,None,,,,,,,,,,,,,,,,,,,,,,,,,,,,,,,,,,,96 Sing,001,2022_Nov_22_0957,ProdSingRedoBetween,2021.2.3,59.97242470652595,
55,0,55,0,,,,,,,,,,,,,,,,,,,,,,,,,,2182.9549930999056,None,entrance,26,56,sing,yellow,2180.955409599468,None,None,2180.955409599468,None,,,,,,,,,,,,,,,,,,,,,,,,,,,,,,,,,,,96 Sing,001,2022_Nov_22_0957,ProdSingRedoBetween,2021.2.3,59.97242470652595,
56,0,56,0,,,,,,,,,,,,,,,,,,,,,,,,,,2185.474205999635,None,private,68,57,sing,red,2183.461415199563,None,None,2183.461415199563,None,,,,,,,,,,,,,,,,,,,,,,,,,,,,,,,,,,,96 Sing,001,2022_Nov_22_0957,ProdSingRedoBetween,2021.2.3,59.97242470652595,
57,0,57,0,,,,,,,,,,,,,,,,,,,,,,,,,,2187.9767709998414,None,weight,27,58,sing,yellow,2185.9750590994954,None,None,2185.9750590994954,None,,,,,,,,,,,,,,,,,,,,,,,,,,,,,,,,,,,96 Sing,001,2022_Nov_22_0957,ProdSingRedoBetween,2021.2.3,59.97242470652595,
58,0,58,0,,,,,,,,,,,,,,,,,,,,,,,,,,2190.479080500081,None,under,43,59,sing,blue,2188.477788599208,None,None,2188.477788599208,None,,,,,,,,,,,,,,,,,,,,,,,,,,,,,,,,,,,96 Sing,001,2022_Nov_22_0957,ProdSingRedoBetween,2021.2.3,59.97242470652595,
59,0,59,0,,,,,,,,,,,,,,,,,,,,,,,,,,2192.9983264999464,None,store,42,60,sing,blue,2190.985211899504,None,None,2190.985211899504,None,,,,,,,,,,,,,,,,,,,,,,,,,,,,,,,,,,,96 Sing,001,2022_Nov_22_0957,ProdSingRedoBetween,2021.2.3,59.97242470652595,
60,0,60,0,,,,,,,,,,,,,,,,,,,,,,,,,,2195.500903999433,None,sunset,76,61,sing,red,2193.498987100087,None,None,2193.498987100087,None,,,,,,,,,,,,,,,,,,,,,,,,,,,,,,,,,,,96 Sing,001,2022_Nov_22_0957,ProdSingRedoBetween,2021.2.3,59.97242470652595,
61,0,61,0,,,,,,,,,,,,,,,,,,,,,,,,,,2198.020072799176,None,welcome,47,62,sing,blue,2196.0110345995054,None,None,2196.0110345995054,None,,,,,,,,,,,,,,,,,,,,,,,,,,,,,,,,,,,96 Sing,001,2022_Nov_22_0957,ProdSingRedoBetween,2021.2.3,59.97242470652595,
62,0,62,0,,,,,,,,,,,,,,,,,,,,,,,,,,2200.5223674997687,None,military,85,63,sing,red,2198.52053209953,None,None,2198.52053209953,None,,,,,,,,,,,,,,,,,,,,,,,,,,,,,,,,,,,96 Sing,001,2022_Nov_22_0957,ProdSingRedoBetween,2021.2.3,59.97242470652595,
63,0,63,0,,,,,,,,,,,,,,,,,,,,,,,,,,2203.0416625998914,None,message,83,64,sing,red,2201.0352152995765,None,None,2201.0352152995765,None,,,,,,,,,,,,,,,,,,,,,,,,,,,,,,,,,,,96 Sing,001,2022_Nov_22_0957,ProdSingRedoBetween,2021.2.3,59.97242470652595,
64,0,64,0,,,,,,,,,,,,,,,,,,,,,,,,,,2205.5442247996107,None,public,75,65,sing,red,2203.543829999864,None,None,2203.543829999864,None,,,,,,,,,,,,,,,,,,,,,,,,,,,,,,,,,,,96 Sing,001,2022_Nov_22_0957,ProdSingRedoBetween,2021.2.3,59.97242470652595,
65,0,65,0,,,,,,,,,,,,,,,,,,,,,,,,,,2208.063596399501,None,appearance,73,66,sing,red,2206.049042499624,None,None,2206.049042499624,None,,,,,,,,,,,,,,,,,,,,,,,,,,,,,,,,,,,96 Sing,001,2022_Nov_22_0957,ProdSingRedoBetween,2021.2.3,59.97242470652595,
66,0,66,0,,,,,,,,,,,,,,,,,,,,,,,,,,2210.565875099972,None,second,52,67,sing,blue,2208.564004499465,None,None,2208.564004499465,None,,,,,,,,,,,,,,,,,,,,,,,,,,,,,,,,,,,96 Sing,001,2022_Nov_22_0957,ProdSingRedoBetween,2021.2.3,59.97242470652595,
67,0,67,0,,,,,,,,,,,,,,,,,,,,,,,,,,2213.067897799425,None,goose,31,68,sing,blue,2211.0687865996733,None,None,2211.0687865996733,None,,,,,,,,,,,,,,,,,,,,,,,,,,,,,,,,,,,96 Sing,001,2022_Nov_22_0957,ProdSingRedoBetween,2021.2.3,59.97242470652595,
68,0,68,0,,,,,,,,,,,,,,,,,,,,,,,,,,2215.587537199259,None,quantity,10,69,sing,yellow,2213.5963391000405,None,None,2213.5963391000405,None,,,,,,,,,,,,,,,,,,,,,,,,,,,,,,,,,,,96 Sing,001,2022_Nov_22_0957,ProdSingRedoBetween,2021.2.3,59.97242470652595,
69,0,69,0,,,,,,,,,,,,,,,,,,,,,,,,,,2218.106827199459,None,owner,18,70,sing,yellow,2216.092681899667,None,None,2216.092681899667,None,,,,,,,,,,,,,,,,,,,,,,,,,,,,,,,,,,,96 Sing,001,2022_Nov_22_0957,ProdSingRedoBetween,2021.2.3,59.97242470652595,
70,0,70,0,,,,,,,,,,,,,,,,,,,,,,,,,,2220.609252399765,None,music,25,71,sing,yellow,2218.610315299593,None,None,2218.610315299593,None,,,,,,,,,,,,,,,,,,,,,,,,,,,,,,,,,,,96 Sing,001,2022_Nov_22_0957,ProdSingRedoBetween,2021.2.3,59.97242470652595,
71,0,71,0,,,,,,,,,,,,,,,,,,,,,,,,,,2223.111821299419,None,question,84,72,sing,red,2221.1103646997362,None,None,2221.1103646997362,None,,,,,,,,,,,,,,,,,,,,,,,,,,,,,,,,,,,96 Sing,001,2022_Nov_22_0957,ProdSingRedoBetween,2021.2.3,59.97242470652595,
72,0,72,0,,,,,,,,,,,,,,,,,,,,,,,,,,2225.630929999985,None,clean,87,73,sing,red,2223.6158062992617,None,None,2223.6158062992617,None,,,,,,,,,,,,,,,,,,,,,,,,,,,,,,,,,,,96 Sing,001,2022_Nov_22_0957,ProdSingRedoBetween,2021.2.3,59.97242470652595,
73,0,73,0,,,,,,,,,,,,,,,,,,,,,,,,,,2228.133458099328,None,skill,64,74,sing,red,2226.13416699972,None,None,2226.13416699972,None,,,,,,,,,,,,,,,,,,,,,,,,,,,,,,,,,,,96 Sing,001,2022_Nov_22_0957,ProdSingRedoBetween,2021.2.3,59.97242470652595,
74,0,74,0,,,,,,,,,,,,,,,,,,,,,,,,,,2230.652717399411,None,subject,58,75,sing,blue,2228.647604099475,None,None,2228.647604099475,None,,,,,,,,,,,,,,,,,,,,,,,,,,,,,,,,,,,96 Sing,001,2022_Nov_22_0957,ProdSingRedoBetween,2021.2.3,59.97242470652595,
75,0,75,0,,,,,,,,,,,,,,,,,,,,,,,,,,2233.171697899699,None,travel,34,76,sing,blue,2231.1574591994286,None,None,2231.1574591994286,None,,,,,,,,,,,,,,,,,,,,,,,,,,,,,,,,,,,96 Sing,001,2022_Nov_22_0957,ProdSingRedoBetween,2021.2.3,59.97242470652595,
76,0,76,0,,,,,,,,,,,,,,,,,,,,,,,,,,2235.6742801992223,None,route,21,77,sing,yellow,2233.6722565991804,None,None,2233.6722565991804,None,,,,,,,,,,,,,,,,,,,,,,,,,,,,,,,,,,,96 Sing,001,2022_Nov_22_0957,ProdSingRedoBetween,2021.2.3,59.97242470652595,
77,0,77,0,,,,,,,,,,,,,,,,,,,,,,,,,,2238.1934568993747,None,brief,22,78,sing,yellow,2236.178510499187,None,None,2236.178510499187,None,,,,,,,,,,,,,,,,,,,,,,,,,,,,,,,,,,,96 Sing,001,2022_Nov_22_0957,ProdSingRedoBetween,2021.2.3,59.97242470652595,
78,0,78,0,,,,,,,,,,,,,,,,,,,,,,,,,,2240.6959416996688,None,touch,0,79,sing,yellow,2238.6952017992735,None,None,2238.6952017992735,None,,,,,,,,,,,,,,,,,,,,,,,,,,,,,,,,,,,96 Sing,001,2022_Nov_22_0957,ProdSingRedoBetween,2021.2.3,59.97242470652595,
79,0,79,0,,,,,,,,,,,,,,,,,,,,,,,,,,2243.198470099829,None,watch,89,80,sing,red,2241.1964171994478,None,None,2241.1964171994478,None,,,,,,,,,,,,,,,,,,,,,,,,,,,,,,,,,,,96 Sing,001,2022_Nov_22_0957,ProdSingRedoBetween,2021.2.3,59.97242470652595,
80,0,80,0,,,,,,,,,,,,,,,,,,,,,,,,,,2245.701042299159,None,machinery,82,81,sing,red,2243.7009326992556,None,None,2243.7009326992556,None,,,,,,,,,,,,,,,,,,,,,,,,,,,,,,,,,,,96 Sing,001,2022_Nov_22_0957,ProdSingRedoBetween,2021.2.3,59.97242470652595,
81,0,81,0,,,,,,,,,,,,,,,,,,,,,,,,,,2248.22016469948,None,discovery,45,82,sing,blue,2246.209346199408,None,None,2246.209346199408,None,,,,,,,,,,,,,,,,,,,,,,,,,,,,,,,,,,,96 Sing,001,2022_Nov_22_0957,ProdSingRedoBetween,2021.2.3,59.97242470652595,
82,0,82,0,,,,,,,,,,,,,,,,,,,,,,,,,,2250.722578299232,None,bright,37,83,sing,blue,2248.721714099869,None,None,2248.721714099869,None,,,,,,,,,,,,,,,,,,,,,,,,,,,,,,,,,,,96 Sing,001,2022_Nov_22_0957,ProdSingRedoBetween,2021.2.3,59.97242470652595,
83,0,83,0,,,,,,,,,,,,,,,,,,,,,,,,,,2253.241869200021,None,region,8,84,sing,yellow,2251.2266228999943,None,None,2251.2266228999943,None,,,,,,,,,,,,,,,,,,,,,,,,,,,,,,,,,,,96 Sing,001,2022_Nov_22_0957,ProdSingRedoBetween,2021.2.3,59.97242470652595,
84,0,84,0,,,,,,,,,,,,,,,,,,,,,,,,,,2255.7442489992827,None,level,24,85,sing,yellow,2253.7422703998163,None,None,2253.7422703998163,None,,,,,,,,,,,,,,,,,,,,,,,,,,,,,,,,,,,96 Sing,001,2022_Nov_22_0957,ProdSingRedoBetween,2021.2.3,59.97242470652595,
85,0,85,0,,,,,,,,,,,,,,,,,,,,,,,,,,2258.24666479975,None,incident,67,86,sing,red,2256.245330799371,None,None,2256.245330799371,None,,,,,,,,,,,,,,,,,,,,,,,,,,,,,,,,,,,96 Sing,001,2022_Nov_22_0957,ProdSingRedoBetween,2021.2.3,59.97242470652595,
86,0,86,0,,,,,,,,,,,,,,,,,,,,,,,,,,2260.766003999859,None,throw,36,87,sing,blue,2258.7503017000854,None,None,2258.7503017000854,None,,,,,,,,,,,,,,,,,,,,,,,,,,,,,,,,,,,96 Sing,001,2022_Nov_22_0957,ProdSingRedoBetween,2021.2.3,59.97242470652595,
87,0,87,0,,,,,,,,,,,,,,,,,,,,,,,,,,2263.268114999868,None,court,71,88,sing,red,2261.266484799795,None,None,2261.266484799795,None,,,,,,,,,,,,,,,,,,,,,,,,,,,,,,,,,,,96 Sing,001,2022_Nov_22_0957,ProdSingRedoBetween,2021.2.3,59.97242470652595,
88,0,88,0,,,,,,,,,,,,,,,,,,,,,,,,,,2265.770900799893,None,birth,11,89,sing,yellow,2263.768969600089,None,None,2263.768969600089,None,,,,,,,,,,,,,,,,,,,,,,,,,,,,,,,,,,,96 Sing,001,2022_Nov_22_0957,ProdSingRedoBetween,2021.2.3,59.97242470652595,
89,0,89,0,,,,,,,,,,,,,,,,,,,,,,,,,,2268.2900147996843,None,audience,80,90,sing,red,2266.2747192997485,None,None,2266.2747192997485,None,,,,,,,,,,,,,,,,,,,,,,,,,,,,,,,,,,,96 Sing,001,2022_Nov_22_0957,ProdSingRedoBetween,2021.2.3,59.97242470652595,
,,,,,,,,,,,,,,,,,,,,,,,,,,,,,,,,,,,,,,,,,2268.7909510992467,None,k,231.18073980044574,2268.7909510992467,None,,,,,,,,,,,,,,,,,,,,,,,,,,,,,96 Sing,001,2022_Nov_22_0957,ProdSingRedoBetween,2021.2.3,59.97242470652595,
,,,,0,0,0,0,,,,,,,,,,,,,,,,,,,,,,2532.9540438000113,None,,,,,,,,,,,,,,,,,display,116,1,sing,new,null,2500.502365199849,None,2500.502365199849,None,5,23.18115680012852,2500.502365199849,None,23.18115680012852,2523.7134137991816,None,2524.237316899933,None,2524.237316899933,None,f,8.69421820063144,2524.237316899933,None,8.69421820063144,,,96 Sing,001,2022_Nov_22_0957,ProdSingRedoBetween,2021.2.3,59.97242470652595,
,,,,1,0,1,0,,,,,,,,,,,,,,,,,,,,,,2554.5922775994986,None,,,,,,,,,,,,,,,,,meeting,138,2,sing,new,null,2533.4662194000557,None,2533.4662194000557,None,5,17.961302400566638,2533.4662194000557,None,17.961302400566638,2551.455921999179,None,2551.9635149994865,None,2551.9635149994865,None,f,2.608003200031817,2551.9635149994865,None,2.608003200031817,,,96 Sing,001,2022_Nov_22_0957,ProdSingRedoBetween,2021.2.3,59.97242470652595,
,,,,2,0,2,0,,,,,,,,,,,,,,,,,,,,,,2568.4059889996424,None,,,,,,,,,,,,,,,,,appearance,73,3,sing,old,red,2555.1053517991677,None,2555.1053517991677,None,4,9.770127600058913,2555.1053517991677,None,9.770127600058913,2564.9038158999756,None,2565.408515399322,None,2565.408515399322,None,f,2.978928499855101,2565.408515399322,None,2.978928499855101,,,96 Sing,001,2022_Nov_22_0957,ProdSingRedoBetween,2021.2.3,59.97242470652595,
,,,,3,0,3,0,,,,,,,,,,,,,,,,,,,,,,2574.4788140999153,None,,,,,,,,,,,,,,,,,period,69,4,sing,old,red,2568.9138942994177,None,2568.9138942994177,None,6,3.5696956999599934,2568.9138942994177,None,3.5696956999599934,2572.5149826994166,None,2573.0324053997174,None,2573.0324053997174,None,r,1.4271290004253387,2573.0324053997174,None,1.4271290004253387,,,96 Sing,001,2022_Nov_22_0957,ProdSingRedoBetween,2021.2.3,59.97242470652595,
,,,,4,0,4,0,,,,,,,,,,,,,,,,,,,,,,2579.3683081995696,None,,,,,,,,,,,,,,,,,debate,50,5,sing,old,blue,2574.9858090998605,None,2574.9858090998605,None,5,2.5775946993380785,2574.9858090998605,None,2.5775946993380785,2577.58304749988,None,2578.0824962994084,None,2578.0824962994084,None,f,1.2568817008286715,2578.0824962994084,None,1.2568817008286715,,,96 Sing,001,2022_Nov_22_0957,ProdSingRedoBetween,2021.2.3,59.97242470652595,
,,,,5,0,5,0,,,,,,,,,,,,,,,,,,,,,,2585.6232137996703,None,,,,,,,,,,,,,,,,,front,28,6,sing,old,yellow,2579.870726400055,None,2579.870726400055,None,3,2.956775600090623,2579.870726400055,None,2.956775600090623,2582.8557651992887,None,2583.3713368000463,None,2583.3713368000463,None,n,2.224248199723661,2583.3713368000463,None,2.224248199723661,,,96 Sing,001,2022_Nov_22_0957,ProdSingRedoBetween,2021.2.3,59.97242470652595,
,,,,6,0,6,0,,,,,,,,,,,,,,,,,,,,,,2593.0313148992136,None,,,,,,,,,,,,,,,,,break,15,7,sing,old,yellow,2586.1270188000053,None,2586.1270188000053,None,5,3.252321599982679,2586.1270188000053,None,3.252321599982679,2589.420591400005,None,2589.9273596992716,None,2589.9273596992716,None,f,3.0842108000069857,2589.9273596992716,None,3.0842108000069857,,,96 Sing,001,2022_Nov_22_0957,ProdSingRedoBetween,2021.2.3,59.97242470652595,
,,,,7,0,7,0,,,,,,,,,,,,,,,,,,,,,,2599.1036735996604,None,,,,,,,,,,,,,,,,,minor,100,8,sing,new,null,2593.535482899286,None,2593.535482899286,None,2,3.33191670011729,2593.535482899286,None,3.33191670011729,2596.8842049995437,None,2597.388640099205,None,2597.388640099205,None,n,1.6947213001549244,2597.388640099205,None,1.6947213001549244,,,96 Sing,001,2022_Nov_22_0957,ProdSingRedoBetween,2021.2.3,59.97242470652595,
,,,,8,0,8,0,,,,,,,,,,,,,,,,,,,,,,2606.136000899598,None,,,,,,,,,,,,,,,,,short,157,9,sing,new,null,2599.6131303999573,None,2599.6131303999573,None,3,4.462242299690843,2599.6131303999573,None,4.462242299690843,2604.0916239991784,None,2604.5922586992383,None,2604.5922586992383,None,n,1.5153221003711224,2604.5922586992383,None,1.5153221003711224,,,96 Sing,001,2022_Nov_22_0957,ProdSingRedoBetween,2021.2.3,59.97242470652595,
,,,,9,0,9,0,,,,,,,,,,,,,,,,,,,,,,2612.7333915997297,None,,,,,,,,,,,,,,,,,block,162,10,sing,new,null,2606.6542771998793,None,2606.6542771998793,None,1,3.941129100508988,2606.6542771998793,None,3.941129100508988,2610.6169431991875,None,2611.1365314992145,None,2611.1365314992145,None,n,1.5788390999659896,2611.1365314992145,None,1.5788390999659896,,,96 Sing,001,2022_Nov_22_0957,ProdSingRedoBetween,2021.2.3,59.97242470652595,
,,,,10,0,10,0,,,,,,,,,,,,,,,,,,,,,,2619.256755899638,None,,,,,,,,,,,,,,,,,problem,4,11,sing,old,yellow,2613.239494599402,None,2613.239494599402,None,4,2.8198619997128844,2613.239494599402,None,2.8198619997128844,2616.0879413997754,None,2616.5875649992377,None,2616.5875649992377,None,f,2.6478426000103354,2616.5875649992377,None,2.6478426000103354,,,96 Sing,001,2022_Nov_22_0957,ProdSingRedoBetween,2021.2.3,59.97242470652595,
,,,,11,0,11,0,,,,,,,,,,,,,,,,,,,,,,2625.0462408000603,None,,,,,,,,,,,,,,,,,write,44,12,sing,old,blue,2619.765585999936,None,2619.765585999936,None,4,2.653792799450457,2619.765585999936,None,2.653792799450457,2622.4436163995415,None,2622.9516074992716,None,2622.9516074992716,None,f,2.0756508000195026,2622.9516074992716,None,2.0756508000195026,,,96 Sing,001,2022_Nov_22_0957,ProdSingRedoBetween,2021.2.3,59.97242470652595,
,,,,12,0,12,0,,,,,,,,,,,,,,,,,,,,,,2632.5701166996732,None,,,,,,,,,,,,,,,,,design,32,13,sing,old,blue,2625.5474319998175,None,2625.5474319998175,None,4,4.511949500069022,2625.5474319998175,None,4.511949500069022,2630.085803600028,None,2630.5908238999546,None,2630.5908238999546,None,f,1.956771300174296,2630.5908238999546,None,1.956771300174296,,,96 Sing,001,2022_Nov_22_0957,ProdSingRedoBetween,2021.2.3,59.97242470652595,
,,,,13,0,13,0,,,,,,,,,,,,,,,,,,,,,,2638.5093281995505,None,,,,,,,,,,,,,,,,,benefit,70,14,sing,old,red,2633.077488999814,None,2633.077488999814,None,4,3.3178943004459143,2633.077488999814,None,3.3178943004459143,2636.4243139997125,None,2636.9245130000636,None,2636.9245130000636,None,f,1.5668272003531456,2636.9245130000636,None,1.5668272003531456,,,96 Sing,001,2022_Nov_22_0957,ProdSingRedoBetween,2021.2.3,59.97242470652595,
,,,,14,0,14,0,,,,,,,,,,,,,,,,,,,,,,2642.5135039994493,None,,,,,,,,,,,,,,,,,silence,145,15,sing,new,null,2639.0237283995375,None,2639.0237283995375,None,2,1.9237718991935253,2639.0237283995375,None,1.9237718991935253,2640.979927299544,None,2641.482964899391,None,2641.482964899391,None,n,1.008278500288725,2641.482964899391,None,1.008278500288725,,,96 Sing,001,2022_Nov_22_0957,ProdSingRedoBetween,2021.2.3,59.97242470652595,
,,,,15,0,15,0,,,,,,,,,,,,,,,,,,,,,,2648.0021340996027,None,,,,,,,,,,,,,,,,,agreement,60,16,sing,old,red,2643.013817999512,None,2643.013817999512,None,5,2.9735840996727347,2643.013817999512,None,2.9735840996727347,2646.016786299646,None,2646.518745499663,None,2646.518745499663,None,f,1.4525791006162763,2646.518745499663,None,1.4525791006162763,,,96 Sing,001,2022_Nov_22_0957,ProdSingRedoBetween,2021.2.3,59.97242470652595,
,,,,16,0,16,0,,,,,,,,,,,,,,,,,,,,,,2652.590004899539,None,,,,,,,,,,,,,,,,,swift,132,17,sing,new,null,2648.50645209942,None,2648.50645209942,None,1,2.5609930995851755,2648.50645209942,None,2.5609930995851755,2651.095844199881,None,2651.6058776993304,None,2651.6058776993304,None,n,0.9655349003151059,2651.6058776993304,None,0.9655349003151059,,,96 Sing,001,2022_Nov_22_0957,ProdSingRedoBetween,2021.2.3,59.97242470652595,
,,,,17,0,17,0,,,,,,,,,,,,,,,,,,,,,,2659.797194299288,None,,,,,,,,,,,,,,,,,travel,34,18,sing,old,blue,2653.092426300049,None,2653.092426300049,None,3,3.670841899700463,2653.092426300049,None,3.670841899700463,2656.794974199496,None,2657.2947739996016,None,2657.2947739996016,None,n,2.484506000764668,2657.2947739996016,None,2.484506000764668,,,96 Sing,001,2022_Nov_22_0957,ProdSingRedoBetween,2021.2.3,59.97242470652595,
,,,,18,0,18,0,,,,,,,,,,,,,,,,,,,,,,2665.0524059999734,None,,,,,,,,,,,,,,,,,community,166,19,sing,new,null,2660.3077678000554,None,2660.3077678000554,None,5,2.9117115000262856,2660.3077678000554,None,2.9117115000262856,2663.255611299537,None,2663.767924499698,None,2663.767924499698,None,f,1.267366299405694,2663.767924499698,None,1.267366299405694,,,96 Sing,001,2022_Nov_22_0957,ProdSingRedoBetween,2021.2.3,59.97242470652595,
,,,,19,0,19,0,,,,,,,,,,,,,,,,,,,,,,2671.325418899767,None,,,,,,,,,,,,,,,,,birth,11,20,sing,old,yellow,2665.567077599466,None,2665.567077599466,None,2,4.2360947001725435,2665.567077599466,None,4.2360947001725435,2669.823550599627,None,2670.328550999984,None,2670.328550999984,None,n,0.9787267995998263,2670.328550999984,None,0.9787267995998263,,,96 Sing,001,2022_Nov_22_0957,ProdSingRedoBetween,2021.2.3,59.97242470652595,
,,,,20,0,20,0,,,,,,,,,,,,,,,,,,,,,,2677.9819998992607,None,,,,,,,,,,,,,,,,,search,158,21,sing,new,null,2671.829785199836,None,2671.829785199836,None,3,4.789486300200224,2671.829785199836,None,4.789486300200224,2676.648795399815,None,2677.1528587993234,None,2677.1528587993234,None,n,0.8104143003001809,2677.1528587993234,None,0.8104143003001809,,,96 Sing,001,2022_Nov_22_0957,ProdSingRedoBetween,2021.2.3,59.97242470652595,
,,,,21,0,21,0,,,,,,,,,,,,,,,,,,,,,,2681.8024583999068,None,,,,,,,,,,,,,,,,,comedy,111,22,sing,new,null,2678.4947206992656,None,2678.4947206992656,None,1,1.668571600690484,2678.4947206992656,None,1.668571600690484,2680.1857206998393,None,2680.70145319961,None,2680.70145319961,None,n,1.0858213007450104,2680.70145319961,None,1.0858213007450104,,,96 Sing,001,2022_Nov_22_0957,ProdSingRedoBetween,2021.2.3,59.97242470652595,
,,,,22,0,22,0,,,,,,,,,,,,,,,,,,,,,,2687.1576939998195,None,,,,,,,,,,,,,,,,,command,168,23,sing,new,null,2682.309273899533,None,2682.309273899533,None,2,3.3981196004897356,2682.309273899533,None,3.3981196004897356,2685.7299810992554,None,2686.241007499397,None,2686.241007499397,None,n,0.8901738999411464,2686.241007499397,None,0.8901738999411464,,,96 Sing,001,2022_Nov_22_0957,ProdSingRedoBetween,2021.2.3,59.97242470652595,
,,,,23,0,23,0,,,,,,,,,,,,,,,,,,,,,,2693.466900699772,None,,,,,,,,,,,,,,,,,scene,74,24,sing,old,red,2687.6593733998016,None,2687.6593733998016,None,6,4.15195900015533,2687.6593733998016,None,4.15195900015533,2691.8377959998325,None,2692.349185999483,None,2692.349185999483,None,r,1.0943210003897548,2692.349185999483,None,1.0943210003897548,,,96 Sing,001,2022_Nov_22_0957,ProdSingRedoBetween,2021.2.3,59.97242470652595,
,,,,24,0,24,0,,,,,,,,,,,,,,,,,,,,,,2700.02159009967,None,,,,,,,,,,,,,,,,,voice,113,25,sing,new,null,2693.9814614998177,None,2693.9814614998177,None,3,4.405802899971604,2693.9814614998177,None,4.405802899971604,2698.4038605000824,None,2698.908429599367,None,2698.908429599367,None,f,1.0866943998262286,2698.908429599367,None,1.0866943998262286,,,96 Sing,001,2022_Nov_22_0957,ProdSingRedoBetween,2021.2.3,59.97242470652595,
,,,,25,0,25,0,,,,,,,,,,,,,,,,,,,,,,2704.142642199993,None,,,,,,,,,,,,,,,,,nature,122,26,sing,new,null,2700.5242033991963,None,2700.5242033991963,None,1,1.8309961995109916,2700.5242033991963,None,1.8309961995109916,2702.3746376000345,None,2702.8903721999377,None,2702.8903721999377,None,n,1.2249638000503182,2702.8903721999377,None,1.2249638000503182,,,96 Sing,001,2022_Nov_22_0957,ProdSingRedoBetween,2021.2.3,59.97242470652595,
,,,,26,0,26,0,,,,,,,,,,,,,,,,,,,,,,2709.012946099974,None,,,,,,,,,,,,,,,,,scale,164,27,sing,new,null,2704.6502169994637,None,2704.6502169994637,None,2,2.6491983998566866,2704.6502169994637,None,2.6491983998566866,2707.337798799388,None,2707.856403399259,None,2707.856403399259,None,n,1.1388742001727223,2707.856403399259,None,1.1388742001727223,,,96 Sing,001,2022_Nov_22_0957,ProdSingRedoBetween,2021.2.3,59.97242470652595,
,,,,27,0,27,0,,,,,,,,,,,,,,,,,,,,,,2713.5022146999836,None,,,,,,,,,,,,,,,,,sunset,76,28,sing,old,red,2709.514531799592,None,2709.514531799592,None,6,2.4568718001246452,2709.514531799592,None,2.4568718001246452,2712.006241799332,None,2712.5164751000702,None,2712.5164751000702,None,r,0.9587602997198701,2712.5164751000702,None,0.9587602997198701,,,96 Sing,001,2022_Nov_22_0957,ProdSingRedoBetween,2021.2.3,59.97242470652595,
,,,,28,0,28,0,,,,,,,,,,,,,,,,,,,,,,2717.454702999443,None,,,,,,,,,,,,,,,,,frank,17,29,sing,old,yellow,2714.0071616992354,None,2714.0071616992354,None,1,1.9320406997576356,2714.0071616992354,None,1.9320406997576356,2715.9722534995526,None,2716.4875236991793,None,2716.4875236991793,None,n,0.9477160004898906,2716.4875236991793,None,0.9477160004898906,,,96 Sing,001,2022_Nov_22_0957,ProdSingRedoBetween,2021.2.3,59.97242470652595,
,,,,29,0,29,0,,,,,,,,,,,,,,,,,,,,,,2721.910316899419,None,,,,,,,,,,,,,,,,,dispute,78,30,sing,old,red,2717.967630499974,None,2717.967630499974,None,5,2.2755222003906965,2717.967630499974,None,2.2755222003906965,2720.2751754000783,None,2720.7788405995816,None,2720.7788405995816,None,f,1.11255900003016,2720.7788405995816,None,1.11255900003016,,,96 Sing,001,2022_Nov_22_0957,ProdSingRedoBetween,2021.2.3,59.97242470652595,
,,,,30,0,30,0,,,,,,,,,,,,,,,,,,,,,,2727.6833086991683,None,,,,,,,,,,,,,,,,,native,97,31,sing,new,null,2722.4196205995977,None,2722.4196205995977,None,2,3.335904199630022,2722.4196205995977,None,3.335904199630022,2725.7850748999044,None,2726.2970028994605,None,2726.2970028994605,None,n,1.3544171005487442,2726.2970028994605,None,1.3544171005487442,,,96 Sing,001,2022_Nov_22_0957,ProdSingRedoBetween,2021.2.3,59.97242470652595,
,,,,31,0,31,0,,,,,,,,,,,,,,,,,,,,,,2732.2527838991955,None,,,,,,,,,,,,,,,,,business,102,32,sing,new,null,2728.2040997995064,None,2728.2040997995064,None,2,2.38328589964658,2728.2040997995064,None,2.38328589964658,2730.6259586000815,None,2731.1349414996803,None,2731.1349414996803,None,n,1.1002674996852875,2731.1349414996803,None,1.1002674996852875,,,96 Sing,001,2022_Nov_22_0957,ProdSingRedoBetween,2021.2.3,59.97242470652595,
,,,,32,0,32,0,,,,,,,,,,,,,,,,,,,,,,2737.2077375994995,None,,,,,,,,,,,,,,,,,recall,136,33,sing,new,null,2732.7624260000885,None,2732.7624260000885,None,4,3.016717000864446,2732.7624260000885,None,3.016717000864446,2735.808118599467,None,2736.323656999506,None,2736.323656999506,None,f,0.863629899919033,2736.323656999506,None,0.863629899919033,,,96 Sing,001,2022_Nov_22_0957,ProdSingRedoBetween,2021.2.3,59.97242470652595,
,,,,33,0,33,0,,,,,,,,,,,,,,,,,,,,,,2742.648893499747,None,,,,,,,,,,,,,,,,,welcome,47,34,sing,old,blue,2737.7167481994256,None,2737.7167481994256,None,2,2.8944761008024216,2737.7167481994256,None,2.8944761008024216,2740.6278679994866,None,2741.1351101994514,None,2741.1351101994514,None,n,1.4923080001026392,2741.1351101994514,None,1.4923080001026392,,,96 Sing,001,2022_Nov_22_0957,ProdSingRedoBetween,2021.2.3,59.97242470652595,
,,,,34,0,34,0,,,,,,,,,,,,,,,,,,,,,,2746.6505142999813,None,,,,,,,,,,,,,,,,,bright,37,35,sing,old,blue,2743.169899999164,None,2743.169899999164,None,2,2.4493907000869513,2743.169899999164,None,2.4493907000869513,2745.656098499894,None,2746.1697610998526,None,2746.1697610998526,None,n,0.4495020993053913,2746.1697610998526,None,0.4495020993053913,,,96 Sing,001,2022_Nov_22_0957,ProdSingRedoBetween,2021.2.3,59.97242470652595,
,,,,35,0,35,0,,,,,,,,,,,,,,,,,,,,,,2751.305038999766,None,,,,,,,,,,,,,,,,,resistance,66,36,sing,old,red,2747.1594572998583,None,2747.1594572998583,None,5,2.8357335003092885,2747.1594572998583,None,2.8357335003092885,2750.0205844994634,None,2750.527920499444,None,2750.527920499444,None,f,0.755129300057888,2750.527920499444,None,0.755129300057888,,,96 Sing,001,2022_Nov_22_0957,ProdSingRedoBetween,2021.2.3,59.97242470652595,
,,,,36,0,36,0,,,,,,,,,,,,,,,,,,,,,,2755.0589175000787,None,,,,,,,,,,,,,,,,,turkey,16,37,sing,old,yellow,2751.805776499212,None,2751.805776499212,None,6,1.853532299399376,2751.805776499212,None,1.853532299399376,2753.6749486997724,None,2754.174650799483,None,2754.174650799483,None,r,0.8605484999716282,2754.174650799483,None,0.8605484999716282,,,96 Sing,001,2022_Nov_22_0957,ProdSingRedoBetween,2021.2.3,59.97242470652595,
,,,,37,0,37,0,,,,,,,,,,,,,,,,,,,,,,2760.5976916998625,None,,,,,,,,,,,,,,,,,finish,161,38,sing,new,null,2755.561340299435,None,2755.561340299435,None,3,2.8658868996426463,2755.561340299435,None,2.8658868996426463,2758.450563999824,None,2758.9629063997418,None,2758.9629063997418,None,n,1.616214499808848,2758.9629063997418,None,1.616214499808848,,,96 Sing,001,2022_Nov_22_0957,ProdSingRedoBetween,2021.2.3,59.97242470652595,
,,,,38,0,38,0,,,,,,,,,,,,,,,,,,,,,,2765.168958599679,None,,,,,,,,,,,,,,,,,message,83,39,sing,old,red,2761.1040247995406,None,2761.1040247995406,None,5,2.8271163003519177,2761.1040247995406,None,2.8271163003519177,2763.951102199964,None,2764.4519587997347,None,2764.4519587997347,None,f,0.6873078998178244,2764.4519587997347,None,0.6873078998178244,,,96 Sing,001,2022_Nov_22_0957,ProdSingRedoBetween,2021.2.3,59.97242470652595,
,,,,39,0,39,0,,,,,,,,,,,,,,,,,,,,,,2768.7558948993683,None,,,,,,,,,,,,,,,,,state,105,40,sing,new,null,2765.67278179992,None,2765.67278179992,None,2,1.8424030002206564,2765.67278179992,None,1.8424030002206564,2767.538810099475,None,2768.0386197995394,None,2768.0386197995394,None,n,0.6924753002822399,2768.0386197995394,None,0.6924753002822399,,,96 Sing,001,2022_Nov_22_0957,ProdSingRedoBetween,2021.2.3,59.97242470652595,
,,,,40,0,40,0,,,,,,,,,,,,,,,,,,,,,,2775.3834023000672,None,,,,,,,,,,,,,,,,,quiet,129,41,sing,new,null,2769.257506299764,None,2769.257506299764,None,3,5.185635199770331,2769.257506299764,None,5.185635199770331,2774.463704499416,None,2774.9825120996684,None,2774.9825120996684,None,n,0.3727502999827266,2774.9825120996684,None,0.3727502999827266,,,96 Sing,001,2022_Nov_22_0957,ProdSingRedoBetween,2021.2.3,59.97242470652595,
,,,,41,0,41,0,,,,,,,,,,,,,,,,,,,,,,2780.734715799801,None,,,,,,,,,,,,,,,,,treatment,48,42,sing,old,blue,2775.911242099479,None,2775.911242099479,None,5,3.099884900264442,2775.911242099479,None,3.099884900264442,2779.0423474991694,None,2779.550032399595,None,2779.550032399595,None,f,1.1570477001369,2779.550032399595,None,1.1570477001369,,,96 Sing,001,2022_Nov_22_0957,ProdSingRedoBetween,2021.2.3,59.97242470652595,
,,,,42,0,42,0,,,,,,,,,,,,,,,,,,,,,,2785.572425399907,None,,,,,,,,,,,,,,,,,incident,67,43,sing,old,red,2781.242613499984,None,2781.242613499984,None,2,3.1603956008329988,2781.242613499984,None,3.1603956008329988,2784.4214616995305,None,2784.924374799244,None,2784.924374799244,None,n,0.6307856999337673,2784.924374799244,None,0.6307856999337673,,,96 Sing,001,2022_Nov_22_0957,ProdSingRedoBetween,2021.2.3,59.97242470652595,
,,,,43,0,43,0,,,,,,,,,,,,,,,,,,,,,,2791.7805087994784,None,,,,,,,,,,,,,,,,,error,14,44,sing,old,yellow,2786.0846306998283,None,2786.0846306998283,None,4,3.3823653999716043,2786.0846306998283,None,3.3823653999716043,2789.496259799227,None,2790.010401199572,None,2790.010401199572,None,f,1.7528559993952513,2790.010401199572,None,1.7528559993952513,,,96 Sing,001,2022_Nov_22_0957,ProdSingRedoBetween,2021.2.3,59.97242470652595,
,,,,44,0,44,0,,,,,,,,,,,,,,,,,,,,,,2796.1050979997963,None,,,,,,,,,,,,,,,,,discussion,77,45,sing,old,red,2792.3063546996564,None,2792.3063546996564,None,4,2.896797399967909,2792.3063546996564,None,2.896797399967909,2795.233438499272,None,2795.739891799167,None,2795.739891799167,None,f,0.3434589998796582,2795.739891799167,None,0.3434589998796582,,,96 Sing,001,2022_Nov_22_0957,ProdSingRedoBetween,2021.2.3,59.97242470652595,
,,,,45,0,45,0,,,,,,,,,,,,,,,,,,,,,,2800.4379802998155,None,,,,,,,,,,,,,,,,,bucket,118,46,sing,new,null,2796.625110199675,None,2796.625110199675,None,1,2.4420672999694943,2796.625110199675,None,2.4420672999694943,2799.1033731997013,None,2799.603194599971,None,2799.603194599971,None,n,0.8079270999878645,2799.603194599971,None,0.8079270999878645,,,96 Sing,001,2022_Nov_22_0957,ProdSingRedoBetween,2021.2.3,59.97242470652595,
,,,,46,0,46,0,,,,,,,,,,,,,,,,,,,,,,2805.1254656994715,None,,,,,,,,,,,,,,,,,little,12,47,sing,old,yellow,2800.939277699217,None,2800.939277699217,None,2,2.6319230999797583,2800.939277699217,None,2.6319230999797583,2803.6013350998983,None,2804.108358499594,None,2804.108358499594,None,n,0.9906909000128508,2804.108358499594,None,0.9906909000128508,,,96 Sing,001,2022_Nov_22_0957,ProdSingRedoBetween,2021.2.3,59.97242470652595,
,,,,47,0,47,0,,,,,,,,,,,,,,,,,,,,,,2809.129203299992,None,,,,,,,,,,,,,,,,,route,21,48,sing,old,yellow,2805.6317763999104,None,2805.6317763999104,None,6,2.2433491004630923,2805.6317763999104,None,2.2433491004630923,2807.894864799455,None,2808.39741580002,None,2808.39741580002,None,r,0.7096946993842721,2808.39741580002,None,0.7096946993842721,,,96 Sing,001,2022_Nov_22_0957,ProdSingRedoBetween,2021.2.3,59.97242470652595,
,,,,48,0,48,0,,,,,,,,,,,,,,,,,,,,,,2814.5681499997154,None,,,,,,,,,,,,,,,,,empty,134,49,sing,new,null,2809.64529330004,None,2809.64529330004,None,3,3.1256459997966886,2809.64529330004,None,3.1256459997966886,2812.8011280996725,None,2813.300405899994,None,2813.300405899994,None,n,1.2387290997430682,2813.300405899994,None,1.2387290997430682,,,96 Sing,001,2022_Nov_22_0957,ProdSingRedoBetween,2021.2.3,59.97242470652595,
,,,,49,0,49,0,,,,,,,,,,,,,,,,,,,,,,2820.023616399616,None,,,,,,,,,,,,,,,,,marriage,151,50,sing,new,null,2815.0735366996378,None,2815.0735366996378,None,4,4.009689399972558,2815.0735366996378,None,4.009689399972558,2819.1110952999443,None,2819.623405300081,None,2819.623405300081,None,f,0.37166929990053177,2819.623405300081,None,0.37166929990053177,,,96 Sing,001,2022_Nov_22_0957,ProdSingRedoBetween,2021.2.3,59.97242470652595,
,,,,50,0,50,0,,,,,,,,,,,,,,,,,,,,,,2826.5134178996086,None,,,,,,,,,,,,,,,,,taste,141,51,sing,new,null,2820.5339468000457,None,2820.5339468000457,None,3,4.261068499647081,2820.5339468000457,None,4.261068499647081,2824.81291139964,None,2825.3150108000264,None,2825.3150108000264,None,n,1.168167700059712,2825.3150108000264,None,1.168167700059712,,,96 Sing,001,2022_Nov_22_0957,ProdSingRedoBetween,2021.2.3,59.97242470652595,
,,,,51,0,51,0,,,,,,,,,,,,,,,,,,,,,,2830.1168650994077,None,,,,,,,,,,,,,,,,,drove,20,52,sing,old,yellow,2827.0168943991885,None,2827.0168943991885,None,2,2.2581343995407224,2827.0168943991885,None,2.2581343995407224,2829.300754599273,None,2829.8051954992115,None,2829.8051954992115,None,n,0.2937898999080062,2829.8051954992115,None,0.2937898999080062,,,96 Sing,001,2022_Nov_22_0957,ProdSingRedoBetween,2021.2.3,59.97242470652595,
,,,,52,0,52,0,,,,,,,,,,,,,,,,,,,,,,2834.254534199834,None,,,,,,,,,,,,,,,,,brief,22,53,sing,old,yellow,2830.620618299581,None,2830.620618299581,None,5,2.5904783001169562,2830.620618299581,None,2.5904783001169562,2833.242102599703,None,2833.763133599423,None,2833.763133599423,None,f,0.46383209992200136,2833.763133599423,None,0.46383209992200136,,,96 Sing,001,2022_Nov_22_0957,ProdSingRedoBetween,2021.2.3,59.97242470652595,
,,,,53,0,53,0,,,,,,,,,,,,,,,,,,,,,,2837.908228399232,None,,,,,,,,,,,,,,,,,burden,155,54,sing,new,null,2834.7656080992892,None,2834.7656080992892,None,1,1.7653037998825312,2834.7656080992892,None,1.7653037998825312,2836.557438899763,None,2837.0572476992384,None,2837.0572476992384,None,n,0.8257074002176523,2837.0572476992384,None,0.8257074002176523,,,96 Sing,001,2022_Nov_22_0957,ProdSingRedoBetween,2021.2.3,59.97242470652595,
,,,,54,0,54,0,,,,,,,,,,,,,,,,,,,,,,2841.328321199864,None,,,,,,,,,,,,,,,,,religion,112,55,sing,new,null,2838.421044900082,None,2838.421044900082,None,1,2.1418711002916098,2838.421044900082,None,2.1418711002916098,2840.5943085998297,None,2841.094840900041,None,2841.094840900041,None,n,0.2121230000630021,2841.094840900041,None,0.2121230000630021,,,96 Sing,001,2022_Nov_22_0957,ProdSingRedoBetween,2021.2.3,59.97242470652595,
,,,,55,0,55,0,,,,,,,,,,,,,,,,,,,,,,2845.699228799902,None,,,,,,,,,,,,,,,,,population,23,56,sing,old,yellow,2841.8298557000235,None,2841.8298557000235,None,2,3.037290600128472,2841.8298557000235,None,3.037290600128472,2844.9083876991645,None,2845.4228978995234,None,2845.4228978995234,None,n,0.2522751996293664,2845.4228978995234,None,0.2522751996293664,,,96 Sing,001,2022_Nov_22_0957,ProdSingRedoBetween,2021.2.3,59.97242470652595,
,,,,56,0,56,0,,,,,,,,,,,,,,,,,,,,,,2849.4862969992682,None,,,,,,,,,,,,,,,,,escape,153,57,sing,new,null,2846.204609999433,None,2846.204609999433,None,2,2.4224198004230857,2846.204609999433,None,2.4224198004230857,2848.654025799595,None,2849.1692645000294,None,2849.1692645000294,None,n,0.29766490031033754,2849.1692645000294,None,0.29766490031033754,,,96 Sing,001,2022_Nov_22_0957,ProdSingRedoBetween,2021.2.3,59.97242470652595,
,,,,57,0,57,0,,,,,,,,,,,,,,,,,,,,,,2853.2565746000037,None,,,,,,,,,,,,,,,,,defeat,7,58,sing,old,yellow,2849.98889459949,None,2849.98889459949,None,5,1.8541888995096087,2849.98889459949,None,1.8541888995096087,2851.877338499762,None,2852.3941601999104,None,2852.3941601999104,None,f,0.8407172001898289,2852.3941601999104,None,0.8407172001898289,,,96 Sing,001,2022_Nov_22_0957,ProdSingRedoBetween,2021.2.3,59.97242470652595,
,,,,58,0,58,0,,,,,,,,,,,,,,,,,,,,,,2856.5440257992595,None,,,,,,,,,,,,,,,,,tennis,165,59,sing,new,null,2853.7652083998546,None,2853.7652083998546,None,1,1.869781400077045,2853.7652083998546,None,1.869781400077045,2855.6604868993163,None,2856.15968120005,None,2856.15968120005,None,n,0.3633605996146798,2856.15968120005,None,0.3633605996146798,,,96 Sing,001,2022_Nov_22_0957,ProdSingRedoBetween,2021.2.3,59.97242470652595,
,,,,59,0,59,0,,,,,,,,,,,,,,,,,,,,,,2862.3491407996044,None,,,,,,,,,,,,,,,,,service,1,60,sing,old,yellow,2857.0476999999955,None,2857.0476999999955,None,4,4.443342199549079,2857.0476999999955,None,4.443342199549079,2861.5217355992645,None,2862.037724399939,None,2862.037724399939,None,n,0.29325610026717186,2862.037724399939,None,0.29325610026717186,,,96 Sing,001,2022_Nov_22_0957,ProdSingRedoBetween,2021.2.3,59.97242470652595,
,,,,60,0,60,0,,,,,,,,,,,,,,,,,,,,,,2866.4532674998045,None,,,,,,,,,,,,,,,,,goose,31,61,sing,old,blue,2862.8530742991716,None,2862.8530742991716,None,5,2.0779765993356705,2862.8530742991716,None,2.0779765993356705,2864.953185899183,None,2865.461816699244,None,2865.461816699244,None,f,0.9651677999645472,2865.461816699244,None,0.9651677999645472,,,96 Sing,001,2022_Nov_22_0957,ProdSingRedoBetween,2021.2.3,59.97242470652595,
,,,,61,0,61,0,,,,,,,,,,,,,,,,,,,,,,2870.8242901992053,None,,,,,,,,,,,,,,,,,drink,104,62,sing,new,null,2866.9633393995464,None,2866.9633393995464,None,2,2.1676417998969555,2866.9633393995464,None,2.1676417998969555,2869.157270799391,None,2869.6565578999,None,2869.6565578999,None,n,1.1384093994274735,2869.6565578999,None,1.1384093994274735,,,96 Sing,001,2022_Nov_22_0957,ProdSingRedoBetween,2021.2.3,59.97242470652595,
,,,,62,0,62,0,,,,,,,,,,,,,,,,,,,,,,2874.361106599681,None,,,,,,,,,,,,,,,,,match,143,63,sing,new,null,2871.332881699316,None,2871.332881699316,None,2,2.0779466005042195,2871.332881699316,None,2.0779466005042195,2873.426843899302,None,2873.9317872999236,None,2873.9317872999236,None,n,0.4072230001911521,2873.9317872999236,None,0.4072230001911521,,,96 Sing,001,2022_Nov_22_0957,ProdSingRedoBetween,2021.2.3,59.97242470652595,
,,,,63,0,63,0,,,,,,,,,,,,,,,,,,,,,,2878.4820258999243,None,,,,,,,,,,,,,,,,,theme,54,64,sing,old,blue,2874.8634773995727,None,2874.8634773995727,None,5,2.6995063005015254,2874.8634773995727,None,2.6995063005015254,2877.580828299746,None,2878.0816779993474,None,2878.0816779993474,None,f,0.3852826999500394,2878.0816779993474,None,0.3852826999500394,,,96 Sing,001,2022_Nov_22_0957,ProdSingRedoBetween,2021.2.3,59.97242470652595,
,,,,64,0,64,0,,,,,,,,,,,,,,,,,,,,,,2884.5212867995724,None,,,,,,,,,,,,,,,,,afternoon,49,65,sing,old,blue,2878.993226199411,None,2878.993226199411,None,2,3.5378638999536633,2878.993226199411,None,3.5378638999536633,2882.554365299642,None,2883.0723922997713,None,2883.0723922997713,None,n,1.4265684997662902,2883.0723922997713,None,1.4265684997662902,,,96 Sing,001,2022_Nov_22_0957,ProdSingRedoBetween,2021.2.3,59.97242470652595,
,,,,65,0,65,0,,,,,,,,,,,,,,,,,,,,,,2889.1926162000746,None,,,,,,,,,,,,,,,,,beginning,160,66,sing,new,null,2885.0277160992846,None,2885.0277160992846,None,4,3.087272299453616,2885.0277160992846,None,3.087272299453616,2888.14524209965,None,2888.6623283000663,None,2888.6623283000663,None,f,0.5087484000250697,2888.6623283000663,None,0.5087484000250697,,,96 Sing,001,2022_Nov_22_0957,ProdSingRedoBetween,2021.2.3,59.97242470652595,
,,,,66,0,66,0,,,,,,,,,,,,,,,,,,,,,,2893.7638918999583,None,,,,,,,,,,,,,,,,,pressure,137,67,sing,new,null,2889.70079110004,None,2889.70079110004,None,2,2.638137700036168,2889.70079110004,None,2.638137700036168,2892.3626296995208,None,2892.8666333993897,None,2892.8666333993897,None,n,0.880247300490737,2892.8666333993897,None,0.880247300490737,,,96 Sing,001,2022_Nov_22_0957,ProdSingRedoBetween,2021.2.3,59.97242470652595,
,,,,67,0,67,0,,,,,,,,,,,,,,,,,,,,,,2898.118168999441,None,,,,,,,,,,,,,,,,,symbol,56,68,sing,old,blue,2894.267151199281,None,2894.267151199281,None,3,2.7279349006712437,2894.267151199281,None,2.7279349006712437,2897.017101499252,None,2897.520432899706,None,2897.520432899706,None,n,0.5785055998712778,2897.520432899706,None,0.5785055998712778,,,96 Sing,001,2022_Nov_22_0957,ProdSingRedoBetween,2021.2.3,59.97242470652595,
,,,,68,0,68,0,,,,,,,,,,,,,,,,,,,,,,2902.6060469998047,None,,,,,,,,,,,,,,,,,clean,87,69,sing,old,red,2898.6271917000413,None,2898.6271917000413,None,2,2.5197664005681872,2898.6271917000413,None,2.5197664005681872,2901.1712531000376,None,2901.677127399482,None,2901.677127399482,None,n,0.9098137002438307,2901.677127399482,None,0.9098137002438307,,,96 Sing,001,2022_Nov_22_0957,ProdSingRedoBetween,2021.2.3,59.97242470652595,
,,,,69,0,69,0,,,,,,,,,,,,,,,,,,,,,,2911.1311919996515,None,,,,,,,,,,,,,,,,,household,30,70,sing,old,blue,2903.1153173996136,None,2903.1153173996136,None,4,6.1594602996483445,2903.1153173996136,None,6.1594602996483445,2909.3017657995224,None,2909.813454899937,None,2909.813454899937,None,f,1.3014669995754957,2909.813454899937,None,1.3014669995754957,,,96 Sing,001,2022_Nov_22_0957,ProdSingRedoBetween,2021.2.3,59.97242470652595,
,,,,70,0,70,0,,,,,,,,,,,,,,,,,,,,,,2915.9860882991925,None,,,,,,,,,,,,,,,,,space,6,71,sing,old,yellow,2911.6419790992513,None,2911.6419790992513,None,3,3.00084409955889,2911.6419790992513,None,3.00084409955889,2914.6686382992193,None,2915.181926500052,None,2915.181926500052,None,n,0.7730664005503058,2915.181926500052,None,0.7730664005503058,,,96 Sing,001,2022_Nov_22_0957,ProdSingRedoBetween,2021.2.3,59.97242470652595,
,,,,71,0,71,0,,,,,,,,,,,,,,,,,,,,,,2921.391435799189,None,,,,,,,,,,,,,,,,,weight,27,72,sing,old,yellow,2916.4899781998247,None,2916.4899781998247,None,5,3.9689037995412946,2916.4899781998247,None,3.9689037995412946,2920.4743188992143,None,2920.9745430992916,None,2920.9745430992916,None,f,0.3883643001317978,2920.9745430992916,None,0.3883643001317978,,,96 Sing,001,2022_Nov_22_0957,ProdSingRedoBetween,2021.2.3,59.97242470652595,
,,,,72,0,72,0,,,,,,,,,,,,,,,,,,,,,,2927.163674299605,None,,,,,,,,,,,,,,,,,pattern,61,73,sing,old,red,2921.9028749996796,None,2921.9028749996796,None,4,3.419987900182605,2921.9028749996796,None,3.419987900182605,2925.3483186997473,None,2925.870321999304,None,2925.870321999304,None,f,1.2685821997001767,2925.870321999304,None,1.2685821997001767,,,96 Sing,001,2022_Nov_22_0957,ProdSingRedoBetween,2021.2.3,59.97242470652595,
,,,,73,0,73,0,,,,,,,,,,,,,,,,,,,,,,2933.0696704993024,None,,,,,,,,,,,,,,,,,comfort,2,74,sing,old,yellow,2927.6784424996004,None,2927.6784424996004,None,2,3.684311700053513,2927.6784424996004,None,3.684311700053513,2931.3863528994843,None,2931.901917600073,None,2931.901917600073,None,n,1.1489597000181675,2931.901917600073,None,1.1489597000181675,,,96 Sing,001,2022_Nov_22_0957,ProdSingRedoBetween,2021.2.3,59.97242470652595,
,,,,74,0,74,0,,,,,,,,,,,,,,,,,,,,,,2939.163555599749,None,,,,,,,,,,,,,,,,,victory,41,75,sing,old,blue,2933.58038629964,None,2933.58038629964,None,2,4.670466200448573,2933.58038629964,None,4.670466200448573,2938.277663999237,None,2938.798494199291,None,2938.798494199291,None,n,0.32423789985477924,2938.798494199291,None,0.32423789985477924,,,96 Sing,001,2022_Nov_22_0957,ProdSingRedoBetween,2021.2.3,59.97242470652595,
,,,,75,0,75,0,,,,,,,,,,,,,,,,,,,,,,2942.6791121000424,None,,,,,,,,,,,,,,,,,revolution,156,76,sing,new,null,2939.679686899297,None,2939.679686899297,None,1,2.0912756994366646,2939.679686899297,None,2.0912756994366646,2941.7967435000464,None,2942.317997899838,None,2942.317997899838,None,n,0.34090290032327175,2942.317997899838,None,0.34090290032327175,,,96 Sing,001,2022_Nov_22_0957,ProdSingRedoBetween,2021.2.3,59.97242470652595,
,,,,76,0,76,0,,,,,,,,,,,,,,,,,,,,,,2946.5331336995587,None,,,,,,,,,,,,,,,,,thing,144,77,sing,new,null,2943.181304199621,None,2943.181304199621,None,1,1.781605700030923,2943.181304199621,None,1.781605700030923,2944.9839645000175,None,2945.5040766000748,None,2945.5040766000748,None,n,1.0027155000716448,2945.5040766000748,None,1.0027155000716448,,,96 Sing,001,2022_Nov_22_0957,ProdSingRedoBetween,2021.2.3,59.97242470652595,
,,,,77,0,77,0,,,,,,,,,,,,,,,,,,,,,,2951.070936399512,None,,,,,,,,,,,,,,,,,universal,130,78,sing,new,null,2947.0414789998904,None,2947.0414789998904,None,2,3.2255874993279576,2947.0414789998904,None,3.2255874993279576,2950.298970999196,None,2950.8042852999642,None,2950.8042852999642,None,n,0.2385537000373006,2950.8042852999642,None,0.2385537000373006,,,96 Sing,001,2022_Nov_22_0957,ProdSingRedoBetween,2021.2.3,59.97242470652595,
,,,,78,0,78,0,,,,,,,,,,,,,,,,,,,,,,2955.9090984994546,None,,,,,,,,,,,,,,,,,judge,33,79,sing,old,blue,2951.583528599702,None,2951.583528599702,None,3,3.3792821997776628,2951.583528599702,None,3.3792821997776628,2954.993181099184,None,2955.4973605992272,None,2955.4973605992272,None,n,0.38539250008761883,2955.4973605992272,None,0.38539250008761883,,,96 Sing,001,2022_Nov_22_0957,ProdSingRedoBetween,2021.2.3,59.97242470652595,
,,,,79,0,79,0,,,,,,,,,,,,,,,,,,,,,,2962.332055299543,None,,,,,,,,,,,,,,,,,bicycle,55,80,sing,old,blue,2956.4134270995855,None,2956.4134270995855,None,2,5.093550999648869,2956.4134270995855,None,5.093550999648869,2961.5374560998753,None,2962.0532700996846,None,2962.0532700996846,None,n,0.26151669956743717,2962.0532700996846,None,0.26151669956743717,,,96 Sing,001,2022_Nov_22_0957,ProdSingRedoBetween,2021.2.3,59.97242470652595,
,,,,80,0,80,0,,,,,,,,,,,,,,,,,,,,,,2965.688879199326,None,,,,,,,,,,,,,,,,,death,125,81,sing,new,null,2962.833799799904,None,2962.833799799904,None,1,1.7769883004948497,2962.833799799904,None,1.7769883004948497,2964.638064599596,None,2965.1525665996596,None,2965.1525665996596,None,n,0.5061202002689242,2965.1525665996596,None,0.5061202002689242,,,96 Sing,001,2022_Nov_22_0957,ProdSingRedoBetween,2021.2.3,59.97242470652595,
,,,,81,0,81,0,,,,,,,,,,,,,,,,,,,,,,2970.5451140999794,None,,,,,,,,,,,,,,,,,reach,147,82,sing,new,null,2966.202594699338,None,2966.202594699338,None,2,3.496130899526179,2966.202594699338,None,3.496130899526179,2969.727161999792,None,2970.2400253992528,None,2970.2400253992528,None,n,0.28294979967176914,2970.2400253992528,None,0.28294979967176914,,,96 Sing,001,2022_Nov_22_0957,ProdSingRedoBetween,2021.2.3,59.97242470652595,
,,,,82,0,82,0,,,,,,,,,,,,,,,,,,,,,,2975.9833184992895,None,,,,,,,,,,,,,,,,,waste,120,83,sing,new,null,2971.0607103994116,None,2971.0607103994116,None,2,4.021978399716318,2971.0607103994116,None,4.021978399716318,2975.1141436994076,None,2975.6311713997275,None,2975.6311713997275,None,n,0.32364670000970364,2975.6311713997275,None,0.32364670000970364,,,96 Sing,001,2022_Nov_22_0957,ProdSingRedoBetween,2021.2.3,59.97242470652595,
,,,,83,0,83,0,,,,,,,,,,,,,,,,,,,,,,2980.5171734998003,None,,,,,,,,,,,,,,,,,partner,98,84,sing,new,null,2976.5039874995127,None,2976.5039874995127,None,2,3.1628331998363137,2976.5039874995127,None,3.1628331998363137,2979.6835653996095,None,2980.183408299461,None,2980.183408299461,None,n,0.3153054993599653,2980.183408299461,None,0.3153054993599653,,,96 Sing,001,2022_Nov_22_0957,ProdSingRedoBetween,2021.2.3,59.97242470652595,
,,,,84,0,84,0,,,,,,,,,,,,,,,,,,,,,,2985.3412580993026,None,,,,,,,,,,,,,,,,,material,5,85,sing,old,yellow,2981.0247733993456,None,2981.0247733993456,None,3,3.385927800089121,2981.0247733993456,None,3.385927800089121,2984.4385126996785,None,2984.9402912994847,None,2984.9402912994847,None,n,0.3826279994100332,2984.9402912994847,None,0.3826279994100332,,,96 Sing,001,2022_Nov_22_0957,ProdSingRedoBetween,2021.2.3,59.97242470652595,
,,,,85,0,85,0,,,,,,,,,,,,,,,,,,,,,,2988.842977900058,None,,,,,,,,,,,,,,,,,light,142,86,sing,new,null,2985.8558246996254,None,2985.8558246996254,None,2,2.3469545003026724,2985.8558246996254,None,2.3469545003026724,2988.225751899183,None,2988.72905359976,None,2988.72905359976,None,n,0.0977176995947957,2988.72905359976,None,0.0977176995947957,,,96 Sing,001,2022_Nov_22_0957,ProdSingRedoBetween,2021.2.3,59.97242470652595,
,,,,86,0,86,0,,,,,,,,,,,,,,,,,,,,,,2992.348211299628,None,,,,,,,,,,,,,,,,,career,176,87,sing,new,null,2989.358561899513,None,2989.358561899513,None,2,2.2521510999649763,2989.358561899513,None,2.2521510999649763,2991.6281189993024,None,2992.128805199638,None,2992.128805199638,None,n,0.19422589987516403,2992.128805199638,None,0.19422589987516403,,,96 Sing,001,2022_Nov_22_0957,ProdSingRedoBetween,2021.2.3,59.97242470652595,
,,,,87,0,87,0,,,,,,,,,,,,,,,,,,,,,,2996.900052599609,None,,,,,,,,,,,,,,,,,court,71,88,sing,old,red,2992.8724195994437,None,2992.8724195994437,None,4,3.0262429006397724,2992.8724195994437,None,3.0262429006397724,2995.915727299638,None,2996.422133899294,None,2996.422133899294,None,f,0.4606558997184038,2996.422133899294,None,0.4606558997184038,,,96 Sing,001,2022_Nov_22_0957,ProdSingRedoBetween,2021.2.3,59.97242470652595,
,,,,88,0,88,0,,,,,,,,,,,,,,,,,,,,,,3000.887353799306,None,,,,,,,,,,,,,,,,,subject,58,89,sing,old,blue,2997.4058217993006,None,2997.4058217993006,None,4,2.516876899637282,2997.4058217993006,None,2.516876899637282,2999.954144999385,None,3000.4570017997175,None,3000.4570017997175,None,f,0.40176500007510185,3000.4570017997175,None,0.40176500007510185,,,96 Sing,001,2022_Nov_22_0957,ProdSingRedoBetween,2021.2.3,59.97242470652595,
,,,,89,0,89,0,,,,,,,,,,,,,,,,,,,,,,3006.676407699473,None,,,,,,,,,,,,,,,,,budget,117,90,sing,new,null,3001.3944424996153,None,3001.3944424996153,None,1,2.992339299991727,3001.3944424996153,None,2.992339299991727,3004.4108655992895,None,3004.926338799298,None,3004.926338799298,None,n,1.7245396003127098,3004.926338799298,None,1.7245396003127098,,,96 Sing,001,2022_Nov_22_0957,ProdSingRedoBetween,2021.2.3,59.97242470652595,
,,,,90,0,90,0,,,,,,,,,,,,,,,,,,,,,,3010.346723199822,None,,,,,,,,,,,,,,,,,union,107,91,sing,new,null,3007.181374900043,None,3007.181374900043,None,1,2.309530599974096,3007.181374900043,None,2.309530599974096,3009.5186075000092,None,3010.029935799539,None,3010.029935799539,None,n,0.2927829995751381,3010.029935799539,None,0.2927829995751381,,,96 Sing,001,2022_Nov_22_0957,ProdSingRedoBetween,2021.2.3,59.97242470652595,
,,,,91,0,91,0,,,,,,,,,,,,,,,,,,,,,,3014.350753800012,None,,,,,,,,,,,,,,,,,place,167,92,sing,new,null,3010.858589699492,None,3010.858589699492,None,2,2.7601134004071355,3010.858589699492,None,2.7601134004071355,3013.6514722993597,None,3014.1554622994736,None,3014.1554622994736,None,n,0.1752838995307684,3014.1554622994736,None,0.1752838995307684,,,96 Sing,001,2022_Nov_22_0957,ProdSingRedoBetween,2021.2.3,59.97242470652595,
,,,,92,0,92,0,,,,,,,,,,,,,,,,,,,,,,3018.0548473000526,None,,,,,,,,,,,,,,,,,rough,179,93,sing,new,null,3014.862362499349,None,3014.862362499349,None,2,2.39635210018605,3014.862362499349,None,2.39635210018605,3017.287035899237,None,3017.7907590996474,None,3017.7907590996474,None,n,0.2358467997983098,3017.7907590996474,None,0.2358467997983098,,,96 Sing,001,2022_Nov_22_0957,ProdSingRedoBetween,2021.2.3,59.97242470652595,
,,,,93,0,93,0,,,,,,,,,,,,,,,,,,,,,,3022.141865399666,None,,,,,,,,,,,,,,,,,corner,90,94,sing,new,null,3018.5550440996885,None,3018.5550440996885,None,2,2.7756142001599073,3018.5550440996885,None,2.7756142001599073,3021.3575197998434,None,3021.8601438999176,None,3021.8601438999176,None,n,0.2625901000574231,3021.8601438999176,None,0.2625901000574231,,,96 Sing,001,2022_Nov_22_0957,ProdSingRedoBetween,2021.2.3,59.97242470652595,
,,,,94,0,94,0,,,,,,,,,,,,,,,,,,,,,,3027.981027999893,None,,,,,,,,,,,,,,,,,style,79,95,sing,old,red,3022.652498099953,None,3022.652498099953,None,4,3.9582350999116898,3022.652498099953,None,3.9582350999116898,3026.6344293998554,None,3027.149792299606,None,3027.149792299606,None,n,0.8049574997276068,3027.149792299606,None,0.8049574997276068,,,96 Sing,001,2022_Nov_22_0957,ProdSingRedoBetween,2021.2.3,59.97242470652595,
,,,,95,0,95,0,,,,,,,,,,,,,,,,,,,,,,3032.2519453996792,None,,,,,,,,,,,,,,,,,strength,62,96,sing,old,red,3028.487752299756,None,3028.487752299756,None,2,3.0510039003565907,3028.487752299756,None,3.0510039003565907,3031.573750799522,None,3032.0868473993614,None,3032.0868473993614,None,n,0.14782360009849072,3032.0868473993614,None,0.14782360009849072,,,96 Sing,001,2022_Nov_22_0957,ProdSingRedoBetween,2021.2.3,59.97242470652595,
,,,,96,0,96,0,,,,,,,,,,,,,,,,,,,,,,3037.4071268998086,None,,,,,,,,,,,,,,,,,title,123,97,sing,new,null,3032.753774399869,None,3032.753774399869,None,2,3.512899700552225,3032.753774399869,None,3.512899700552225,3036.289398899302,None,3036.7929710000753,None,3036.7929710000753,None,n,0.58569520059973,3036.7929710000753,None,0.58569520059973,,,96 Sing,001,2022_Nov_22_0957,ProdSingRedoBetween,2021.2.3,59.97242470652595,
,,,,97,0,97,0,,,,,,,,,,,,,,,,,,,,,,3042.0951177999377,None,,,,,,,,,,,,,,,,,individual,72,98,sing,old,red,3037.9132483992726,None,3037.9132483992726,None,5,3.2414088994264603,3037.9132483992726,None,3.2414088994264603,3041.1795461000875,None,3041.70213910006,None,3041.70213910006,None,f,0.364478699862957,3041.70213910006,None,0.364478699862957,,,96 Sing,001,2022_Nov_22_0957,ProdSingRedoBetween,2021.2.3,59.97242470652595,
,,,,98,0,98,0,,,,,,,,,,,,,,,,,,,,,,3045.7821304993704,None,,,,,,,,,,,,,,,,,education,13,99,sing,old,yellow,3042.6042911997065,None,3042.6042911997065,None,5,2.454371400177479,3042.6042911997065,None,2.454371400177479,3045.0824209991843,None,3045.5843127993867,None,3045.5843127993867,None,f,0.17027479968965054,3045.5843127993867,None,0.17027479968965054,,,96 Sing,001,2022_Nov_22_0957,ProdSingRedoBetween,2021.2.3,59.97242470652595,
,,,,99,0,99,0,,,,,,,,,,,,,,,,,,,,,,3049.0686772000045,None,,,,,,,,,,,,,,,,,payment,99,100,sing,new,null,3046.2945141000673,None,3046.2945141000673,None,2,1.8440509997308254,3046.2945141000673,None,1.8440509997308254,3048.1687635993585,None,3048.6731655998155,None,3048.6731655998155,None,n,0.3774440996348858,3048.6731655998155,None,0.3774440996348858,,,96 Sing,001,2022_Nov_22_0957,ProdSingRedoBetween,2021.2.3,59.97242470652595,
,,,,100,0,100,0,,,,,,,,,,,,,,,,,,,,,,3052.5055256998166,None,,,,,,,,,,,,,,,,,people,93,101,sing,new,null,3049.577858099714,None,3049.577858099714,None,2,2.19278210029006,3049.577858099714,None,2.19278210029006,3051.789582199417,None,3052.2949743997306,None,3052.2949743997306,None,n,0.1877105999737978,3052.2949743997306,None,0.1877105999737978,,,96 Sing,001,2022_Nov_22_0957,ProdSingRedoBetween,2021.2.3,59.97242470652595,
,,,,101,0,101,0,,,,,,,,,,,,,,,,,,,,,,3057.9776117997244,None,,,,,,,,,,,,,,,,,right,88,102,sing,old,red,3053.0078487992287,None,3053.0078487992287,None,4,3.5707381004467607,3053.0078487992287,None,3.5707381004467607,3056.609596999362,None,3057.1103323996067,None,3057.1103323996067,None,n,0.8442865004763007,3057.1103323996067,None,0.8442865004763007,,,96 Sing,001,2022_Nov_22_0957,ProdSingRedoBetween,2021.2.3,59.97242470652595,
,,,,102,0,102,0,,,,,,,,,,,,,,,,,,,,,,3062.883828699589,None,,,,,,,,,,,,,,,,,series,51,103,sing,old,blue,3058.489768699743,None,3058.489768699743,None,4,3.1448844000697136,3058.489768699743,None,3.1448844000697136,3061.665576499887,None,3062.1690304996446,None,3062.1690304996446,None,f,0.6896839998662472,3062.1690304996446,None,0.6896839998662472,,,96 Sing,001,2022_Nov_22_0957,ProdSingRedoBetween,2021.2.3,59.97242470652595,
,,,,103,0,103,0,,,,,,,,,,,,,,,,,,,,,,3066.2856898000464,None,,,,,,,,,,,,,,,,,broke,171,104,sing,new,null,3063.387061099522,None,3063.387061099522,None,2,2.1277602994814515,3063.387061099522,None,2.1277602994814515,3065.541010699235,None,3066.071888299659,None,3066.071888299659,None,n,0.18669290002435446,3066.071888299659,None,0.18669290002435446,,,96 Sing,001,2022_Nov_22_0957,ProdSingRedoBetween,2021.2.3,59.97242470652595,
,,,,104,0,104,0,,,,,,,,,,,,,,,,,,,,,,3069.4890461992472,None,,,,,,,,,,,,,,,,,accident,114,105,sing,new,null,3066.793094200082,None,3066.793094200082,None,1,1.7135386001318693,3066.793094200082,None,1.7135386001318693,3068.5223789000884,None,3069.0220744991675,None,3069.0220744991675,None,n,0.43655179999768734,3069.0220744991675,None,0.43655179999768734,,,96 Sing,001,2022_Nov_22_0957,ProdSingRedoBetween,2021.2.3,59.97242470652595,
,,,,105,0,105,0,,,,,,,,,,,,,,,,,,,,,,3072.9425638997927,None,,,,,,,,,,,,,,,,,second,52,106,sing,old,blue,3069.9978965995833,None,3069.9978965995833,None,2,2.2047341000288725,3069.9978965995833,None,2.2047341000288725,3072.2252923995256,None,3072.7257931996137,None,3072.7257931996137,None,n,0.19687850028276443,3072.7257931996137,None,0.19687850028276443,,,96 Sing,001,2022_Nov_22_0957,ProdSingRedoBetween,2021.2.3,59.97242470652595,
,,,,106,0,106,0,,,,,,,,,,,,,,,,,,,,,,3077.531878899783,None,,,,,,,,,,,,,,,,,concern,150,107,sing,new,null,3073.448514899239,None,3073.448514899239,None,2,3.2661404004320502,3073.448514899239,None,3.2661404004320502,3076.733045199886,None,3077.2487634997815,None,3077.2487634997815,None,n,0.25802910048514605,3077.2487634997815,None,0.25802910048514605,,,96 Sing,001,2022_Nov_22_0957,ProdSingRedoBetween,2021.2.3,59.97242470652595,
,,,,107,0,107,0,,,,,,,,,,,,,,,,,,,,,,3082.1528669996187,None,,,,,,,,,,,,,,,,,exchange,139,108,sing,new,null,3078.053754499182,None,3078.053754499182,None,1,3.2207292998209596,3078.053754499182,None,3.2207292998209596,3081.302484099753,None,3081.8215421000496,None,3081.8215421000496,None,n,0.30911129992455244,3081.8215421000496,None,0.30911129992455244,,,96 Sing,001,2022_Nov_22_0957,ProdSingRedoBetween,2021.2.3,59.97242470652595,
,,,,108,0,108,0,,,,,,,,,,,,,,,,,,,,,,3086.4254280999303,None,,,,,,,,,,,,,,,,,store,42,109,sing,old,blue,3082.652408000082,None,3082.652408000082,None,2,2.870268400758505,3082.652408000082,None,2.870268400758505,3085.542936099693,None,3086.059840299189,None,3086.059840299189,None,n,0.34298860002309084,3086.059840299189,None,0.34298860002309084,,,96 Sing,001,2022_Nov_22_0957,ProdSingRedoBetween,2021.2.3,59.97242470652595,
,,,,109,0,109,0,,,,,,,,,,,,,,,,,,,,,,3090.1430306993425,None,,,,,,,,,,,,,,,,,watch,89,110,sing,old,red,3086.9466752000153,None,3086.9466752000153,None,2,2.2078363997861743,3086.9466752000153,None,2.2078363997861743,3089.182892699726,None,3089.6925902999938,None,3089.6925902999938,None,n,0.4300865000113845,3089.6925902999938,None,0.4300865000113845,,,96 Sing,001,2022_Nov_22_0957,ProdSingRedoBetween,2021.2.3,59.97242470652595,
,,,,110,0,110,0,,,,,,,,,,,,,,,,,,,,,,3095.731965699233,None,,,,,,,,,,,,,,,,,direction,154,111,sing,new,null,3090.6460426999256,None,3090.6460426999256,None,2,4.228538800030947,3090.6460426999256,None,4.228538800030947,3094.8989870995283,None,3095.400923299603,None,3095.400923299603,None,n,0.3055891999974847,3095.400923299603,None,0.3055891999974847,,,96 Sing,001,2022_Nov_22_0957,ProdSingRedoBetween,2021.2.3,59.97242470652595,
,,,,111,0,111,0,,,,,,,,,,,,,,,,,,,,,,3099.190003699623,None,,,,,,,,,,,,,,,,,master,172,112,sing,new,null,3096.2480243993923,None,3096.2480243993923,None,1,2.1145398002117872,3096.2480243993923,None,2.1145398002117872,3098.387113600038,None,3098.903491199948,None,3098.903491199948,None,n,0.2511979006230831,3098.903491199948,None,0.2511979006230831,,,96 Sing,001,2022_Nov_22_0957,ProdSingRedoBetween,2021.2.3,59.97242470652595,
,,,,112,0,112,0,,,,,,,,,,,,,,,,,,,,,,3103.3895750995725,None,,,,,,,,,,,,,,,,,congress,86,113,sing,old,red,3099.7075709998608,None,3099.7075709998608,None,5,2.71898590028286,3099.7075709998608,None,2.71898590028286,3102.4562617000192,None,3102.960690099746,None,3102.960690099746,None,f,0.40985899977386,3102.960690099746,None,0.40985899977386,,,96 Sing,001,2022_Nov_22_0957,ProdSingRedoBetween,2021.2.3,59.97242470652595,
,,,,113,0,113,0,,,,,,,,,,,,,,,,,,,,,,3107.243384999223,None,,,,,,,,,,,,,,,,,skill,64,114,sing,old,red,3103.898446799256,None,3103.898446799256,None,4,2.4883113000541925,3103.898446799256,None,2.4883113000541925,3106.4136243993416,None,3106.9274575999007,None,3106.9274575999007,None,f,0.2992038996890187,3106.9274575999007,None,0.2992038996890187,,,96 Sing,001,2022_Nov_22_0957,ProdSingRedoBetween,2021.2.3,59.97242470652595,
,,,,114,0,114,0,,,,,,,,,,,,,,,,,,,,,,3111.9313615998253,None,,,,,,,,,,,,,,,,,region,8,115,sing,old,yellow,3107.7525732992217,None,3107.7525732992217,None,6,3.20195750053972,3107.7525732992217,None,3.20195750053972,3110.980294399895,None,3111.4843720998615,None,3111.4843720998615,None,f,0.42220589984208345,3111.4843720998615,None,0.42220589984208345,,,96 Sing,001,2022_Nov_22_0957,ProdSingRedoBetween,2021.2.3,59.97242470652595,
,,,,115,0,115,0,,,,,,,,,,,,,,,,,,,,,,3118.704832700081,None,,,,,,,,,,,,,,,,,private,68,116,sing,old,red,3112.4425952993333,None,3112.4425952993333,None,3,5.335820299573243,3112.4425952993333,None,5.335820299573243,3117.8048016997054,None,3118.304548399523,None,3118.304548399523,None,n,0.3700152998790145,3118.304548399523,None,0.3700152998790145,,,96 Sing,001,2022_Nov_22_0957,ProdSingRedoBetween,2021.2.3,59.97242470652595,
,,,,116,0,116,0,,,,,,,,,,,,,,,,,,,,,,3122.041299799457,None,,,,,,,,,,,,,,,,,discovery,45,117,sing,old,blue,3119.231470199302,None,3119.231470199302,None,5,1.9070977000519633,3119.231470199302,None,1.9070977000519633,3121.159720099531,None,3121.674626399763,None,3121.674626399763,None,f,0.33621730003505945,3121.674626399763,None,0.33621730003505945,,,96 Sing,001,2022_Nov_22_0957,ProdSingRedoBetween,2021.2.3,59.97242470652595,
,,,,117,0,117,0,,,,,,,,,,,,,,,,,,,,,,3125.9952993998304,None,,,,,,,,,,,,,,,,,agency,124,118,sing,new,null,3122.552954199724,None,3122.552954199724,None,1,2.737606099806726,3122.552954199724,None,2.737606099806726,3125.317676999606,None,3125.8287402996793,None,3125.8287402996793,None,n,0.1419798992574215,3125.8287402996793,None,0.1419798992574215,,,96 Sing,001,2022_Nov_22_0957,ProdSingRedoBetween,2021.2.3,59.97242470652595,
,,,,118,0,118,0,,,,,,,,,,,,,,,,,,,,,,3131.0179566992447,None,,,,,,,,,,,,,,,,,music,25,119,sing,old,yellow,3126.5142586994916,None,3126.5142586994916,None,4,3.2402277002111077,3126.5142586994916,None,3.2402277002111077,3129.7827896000817,None,3130.2874403996393,None,3130.2874403996393,None,f,0.6991779003292322,3130.2874403996393,None,0.6991779003292322,,,96 Sing,001,2022_Nov_22_0957,ProdSingRedoBetween,2021.2.3,59.97242470652595,
,,,,119,0,119,0,,,,,,,,,,,,,,,,,,,,,,3135.5050200000405,None,,,,,,,,,,,,,,,,,military,85,120,sing,old,red,3131.524087499827,None,3131.524087499827,None,5,3.046365799382329,3131.524087499827,None,3.046365799382329,3134.588716599159,None,3135.0879963999614,None,3135.0879963999614,None,f,0.39451169967651367,3135.0879963999614,None,0.39451169967651367,,,96 Sing,001,2022_Nov_22_0957,ProdSingRedoBetween,2021.2.3,59.97242470652595,
,,,,120,0,120,0,,,,,,,,,,,,,,,,,,,,,,3138.7263140995055,None,,,,,,,,,,,,,,,,,under,43,121,sing,old,blue,3136.0107219992206,None,3136.0107219992206,None,2,1.8237813003361225,3136.0107219992206,None,1.8237813003361225,3137.8584839999676,None,3138.3604365997016,None,3138.3604365997016,None,n,0.3380749998614192,3138.3604365997016,None,0.3380749998614192,,,96 Sing,001,2022_Nov_22_0957,ProdSingRedoBetween,2021.2.3,59.97242470652595,
,,,,121,0,121,0,,,,,,,,,,,,,,,,,,,,,,3142.3881570994854,None,,,,,,,,,,,,,,,,,literature,149,122,sing,new,null,3139.2370123993605,None,3139.2370123993605,None,1,2.373416899703443,3139.2370123993605,None,2.373416899703443,3141.632297399454,None,3142.1506489999592,None,3142.1506489999592,None,n,0.2040862999856472,3142.1506489999592,None,0.2040862999856472,,,96 Sing,001,2022_Nov_22_0957,ProdSingRedoBetween,2021.2.3,59.97242470652595,
,,,,122,0,122,0,,,,,,,,,,,,,,,,,,,,,,3146.3825393998995,None,,,,,,,,,,,,,,,,,employment,3,123,sing,old,yellow,3142.903548399918,None,3142.903548399918,None,2,2.6349772000685334,3142.903548399918,None,2.6349772000685334,3145.5709713995457,None,3146.082329900004,None,3146.082329900004,None,n,0.2721196999773383,3146.082329900004,None,0.2721196999773383,,,96 Sing,001,2022_Nov_22_0957,ProdSingRedoBetween,2021.2.3,59.97242470652595,
,,,,123,0,123,0,,,,,,,,,,,,,,,,,,,,,,3152.255036799237,None,,,,,,,,,,,,,,,,,alert,81,124,sing,old,red,3146.892659199424,None,3146.892659199424,None,3,4.165844700299203,3146.892659199424,None,4.165844700299203,3151.0917072994635,None,3151.6047223992646,None,3151.6047223992646,None,n,0.6217494998127222,3151.6047223992646,None,0.6217494998127222,,,96 Sing,001,2022_Nov_22_0957,ProdSingRedoBetween,2021.2.3,59.97242470652595,
,,,,124,0,124,0,,,,,,,,,,,,,,,,,,,,,,3155.1244711996987,None,,,,,,,,,,,,,,,,,volume,101,125,sing,new,null,3152.7690421994776,None,3152.7690421994776,None,2,1.6094141993671656,3152.7690421994776,None,1.6094141993671656,3154.4169736998156,None,3154.924860299565,None,3154.924860299565,None,n,0.18155539967119694,3154.924860299565,None,0.18155539967119694,,,96 Sing,001,2022_Nov_22_0957,ProdSingRedoBetween,2021.2.3,59.97242470652595,
,,,,125,0,125,0,,,,,,,,,,,,,,,,,,,,,,3159.632441099733,None,,,,,,,,,,,,,,,,,majority,140,126,sing,new,null,3155.6270633991808,None,3155.6270633991808,None,2,2.767455699853599,3155.6270633991808,None,2.767455699853599,3158.4166116993874,None,3158.930636199191,None,3158.930636199191,None,n,0.6798125999048352,3158.930636199191,None,0.6798125999048352,,,96 Sing,001,2022_Nov_22_0957,ProdSingRedoBetween,2021.2.3,59.97242470652595,
,,,,126,0,126,0,,,,,,,,,,,,,,,,,,,,,,3163.784441399388,None,,,,,,,,,,,,,,,,,fashion,148,127,sing,new,null,3160.153395699337,None,3160.153395699337,None,3,2.7931002005934715,3160.153395699337,None,2.7931002005934715,3162.967478699982,None,3163.485020899214,None,3163.485020899214,None,n,0.26956520043313503,3163.485020899214,None,0.26956520043313503,,,96 Sing,001,2022_Nov_22_0957,ProdSingRedoBetween,2021.2.3,59.97242470652595,
,,,,127,0,127,0,,,,,,,,,,,,,,,,,,,,,,3169.4554614992812,None,,,,,,,,,,,,,,,,,danger,121,128,sing,new,null,3164.2960869995877,None,3164.2960869995877,None,4,4.186366800218821,3164.2960869995877,None,4.186366800218821,3168.5042604999617,None,3169.00521549955,None,3169.00521549955,None,n,0.42922959942370653,3169.00521549955,None,0.42922959942370653,,,96 Sing,001,2022_Nov_22_0957,ProdSingRedoBetween,2021.2.3,59.97242470652595,
,,,,128,0,128,0,,,,,,,,,,,,,,,,,,,,,,3173.709725899622,None,,,,,,,,,,,,,,,,,curve,110,129,sing,new,null,3169.9588532997295,None,3169.9588532997295,None,1,2.0835728999227285,3169.9588532997295,None,2.0835728999227285,3172.065260899253,None,3172.5754445996135,None,3172.5754445996135,None,n,1.1068675993010402,3172.5754445996135,None,1.1068675993010402,,,96 Sing,001,2022_Nov_22_0957,ProdSingRedoBetween,2021.2.3,59.97242470652595,
,,,,129,0,129,0,,,,,,,,,,,,,,,,,,,,,,3177.763708899729,None,,,,,,,,,,,,,,,,,quantity,10,130,sing,old,yellow,3174.2205441994593,None,3174.2205441994593,None,6,2.5260804994031787,3174.2205441994593,None,2.5260804994031787,3176.769184199162,None,3177.2833390999585,None,3177.2833390999585,None,f,0.4630808001384139,3177.2833390999585,None,0.4630808001384139,,,96 Sing,001,2022_Nov_22_0957,ProdSingRedoBetween,2021.2.3,59.97242470652595,
,,,,130,0,130,0,,,,,,,,,,,,,,,,,,,,,,3182.7187038995326,None,,,,,,,,,,,,,,,,,husband,65,131,sing,old,red,3178.2751320991665,None,3178.2751320991665,None,3,3.3033512998372316,3178.2751320991665,None,3.3033512998372316,3181.606672300026,None,3182.121613400057,None,3182.121613400057,None,n,0.5689438004046679,3182.121613400057,None,0.5689438004046679,,,96 Sing,001,2022_Nov_22_0957,ProdSingRedoBetween,2021.2.3,59.97242470652595,
,,,,131,0,131,0,,,,,,,,,,,,,,,,,,,,,,3186.30560079962,None,,,,,,,,,,,,,,,,,sweet,174,132,sing,new,null,3183.2335045998916,None,3183.2335045998916,None,1,1.873004399240017,3183.2335045998916,None,1.873004399240017,3185.143689800054,None,3185.6562393996865,None,3185.6562393996865,None,n,0.6262317001819611,3185.6562393996865,None,0.6262317001819611,,,96 Sing,001,2022_Nov_22_0957,ProdSingRedoBetween,2021.2.3,59.97242470652595,
,,,,132,0,132,0,,,,,,,,,,,,,,,,,,,,,,3189.174994699657,None,,,,,,,,,,,,,,,,,suspect,128,133,sing,new,null,3186.8234014995396,None,3186.8234014995396,None,2,1.634994100779295,3186.8234014995396,None,1.634994100779295,3188.4758371999487,None,3188.9750598995015,None,3188.9750598995015,None,n,0.17935699969530106,3188.9750598995015,None,0.17935699969530106,,,96 Sing,001,2022_Nov_22_0957,ProdSingRedoBetween,2021.2.3,59.97242470652595,
,,,,133,0,133,0,,,,,,,,,,,,,,,,,,,,,,3194.1634603999555,None,,,,,,,,,,,,,,,,,novel,40,134,sing,old,blue,3189.6765059996396,None,3189.6765059996396,None,2,3.5819083005189896,3189.6765059996396,None,3.5819083005189896,3193.2804812993854,None,3193.7794987000525,None,3193.7794987000525,None,n,0.3669129004701972,3193.7794987000525,None,0.3669129004701972,,,96 Sing,001,2022_Nov_22_0957,ProdSingRedoBetween,2021.2.3,59.97242470652595,
,,,,134,0,134,0,,,,,,,,,,,,,,,,,,,,,,3197.866903299466,None,,,,,,,,,,,,,,,,,distance,94,135,sing,new,null,3194.667333899997,None,3194.667333899997,None,4,2.471053999848664,3194.667333899997,None,2.471053999848664,3197.168533399701,None,3197.6849542995915,None,3197.6849542995915,None,n,0.15752330049872398,3197.6849542995915,None,0.15752330049872398,,,96 Sing,001,2022_Nov_22_0957,ProdSingRedoBetween,2021.2.3,59.97242470652595,
,,,,135,0,135,0,,,,,,,,,,,,,,,,,,,,,,3203.2892563994974,None,,,,,,,,,,,,,,,,,level,24,136,sing,old,yellow,3198.374509299174,None,3198.374509299174,None,5,3.867947299964726,3198.374509299174,None,3.867947299964726,3202.2727169999853,None,3202.7764671994373,None,3202.7764671994373,None,f,0.48185939993709326,3202.7764671994373,None,0.48185939993709326,,,96 Sing,001,2022_Nov_22_0957,ProdSingRedoBetween,2021.2.3,59.97242470652595,
,,,,136,0,136,0,,,,,,,,,,,,,,,,,,,,,,3207.476476399228,None,,,,,,,,,,,,,,,,,review,92,137,sing,new,null,3203.7984758997336,None,3203.7984758997336,None,3,2.7479311004281044,3203.7984758997336,None,2.7479311004281044,3206.5792410997674,None,3207.093088899739,None,3207.093088899739,None,n,0.3572574006393552,3207.093088899739,None,0.3572574006393552,,,96 Sing,001,2022_Nov_22_0957,ProdSingRedoBetween,2021.2.3,59.97242470652595,
,,,,137,0,137,0,,,,,,,,,,,,,,,,,,,,,,3210.913358499296,None,,,,,,,,,,,,,,,,,reading,170,138,sing,new,null,3207.98503359966,None,3207.98503359966,None,2,2.033224300481379,3207.98503359966,None,2.033224300481379,3210.050760199316,None,3210.563106299378,None,3210.563106299378,None,n,0.3273098999634385,3210.563106299378,None,0.3273098999634385,,,96 Sing,001,2022_Nov_22_0957,ProdSingRedoBetween,2021.2.3,59.97242470652595,
,,,,138,0,138,0,,,,,,,,,,,,,,,,,,,,,,3215.7683473993093,None,,,,,,,,,,,,,,,,,leader,53,139,sing,old,blue,3211.416724499315,None,3211.416724499315,None,4,3.3217152999714017,3211.416724499315,None,3.3217152999714017,3214.7680204994977,None,3215.273399199359,None,3215.273399199359,None,n,0.4729770999401808,3215.273399199359,None,0.4729770999401808,,,96 Sing,001,2022_Nov_22_0957,ProdSingRedoBetween,2021.2.3,59.97242470652595,
,,,,139,0,139,0,,,,,,,,,,,,,,,,,,,,,,3223.2091954993084,None,,,,,,,,,,,,,,,,,position,146,140,sing,new,null,3216.2743905996904,None,3216.2743905996904,None,3,6.151938199996948,3216.2743905996904,None,6.151938199996948,3222.442740299739,None,3222.9480582000688,None,3222.9480582000688,None,n,0.2302182000130415,3222.9480582000688,None,0.2302182000130415,,,96 Sing,001,2022_Nov_22_0957,ProdSingRedoBetween,2021.2.3,59.97242470652595,
,,,,140,0,140,0,,,,,,,,,,,,,,,,,,,,,,3229.7155904993415,None,,,,,,,,,,,,,,,,,relation,173,141,sing,new,null,3223.716050799936,None,3223.716050799936,None,2,5.142301199957728,3223.716050799936,None,5.142301199957728,3228.8823913000524,None,3229.382048700005,None,3229.382048700005,None,n,0.3082901006564498,3229.382048700005,None,0.3082901006564498,,,96 Sing,001,2022_Nov_22_0957,ProdSingRedoBetween,2021.2.3,59.97242470652595,
,,,,141,0,141,0,,,,,,,,,,,,,,,,,,,,,,3233.452558999881,None,,,,,,,,,,,,,,,,,worker,91,142,sing,new,null,3230.2247446998954,None,3230.2247446998954,None,2,2.0094911996275187,3230.2247446998954,None,2.0094911996275187,3232.2601739997044,None,3232.7749295998365,None,3232.7749295998365,None,n,0.6513357004150748,3232.7749295998365,None,0.6513357004150748,,,96 Sing,001,2022_Nov_22_0957,ProdSingRedoBetween,2021.2.3,59.97242470652595,
,,,,142,0,142,0,,,,,,,,,,,,,,,,,,,,,,3237.4811960998923,None,,,,,,,,,,,,,,,,,number,103,143,sing,new,null,3233.9603818999603,None,3233.9603818999603,None,2,2.5378908002749085,3233.9603818999603,None,2.5378908002749085,3236.522378599271,None,3237.0239820992574,None,3237.0239820992574,None,n,0.42641460057348013,3237.0239820992574,None,0.42641460057348013,,,96 Sing,001,2022_Nov_22_0957,ProdSingRedoBetween,2021.2.3,59.97242470652595,
,,,,143,0,143,0,,,,,,,,,,,,,,,,,,,,,,3241.447278100066,None,,,,,,,,,,,,,,,,,patient,35,144,sing,old,blue,3238.0059882998466,None,3238.0059882998466,None,4,2.3084746999666095,3238.0059882998466,None,2.3084746999666095,3240.3457064991817,None,3240.8646645992994,None,3240.8646645992994,None,n,0.553812999278307,3240.8646645992994,None,0.553812999278307,,,96 Sing,001,2022_Nov_22_0957,ProdSingRedoBetween,2021.2.3,59.97242470652595,
,,,,144,0,144,0,,,,,,,,,,,,,,,,,,,,,,3244.697144699283,None,,,,,,,,,,,,,,,,,attack,159,145,sing,new,null,3241.9682462997735,None,3241.9682462997735,None,1,1.874087099917233,3241.9682462997735,None,1.874087099917233,3243.8659409992397,None,3244.380355199799,None,3244.380355199799,None,n,0.28596589993685484,3244.380355199799,None,0.28596589993685484,,,96 Sing,001,2022_Nov_22_0957,ProdSingRedoBetween,2021.2.3,59.97242470652595,
,,,,145,0,145,0,,,,,,,,,,,,,,,,,,,,,,3253.3095677997917,None,,,,,,,,,,,,,,,,,question,84,146,sing,old,red,3245.2031654994935,None,3245.2031654994935,None,3,7.295137000270188,3245.2031654994935,None,7.295137000270188,3252.5236896993592,None,3253.046194099821,None,3253.046194099821,None,n,0.24412739928811789,3253.046194099821,None,0.24412739928811789,,,96 Sing,001,2022_Nov_22_0957,ProdSingRedoBetween,2021.2.3,59.97242470652595,
,,,,146,0,146,0,,,,,,,,,,,,,,,,,,,,,,3257.243060399778,None,,,,,,,,,,,,,,,,,provision,177,147,sing,new,null,3253.8302772995085,None,3253.8302772995085,None,1,2.028041999787092,3253.8302772995085,None,2.028041999787092,3255.877443299629,None,3256.3946925997734,None,3256.3946925997734,None,n,0.8316040001809597,3256.3946925997734,None,0.8316040001809597,,,96 Sing,001,2022_Nov_22_0957,ProdSingRedoBetween,2021.2.3,59.97242470652595,
,,,,147,0,147,0,,,,,,,,,,,,,,,,,,,,,,3260.9633275996894,None,,,,,,,,,,,,,,,,,south,169,148,sing,new,null,3257.7443462992087,None,3257.7443462992087,None,1,2.3619920993223786,3257.7443462992087,None,2.3619920993223786,3260.1352205993608,None,3260.6464788997546,None,3260.6464788997546,None,n,0.29181400034576654,3260.6464788997546,None,0.29181400034576654,,,96 Sing,001,2022_Nov_22_0957,ProdSingRedoBetween,2021.2.3,59.97242470652595,
,,,,148,0,148,0,,,,,,,,,,,,,,,,,,,,,,3266.1185096995905,None,,,,,,,,,,,,,,,,,public,75,149,sing,old,red,3261.4723788993433,None,3261.4723788993433,None,3,3.553885499946773,3261.4723788993433,None,3.553885499946773,3265.0518364999443,None,3265.5568543998525,None,3265.5568543998525,None,n,0.5334498006850481,3265.5568543998525,None,0.5334498006850481,,,96 Sing,001,2022_Nov_22_0957,ProdSingRedoBetween,2021.2.3,59.97242470652595,
,,,,149,0,149,0,,,,,,,,,,,,,,,,,,,,,,3269.505186399445,None,,,,,,,,,,,,,,,,,listen,135,150,sing,new,null,3266.6196893993765,None,3266.6196893993765,None,4,2.0625390000641346,3266.6196893993765,None,2.0625390000641346,3268.7048899997026,None,3269.2049191994593,None,3269.2049191994593,None,n,0.26926020067185163,3269.2049191994593,None,0.26926020067185163,,,96 Sing,001,2022_Nov_22_0957,ProdSingRedoBetween,2021.2.3,59.97242470652595,
,,,,150,0,150,0,,,,,,,,,,,,,,,,,,,,,,3274.7438276996836,None,,,,,,,,,,,,,,,,,interview,95,151,sing,new,null,3270.0077163996175,None,3270.0077163996175,None,4,3.7945517003536224,3270.0077163996175,None,3.7945517003536224,3273.8317455993965,None,3274.3479815991595,None,3274.3479815991595,None,f,0.36630159988999367,3274.3479815991595,None,0.36630159988999367,,,96 Sing,001,2022_Nov_22_0957,ProdSingRedoBetween,2021.2.3,59.97242470652595,
,,,,151,0,151,0,,,,,,,,,,,,,,,,,,,,,,3279.715191799216,None,,,,,,,,,,,,,,,,,clear,109,152,sing,new,null,3275.252379499376,None,3275.252379499376,None,2,2.6299183005467057,3275.252379499376,None,2.6299183005467057,3277.9157098997384,None,3278.4309258991852,None,3278.4309258991852,None,n,1.267254900187254,3278.4309258991852,None,1.267254900187254,,,96 Sing,001,2022_Nov_22_0957,ProdSingRedoBetween,2021.2.3,59.97242470652595,
,,,,152,0,152,0,,,,,,,,,,,,,,,,,,,,,,3286.388543699868,None,,,,,,,,,,,,,,,,,contract,131,153,sing,new,null,3280.218935799785,None,3280.218935799785,None,2,5.295320799574256,3280.218935799785,None,5.295320799574256,3285.5388845000416,None,3286.0446253996342,None,3286.0446253996342,None,n,0.3176212003454566,3286.0446253996342,None,0.3176212003454566,,,96 Sing,001,2022_Nov_22_0957,ProdSingRedoBetween,2021.2.3,59.97242470652595,
,,,,153,0,153,0,,,,,,,,,,,,,,,,,,,,,,3290.1924687996507,None,,,,,,,,,,,,,,,,,graduate,152,154,sing,new,null,3286.892638899386,None,3286.892638899386,None,1,1.885657699778676,3286.892638899386,None,1.885657699778676,3288.811877699569,None,3289.3251775000244,None,3289.3251775000244,None,n,0.837066400796175,3289.3251775000244,None,0.837066400796175,,,96 Sing,001,2022_Nov_22_0957,ProdSingRedoBetween,2021.2.3,59.97242470652595,
,,,,154,0,154,0,,,,,,,,,,,,,,,,,,,,,,3293.7961667999625,None,,,,,,,,,,,,,,,,,prime,175,155,sing,new,null,3290.7058890992776,None,3290.7058890992776,None,2,1.9523642994463444,3290.7058890992776,None,1.9523642994463444,3292.685119099915,None,3293.1956432992592,None,3293.1956432992592,None,n,0.5746804000809789,3293.1956432992592,None,0.5746804000809789,,,96 Sing,001,2022_Nov_22_0957,ProdSingRedoBetween,2021.2.3,59.97242470652595,
,,,,155,0,155,0,,,,,,,,,,,,,,,,,,,,,,3297.249615099281,None,,,,,,,,,,,,,,,,,character,29,156,sing,old,blue,3294.3057444998994,None,3294.3057444998994,None,2,2.1445444002747536,3294.3057444998994,None,2.1445444002747536,3296.468458599411,None,3296.984900199808,None,3296.984900199808,None,n,0.2413435997441411,3296.984900199808,None,0.2413435997441411,,,96 Sing,001,2022_Nov_22_0957,ProdSingRedoBetween,2021.2.3,59.97242470652595,
,,,,156,0,156,0,,,,,,,,,,,,,,,,,,,,,,3300.402753699571,None,,,,,,,,,,,,,,,,,owner,18,157,sing,old,yellow,3297.753220299259,None,3297.753220299259,None,2,1.7689230991527438,3297.753220299259,None,1.7689230991527438,3299.5559620996937,None,3300.0689224991947,None,3300.0689224991947,None,n,0.31732500065118074,3300.0689224991947,None,0.31732500065118074,,,96 Sing,001,2022_Nov_22_0957,ProdSingRedoBetween,2021.2.3,59.97242470652595,
,,,,157,0,157,0,,,,,,,,,,,,,,,,,,,,,,3303.49298839923,None,,,,,,,,,,,,,,,,,answer,119,158,sing,new,null,3300.9032397996634,None,3300.9032397996634,None,2,1.8429971998557448,3300.9032397996634,None,1.8429971998557448,3302.773690899834,None,3303.294172999449,None,3303.294172999449,None,n,0.16407170053571463,3303.294172999449,None,0.16407170053571463,,,96 Sing,001,2022_Nov_22_0957,ProdSingRedoBetween,2021.2.3,59.97242470652595,
,,,,158,0,158,0,,,,,,,,,,,,,,,,,,,,,,3306.9299294995144,None,,,,,,,,,,,,,,,,,fellow,9,159,sing,old,yellow,3304.01870009955,None,3304.01870009955,None,1,2.0877804001793265,3304.01870009955,None,2.0877804001793265,3306.137979899533,None,3306.642360799946,None,3306.642360799946,None,n,0.26412339974194765,3306.642360799946,None,0.26412339974194765,,,96 Sing,001,2022_Nov_22_0957,ProdSingRedoBetween,2021.2.3,59.97242470652595,
,,,,159,0,159,0,,,,,,,,,,,,,,,,,,,,,,3311.29685659986,None,,,,,,,,,,,,,,,,,property,127,160,sing,new,null,3307.4499429995194,None,3307.4499429995194,None,4,2.9522167993709445,3307.4499429995194,None,2.9522167993709445,3310.4307306995615,None,3310.93546159938,None,3310.93546159938,None,f,0.3467469001188874,3310.93546159938,None,0.3467469001188874,,,96 Sing,001,2022_Nov_22_0957,ProdSingRedoBetween,2021.2.3,59.97242470652595,
,,,,160,0,160,0,,,,,,,,,,,,,,,,,,,,,,3315.8347856998444,None,,,,,,,,,,,,,,,,,angle,59,161,sing,old,yellow,3311.8044453999028,None,3311.8044453999028,None,2,2.8698475006967783,3311.8044453999028,None,2.8698475006967783,3314.702276200056,None,3315.2229181993753,None,3315.2229181993753,None,n,0.5952538000419736,3315.2229181993753,None,0.5952538000419736,,,96 Sing,001,2022_Nov_22_0957,ProdSingRedoBetween,2021.2.3,59.97242470652595,
,,,,161,0,161,0,,,,,,,,,,,,,,,,,,,,,,3321.92415119987,None,,,,,,,,,,,,,,,,,figure,163,162,sing,new,null,3316.3391853999346,None,3316.3391853999346,None,3,4.775038099847734,3316.3391853999346,None,4.775038099847734,3321.1459264997393,None,3321.6608325997368,None,3321.6608325997368,None,n,0.2374991001561284,3321.6608325997368,None,0.2374991001561284,,,96 Sing,001,2022_Nov_22_0957,ProdSingRedoBetween,2021.2.3,59.97242470652595,
,,,,162,0,162,0,,,,,,,,,,,,,,,,,,,,,,3325.460990799591,None,,,,,,,,,,,,,,,,,machinery,82,163,sing,old,red,3322.426832099445,None,3322.426832099445,None,6,1.7273417999967933,3322.426832099445,None,1.7273417999967933,3324.1781394993886,None,3324.6938231000677,None,3324.6938231000677,None,r,0.7483880994841456,3324.6938231000677,None,0.7483880994841456,,,96 Sing,001,2022_Nov_22_0957,ProdSingRedoBetween,2021.2.3,59.97242470652595,
,,,,163,0,163,0,,,,,,,,,,,,,,,,,,,,,,3330.365692399442,None,,,,,,,,,,,,,,,,,impact,39,164,sing,old,blue,3325.968546799384,None,3325.968546799384,None,3,3.473512699827552,3325.968546799384,None,3.473512699827552,3329.4714824995026,None,3329.982272800058,None,3329.982272800058,None,n,0.36393640004098415,3329.982272800058,None,0.36393640004098415,,,96 Sing,001,2022_Nov_22_0957,ProdSingRedoBetween,2021.2.3,59.97242470652595,
,,,,164,0,164,0,,,,,,,,,,,,,,,,,,,,,,3333.4050223995,None,,,,,,,,,,,,,,,,,throw,36,165,sing,old,blue,3330.882694900036,None,3330.882694900036,None,2,1.751426899805665,3330.882694900036,None,1.751426899805665,3332.654034199193,None,3333.175074699335,None,3333.175074699335,None,n,0.21132619958370924,3333.175074699335,None,0.21132619958370924,,,96 Sing,001,2022_Nov_22_0957,ProdSingRedoBetween,2021.2.3,59.97242470652595,
,,,,165,0,165,0,,,,,,,,,,,,,,,,,,,,,,3336.772328599356,None,,,,,,,,,,,,,,,,,power,19,166,sing,old,yellow,3333.92626529932,None,3333.92626529932,None,2,1.9878936000168324,3333.92626529932,None,1.9878936000168324,3335.9412904996425,None,3336.462086999789,None,3336.462086999789,None,n,0.2840285999700427,3336.462086999789,None,0.2840285999700427,,,96 Sing,001,2022_Nov_22_0957,ProdSingRedoBetween,2021.2.3,59.97242470652595,
,,,,166,0,166,0,,,,,,,,,,,,,,,,,,,,,,3339.708601399325,None,,,,,,,,,,,,,,,,,measure,108,167,sing,new,null,3337.277521699667,None,3337.277521699667,None,2,1.644645399414003,3337.277521699667,None,1.644645399414003,3338.9412319995463,None,3339.441820799373,None,3339.441820799373,None,n,0.2404567999765277,3339.441820799373,None,0.2404567999765277,,,96 Sing,001,2022_Nov_22_0957,ProdSingRedoBetween,2021.2.3,59.97242470652595,
,,,,167,0,167,0,,,,,,,,,,,,,,,,,,,,,,3343.545680399984,None,,,,,,,,,,,,,,,,,poetry,133,168,sing,new,null,3340.2171877995133,None,3340.2171877995133,None,3,2.3208608999848366,3340.2171877995133,None,2.3208608999848366,3342.5671439999714,None,3343.078498499468,None,3343.078498499468,None,n,0.4517811993137002,3343.078498499468,None,0.4517811993137002,,,96 Sing,001,2022_Nov_22_0957,ProdSingRedoBetween,2021.2.3,59.97242470652595,
,,,,168,0,168,0,,,,,,,,,,,,,,,,,,,,,,3347.7165965000167,None,,,,,,,,,,,,,,,,,audience,80,169,sing,old,red,3344.0486077992246,None,3344.0486077992246,None,3,2.64942720066756,3344.0486077992246,None,2.64942720066756,3346.7155195996165,None,3347.221134999767,None,3347.221134999767,None,n,0.46897440031170845,3347.221134999767,None,0.46897440031170845,,,96 Sing,001,2022_Nov_22_0957,ProdSingRedoBetween,2021.2.3,59.97242470652595,
,,,,169,0,169,0,,,,,,,,,,,,,,,,,,,,,,3351.3202556995675,None,,,,,,,,,,,,,,,,,dance,63,170,sing,old,red,3348.2235926995054,None,3348.2235926995054,None,6,2.1545858001336455,3348.2235926995054,None,2.1545858001336455,3350.4090782999992,None,3350.920621499419,None,3350.920621499419,None,r,0.3775434996932745,3350.920621499419,None,0.3775434996932745,,,96 Sing,001,2022_Nov_22_0957,ProdSingRedoBetween,2021.2.3,59.97242470652595,
,,,,170,0,170,0,,,,,,,,,,,,,,,,,,,,,,3354.2562378998846,None,,,,,,,,,,,,,,,,,smell,126,171,sing,new,null,3351.828539999202,None,3351.828539999202,None,1,1.5655915001407266,3351.828539999202,None,1.5655915001407266,3353.4236487997696,None,3353.924795500003,None,3353.924795500003,None,n,0.309374799951911,3353.924795500003,None,0.309374799951911,,,96 Sing,001,2022_Nov_22_0957,ProdSingRedoBetween,2021.2.3,59.97242470652595,
,,,,171,0,171,0,,,,,,,,,,,,,,,,,,,,,,3357.1984591996297,None,,,,,,,,,,,,,,,,,force,57,172,sing,old,blue,3354.7593310000375,None,3354.7593310000375,None,1,1.6588372001424432,3354.7593310000375,None,1.6588372001424432,3356.447464100085,None,3356.9622162999585,None,3356.9622162999585,None,n,0.20804079994559288,3356.9622162999585,None,0.20804079994559288,,,96 Sing,001,2022_Nov_22_0957,ProdSingRedoBetween,2021.2.3,59.97242470652595,
,,,,172,0,172,0,,,,,,,,,,,,,,,,,,,,,,3360.91307959985,None,,,,,,,,,,,,,,,,,entrance,26,173,sing,old,yellow,3357.7180306995288,None,3357.7180306995288,None,4,2.0680023999884725,3357.7180306995288,None,2.0680023999884725,3359.8204953996465,None,3360.3323689997196,None,3360.3323689997196,None,f,0.5497334003448486,3360.3323689997196,None,0.5497334003448486,,,96 Sing,001,2022_Nov_22_0957,ProdSingRedoBetween,2021.2.3,59.97242470652595,
,,,,173,0,173,0,,,,,,,,,,,,,,,,,,,,,,3364.9337550997734,None,,,,,,,,,,,,,,,,,permit,115,174,sing,new,null,3361.415692399256,None,3361.415692399256,None,4,1.786569100804627,3361.415692399256,None,1.786569100804627,3363.235081099905,None,3363.749447999522,None,3363.749447999522,None,f,1.1566925002261996,3363.749447999522,None,1.1566925002261996,,,96 Sing,001,2022_Nov_22_0957,ProdSingRedoBetween,2021.2.3,59.97242470652595,
,,,,174,0,174,0,,,,,,,,,,,,,,,,,,,,,,3370.589361699298,None,,,,,,,,,,,,,,,,,nation,46,175,sing,old,blue,3365.440602399409,None,3365.440602399409,None,3,4.313830300234258,3365.440602399409,None,4.313830300234258,3369.7796138999984,None,3370.289218499325,None,3370.289218499325,None,n,0.27282819990068674,3370.289218499325,None,0.27282819990068674,,,96 Sing,001,2022_Nov_22_0957,ProdSingRedoBetween,2021.2.3,59.97242470652595,
,,,,175,0,175,0,,,,,,,,,,,,,,,,,,,,,,3375.143934299238,None,,,,,,,,,,,,,,,,,republic,38,176,sing,old,blue,3371.097713799216,None,3371.097713799216,None,2,3.0966330002993345,3371.097713799216,None,3.0966330002993345,3374.2235572999343,None,3374.7310816999525,None,3374.7310816999525,None,n,0.38298860006034374,3374.7310816999525,None,0.38298860006034374,,,96 Sing,001,2022_Nov_22_0957,ProdSingRedoBetween,2021.2.3,59.97242470652595,
,,,,176,0,176,0,,,,,,,,,,,,,,,,,,,,,,3378.9310225993395,None,,,,,,,,,,,,,,,,,candidate,106,177,sing,new,null,3375.653203899972,None,3375.653203899972,None,1,2.508903699927032,3375.653203899972,None,2.508903699927032,3378.18311029952,None,3378.697608999908,None,3378.697608999908,None,n,0.2164666997268796,3378.697608999908,None,0.2164666997268796,,,96 Sing,001,2022_Nov_22_0957,ProdSingRedoBetween,2021.2.3,59.97242470652595,
