StudyLoop.thisRepN,StudyLoop.thisTrialN,StudyLoop.thisN,StudyLoop.thisIndex,TestLoop.thisRepN,TestLoop.thisTrialN,TestLoop.thisN,TestLoop.thisIndex,textCondition.started,textCondition.stopped,keyCondition.keys,keyCondition.rt,keyCondition.started,keyCondition.stopped,Condition,textWelcome.started,textWelcome.stopped,keyWelcome.keys,keyWelcome.rt,keyWelcome.started,keyWelcome.stopped,textAloud.started,textAloud.stopped,textSilent.started,textSilent.stopped,textSing.started,textSing.stopped,conditional_text.started,conditional_text.stopped,textBlank500.started,textBlank500.stopped,study_word,study_num,study_order,study_type,word_color,textStudy.started,textStudy.stopped,keyStudy.keys,keyStudy.started,keyStudy.stopped,textTestInstructions.started,textTestInstructions.stopped,key_resp_3.keys,key_resp_3.rt,key_resp_3.started,key_resp_3.stopped,test_word,test_num,test_order,test_condition,old_new_test,test_word_original_color,textConf.started,textConf.stopped,textConfScale.started,textConfScale.stopped,keyConf.keys,keyConf.rt,keyConf.started,keyConf.stopped,confidence response time,textTestBlank.started,textTestBlank.stopped,textRKN.started,textRKN.stopped,textRKNScale.started,textRKNScale.stopped,keyRKN.keys,keyRKN.rt,keyRKN.started,keyRKN.stopped,rkn response time,textEnd.started,textEnd.stopped,participant,session,date,expName,psychopyVersion,frameRate,
,,,,,,,,22.903570100665092,None,a,6.6402550004422665,22.903570100665092,None,,,,,,,,,,,,,,,,,,,,,,,,,,,,,,,,,,,,,,,,,,,,,,,,,,,,,,,,,,,,,,97 Silent,001,2022_Nov_22_1152,ProdSingRedoBetween,2021.2.3,59.93543758530538,
,,,,,,,,,,,,,,SilentTest,29.588355200365186,None,space,144.03498550038785,29.588355200365186,None,,,,,,,,,,,,,,,,,,,,,,,,,,,,,,,,,,,,,,,,,,,,,,,,,,,,,,,97 Silent,001,2022_Nov_22_1152,ProdSingRedoBetween,2021.2.3,59.93543758530538,
0,0,0,0,,,,,,,,,,,,,,,,,,29.588355200365186,None,29.588355200365186,None,29.588355200365186,None,29.588355200365186,None,176.16157510038465,None,running,30,1,silent,blue,174.14865070022643,None,None,174.14865070022643,None,,,,,,,,,,,,,,,,,,,,,,,,,,,,,,,,,,,97 Silent,001,2022_Nov_22_1152,ProdSingRedoBetween,2021.2.3,59.93543758530538,
1,0,1,0,,,,,,,,,,,,,,,,,,,,,,,,,,178.66443360038102,None,escape,32,2,silent,blue,176.6620826004073,None,None,176.6620826004073,None,,,,,,,,,,,,,,,,,,,,,,,,,,,,,,,,,,,97 Silent,001,2022_Nov_22_1152,ProdSingRedoBetween,2021.2.3,59.93543758530538,
2,0,2,0,,,,,,,,,,,,,,,,,,,,,,,,,,181.16667569987476,None,order,40,3,silent,blue,179.1671020006761,None,None,179.1671020006761,None,,,,,,,,,,,,,,,,,,,,,,,,,,,,,,,,,,,97 Silent,001,2022_Nov_22_1152,ProdSingRedoBetween,2021.2.3,59.93543758530538,
3,0,3,0,,,,,,,,,,,,,,,,,,,,,,,,,,183.66939570009708,None,store,8,4,silent,yellow,181.6680765002966,None,None,181.6680765002966,None,,,,,,,,,,,,,,,,,,,,,,,,,,,,,,,,,,,97 Silent,001,2022_Nov_22_1152,ProdSingRedoBetween,2021.2.3,59.93543758530538,
4,0,4,0,,,,,,,,,,,,,,,,,,,,,,,,,,186.18842690065503,None,edition,65,5,silent,red,184.17726750019938,None,None,184.17726750019938,None,,,,,,,,,,,,,,,,,,,,,,,,,,,,,,,,,,,97 Silent,001,2022_Nov_22_1152,ProdSingRedoBetween,2021.2.3,59.93543758530538,
5,0,5,0,,,,,,,,,,,,,,,,,,,,,,,,,,188.7077466007322,None,treatment,89,6,silent,red,186.69863500073552,None,None,186.69863500073552,None,,,,,,,,,,,,,,,,,,,,,,,,,,,,,,,,,,,97 Silent,001,2022_Nov_22_1152,ProdSingRedoBetween,2021.2.3,59.93543758530538,
6,0,6,0,,,,,,,,,,,,,,,,,,,,,,,,,,191.2102304007858,None,health,76,7,silent,red,189.2081991005689,None,None,189.2081991005689,None,,,,,,,,,,,,,,,,,,,,,,,,,,,,,,,,,,,97 Silent,001,2022_Nov_22_1152,ProdSingRedoBetween,2021.2.3,59.93543758530538,
7,0,7,0,,,,,,,,,,,,,,,,,,,,,,,,,,193.72943050041795,None,shock,82,8,silent,red,191.71752590034157,None,None,191.71752590034157,None,,,,,,,,,,,,,,,,,,,,,,,,,,,,,,,,,,,97 Silent,001,2022_Nov_22_1152,ProdSingRedoBetween,2021.2.3,59.93543758530538,
8,0,8,0,,,,,,,,,,,,,,,,,,,,,,,,,,196.23185880016536,None,addition,50,9,silent,blue,194.22996360063553,None,None,194.22996360063553,None,,,,,,,,,,,,,,,,,,,,,,,,,,,,,,,,,,,97 Silent,001,2022_Nov_22_1152,ProdSingRedoBetween,2021.2.3,59.93543758530538,
9,0,9,0,,,,,,,,,,,,,,,,,,,,,,,,,,198.73438990022987,None,portion,22,10,silent,yellow,196.73423480056226,None,None,196.73423480056226,None,,,,,,,,,,,,,,,,,,,,,,,,,,,,,,,,,,,97 Silent,001,2022_Nov_22_1152,ProdSingRedoBetween,2021.2.3,59.93543758530538,
10,0,10,0,,,,,,,,,,,,,,,,,,,,,,,,,,201.2536024004221,None,danger,5,11,silent,yellow,199.2384534003213,None,None,199.2384534003213,None,,,,,,,,,,,,,,,,,,,,,,,,,,,,,,,,,,,97 Silent,001,2022_Nov_22_1152,ProdSingRedoBetween,2021.2.3,59.93543758530538,
11,0,11,0,,,,,,,,,,,,,,,,,,,,,,,,,,203.75604390073568,None,accident,56,12,silent,blue,201.75412960071117,None,None,201.75412960071117,None,,,,,,,,,,,,,,,,,,,,,,,,,,,,,,,,,,,97 Silent,001,2022_Nov_22_1152,ProdSingRedoBetween,2021.2.3,59.93543758530538,
12,0,12,0,,,,,,,,,,,,,,,,,,,,,,,,,,206.27536060009152,None,discovery,78,13,silent,red,204.26132180076092,None,None,204.26132180076092,None,,,,,,,,,,,,,,,,,,,,,,,,,,,,,,,,,,,97 Silent,001,2022_Nov_22_1152,ProdSingRedoBetween,2021.2.3,59.93543758530538,
13,0,13,0,,,,,,,,,,,,,,,,,,,,,,,,,,208.79411510005593,None,worker,14,14,silent,yellow,206.77918800059706,None,None,206.77918800059706,None,,,,,,,,,,,,,,,,,,,,,,,,,,,,,,,,,,,97 Silent,001,2022_Nov_22_1152,ProdSingRedoBetween,2021.2.3,59.93543758530538,
14,0,14,0,,,,,,,,,,,,,,,,,,,,,,,,,,211.29696460068226,None,season,51,15,silent,blue,209.29489629995078,None,None,209.29489629995078,None,,,,,,,,,,,,,,,,,,,,,,,,,,,,,,,,,,,97 Silent,001,2022_Nov_22_1152,ProdSingRedoBetween,2021.2.3,59.93543758530538,
15,0,15,0,,,,,,,,,,,,,,,,,,,,,,,,,,213.81619970034808,None,debate,48,16,silent,blue,211.80754549987614,None,None,211.80754549987614,None,,,,,,,,,,,,,,,,,,,,,,,,,,,,,,,,,,,97 Silent,001,2022_Nov_22_1152,ProdSingRedoBetween,2021.2.3,59.93543758530538,
16,0,16,0,,,,,,,,,,,,,,,,,,,,,,,,,,216.33500970061868,None,childhood,77,17,silent,red,214.32376900035888,None,None,214.32376900035888,None,,,,,,,,,,,,,,,,,,,,,,,,,,,,,,,,,,,97 Silent,001,2022_Nov_22_1152,ProdSingRedoBetween,2021.2.3,59.93543758530538,
17,0,17,0,,,,,,,,,,,,,,,,,,,,,,,,,,218.83758360054344,None,trash,83,18,silent,red,216.83562810067087,None,None,216.83562810067087,None,,,,,,,,,,,,,,,,,,,,,,,,,,,,,,,,,,,97 Silent,001,2022_Nov_22_1152,ProdSingRedoBetween,2021.2.3,59.93543758530538,
18,0,18,0,,,,,,,,,,,,,,,,,,,,,,,,,,221.35667360015213,None,research,9,19,silent,yellow,219.34292790014297,None,None,219.34292790014297,None,,,,,,,,,,,,,,,,,,,,,,,,,,,,,,,,,,,97 Silent,001,2022_Nov_22_1152,ProdSingRedoBetween,2021.2.3,59.93543758530538,
19,0,19,0,,,,,,,,,,,,,,,,,,,,,,,,,,223.87614720035344,None,citizen,2,20,silent,yellow,221.86312590073794,None,None,221.86312590073794,None,,,,,,,,,,,,,,,,,,,,,,,,,,,,,,,,,,,97 Silent,001,2022_Nov_22_1152,ProdSingRedoBetween,2021.2.3,59.93543758530538,
20,0,20,0,,,,,,,,,,,,,,,,,,,,,,,,,,226.39525070041418,None,skill,86,21,silent,red,224.38993850070983,None,None,224.38993850070983,None,,,,,,,,,,,,,,,,,,,,,,,,,,,,,,,,,,,97 Silent,001,2022_Nov_22_1152,ProdSingRedoBetween,2021.2.3,59.93543758530538,
21,0,21,0,,,,,,,,,,,,,,,,,,,,,,,,,,228.9144979007542,None,object,13,22,silent,yellow,226.90380180068314,None,None,226.90380180068314,None,,,,,,,,,,,,,,,,,,,,,,,,,,,,,,,,,,,97 Silent,001,2022_Nov_22_1152,ProdSingRedoBetween,2021.2.3,59.93543758530538,
22,0,22,0,,,,,,,,,,,,,,,,,,,,,,,,,,231.41697230003774,None,passage,36,23,silent,blue,229.41502470057458,None,None,229.41502470057458,None,,,,,,,,,,,,,,,,,,,,,,,,,,,,,,,,,,,97 Silent,001,2022_Nov_22_1152,ProdSingRedoBetween,2021.2.3,59.93543758530538,
23,0,23,0,,,,,,,,,,,,,,,,,,,,,,,,,,233.91949120070785,None,agreement,19,24,silent,yellow,231.91759780049324,None,None,231.91759780049324,None,,,,,,,,,,,,,,,,,,,,,,,,,,,,,,,,,,,97 Silent,001,2022_Nov_22_1152,ProdSingRedoBetween,2021.2.3,59.93543758530538,
24,0,24,0,,,,,,,,,,,,,,,,,,,,,,,,,,236.4219623003155,None,light,45,25,silent,blue,234.42101010028273,None,None,234.42101010028273,None,,,,,,,,,,,,,,,,,,,,,,,,,,,,,,,,,,,97 Silent,001,2022_Nov_22_1152,ProdSingRedoBetween,2021.2.3,59.93543758530538,
25,0,25,0,,,,,,,,,,,,,,,,,,,,,,,,,,238.92431259993464,None,carry,21,26,silent,yellow,236.92356700077653,None,None,236.92356700077653,None,,,,,,,,,,,,,,,,,,,,,,,,,,,,,,,,,,,97 Silent,001,2022_Nov_22_1152,ProdSingRedoBetween,2021.2.3,59.93543758530538,
26,0,26,0,,,,,,,,,,,,,,,,,,,,,,,,,,241.42700800020248,None,broad,79,27,silent,red,239.42495270073414,None,None,239.42495270073414,None,,,,,,,,,,,,,,,,,,,,,,,,,,,,,,,,,,,97 Silent,001,2022_Nov_22_1152,ProdSingRedoBetween,2021.2.3,59.93543758530538,
27,0,27,0,,,,,,,,,,,,,,,,,,,,,,,,,,243.94616080075502,None,center,73,28,silent,red,241.9335916005075,None,None,241.9335916005075,None,,,,,,,,,,,,,,,,,,,,,,,,,,,,,,,,,,,97 Silent,001,2022_Nov_22_1152,ProdSingRedoBetween,2021.2.3,59.93543758530538,
28,0,28,0,,,,,,,,,,,,,,,,,,,,,,,,,,246.4654379999265,None,region,43,29,silent,blue,244.45277080032974,None,None,244.45277080032974,None,,,,,,,,,,,,,,,,,,,,,,,,,,,,,,,,,,,97 Silent,001,2022_Nov_22_1152,ProdSingRedoBetween,2021.2.3,59.93543758530538,
29,0,29,0,,,,,,,,,,,,,,,,,,,,,,,,,,248.96781550068408,None,place,1,30,silent,yellow,246.96593660023063,None,None,246.96593660023063,None,,,,,,,,,,,,,,,,,,,,,,,,,,,,,,,,,,,97 Silent,001,2022_Nov_22_1152,ProdSingRedoBetween,2021.2.3,59.93543758530538,
30,0,30,0,,,,,,,,,,,,,,,,,,,,,,,,,,251.4703232999891,None,principal,54,31,silent,blue,249.46911460068077,None,None,249.46911460068077,None,,,,,,,,,,,,,,,,,,,,,,,,,,,,,,,,,,,97 Silent,001,2022_Nov_22_1152,ProdSingRedoBetween,2021.2.3,59.93543758530538,
31,0,31,0,,,,,,,,,,,,,,,,,,,,,,,,,,253.97258170042187,None,build,31,32,silent,blue,251.97180730011314,None,None,251.97180730011314,None,,,,,,,,,,,,,,,,,,,,,,,,,,,,,,,,,,,97 Silent,001,2022_Nov_22_1152,ProdSingRedoBetween,2021.2.3,59.93543758530538,
32,0,32,0,,,,,,,,,,,,,,,,,,,,,,,,,,256.4753055004403,None,oxygen,27,33,silent,yellow,254.47384459991008,None,None,254.47384459991008,None,,,,,,,,,,,,,,,,,,,,,,,,,,,,,,,,,,,97 Silent,001,2022_Nov_22_1152,ProdSingRedoBetween,2021.2.3,59.93543758530538,
33,0,33,0,,,,,,,,,,,,,,,,,,,,,,,,,,258.97779540065676,None,society,37,34,silent,blue,256.9758150000125,None,None,256.9758150000125,None,,,,,,,,,,,,,,,,,,,,,,,,,,,,,,,,,,,97 Silent,001,2022_Nov_22_1152,ProdSingRedoBetween,2021.2.3,59.93543758530538,
34,0,34,0,,,,,,,,,,,,,,,,,,,,,,,,,,261.48015130031854,None,character,74,35,silent,red,259.47917990013957,None,None,259.47917990013957,None,,,,,,,,,,,,,,,,,,,,,,,,,,,,,,,,,,,97 Silent,001,2022_Nov_22_1152,ProdSingRedoBetween,2021.2.3,59.93543758530538,
35,0,35,0,,,,,,,,,,,,,,,,,,,,,,,,,,263.9992027003318,None,guide,87,36,silent,red,261.9861667007208,None,None,261.9861667007208,None,,,,,,,,,,,,,,,,,,,,,,,,,,,,,,,,,,,97 Silent,001,2022_Nov_22_1152,ProdSingRedoBetween,2021.2.3,59.93543758530538,
36,0,36,0,,,,,,,,,,,,,,,,,,,,,,,,,,266.50203990004957,None,command,58,37,silent,blue,264.49987350031734,None,None,264.49987350031734,None,,,,,,,,,,,,,,,,,,,,,,,,,,,,,,,,,,,97 Silent,001,2022_Nov_22_1152,ProdSingRedoBetween,2021.2.3,59.93543758530538,
37,0,37,0,,,,,,,,,,,,,,,,,,,,,,,,,,269.02101310063154,None,alert,81,38,silent,red,267.00654069986194,None,None,267.00654069986194,None,,,,,,,,,,,,,,,,,,,,,,,,,,,,,,,,,,,97 Silent,001,2022_Nov_22_1152,ProdSingRedoBetween,2021.2.3,59.93543758530538,
38,0,38,0,,,,,,,,,,,,,,,,,,,,,,,,,,271.52351840026677,None,territory,52,39,silent,blue,269.52219239994884,None,None,269.52219239994884,None,,,,,,,,,,,,,,,,,,,,,,,,,,,,,,,,,,,97 Silent,001,2022_Nov_22_1152,ProdSingRedoBetween,2021.2.3,59.93543758530538,
39,0,39,0,,,,,,,,,,,,,,,,,,,,,,,,,,274.04279089998454,None,commercial,69,40,silent,red,272.0272682001814,None,None,272.0272682001814,None,,,,,,,,,,,,,,,,,,,,,,,,,,,,,,,,,,,97 Silent,001,2022_Nov_22_1152,ProdSingRedoBetween,2021.2.3,59.93543758530538,
40,0,40,0,,,,,,,,,,,,,,,,,,,,,,,,,,276.545231600292,None,payment,24,41,silent,yellow,274.54311150033027,None,None,274.54311150033027,None,,,,,,,,,,,,,,,,,,,,,,,,,,,,,,,,,,,97 Silent,001,2022_Nov_22_1152,ProdSingRedoBetween,2021.2.3,59.93543758530538,
41,0,41,0,,,,,,,,,,,,,,,,,,,,,,,,,,279.0478399004787,None,tough,66,42,silent,red,277.0476493006572,None,None,277.0476493006572,None,,,,,,,,,,,,,,,,,,,,,,,,,,,,,,,,,,,97 Silent,001,2022_Nov_22_1152,ProdSingRedoBetween,2021.2.3,59.93543758530538,
42,0,42,0,,,,,,,,,,,,,,,,,,,,,,,,,,281.55030930042267,None,science,17,43,silent,yellow,279.5506428005174,None,None,279.5506428005174,None,,,,,,,,,,,,,,,,,,,,,,,,,,,,,,,,,,,97 Silent,001,2022_Nov_22_1152,ProdSingRedoBetween,2021.2.3,59.93543758530538,
43,0,43,0,,,,,,,,,,,,,,,,,,,,,,,,,,284.069647599943,None,growth,35,44,silent,blue,282.0569875007495,None,None,282.0569875007495,None,,,,,,,,,,,,,,,,,,,,,,,,,,,,,,,,,,,97 Silent,001,2022_Nov_22_1152,ProdSingRedoBetween,2021.2.3,59.93543758530538,
44,0,44,0,,,,,,,,,,,,,,,,,,,,,,,,,,286.5749637000263,None,phrase,71,45,silent,red,284.57099050004035,None,None,284.57099050004035,None,,,,,,,,,,,,,,,,,,,,,,,,,,,,,,,,,,,97 Silent,001,2022_Nov_22_1152,ProdSingRedoBetween,2021.2.3,59.93543758530538,
45,0,45,0,,,,,,,,,,,,,,,,,,,,,,,,,,289.10778850037605,None,opening,41,46,silent,blue,287.0988501999527,None,None,287.0988501999527,None,,,,,,,,,,,,,,,,,,,,,,,,,,,,,,,,,,,97 Silent,001,2022_Nov_22_1152,ProdSingRedoBetween,2021.2.3,59.93543758530538,
46,0,46,0,,,,,,,,,,,,,,,,,,,,,,,,,,291.6270079007372,None,fashion,20,47,silent,yellow,289.61259310040623,None,None,289.61259310040623,None,,,,,,,,,,,,,,,,,,,,,,,,,,,,,,,,,,,97 Silent,001,2022_Nov_22_1152,ProdSingRedoBetween,2021.2.3,59.93543758530538,
47,0,47,0,,,,,,,,,,,,,,,,,,,,,,,,,,294.14612470008433,None,cousin,34,48,silent,blue,292.1325133005157,None,None,292.1325133005157,None,,,,,,,,,,,,,,,,,,,,,,,,,,,,,,,,,,,97 Silent,001,2022_Nov_22_1152,ProdSingRedoBetween,2021.2.3,59.93543758530538,
48,0,48,0,,,,,,,,,,,,,,,,,,,,,,,,,,296.6654423000291,None,expansion,42,49,silent,blue,294.65356160048395,None,None,294.65356160048395,None,,,,,,,,,,,,,,,,,,,,,,,,,,,,,,,,,,,97 Silent,001,2022_Nov_22_1152,ProdSingRedoBetween,2021.2.3,59.93543758530538,
49,0,49,0,,,,,,,,,,,,,,,,,,,,,,,,,,299.1678693005815,None,scene,61,50,silent,red,297.16815700009465,None,None,297.16815700009465,None,,,,,,,,,,,,,,,,,,,,,,,,,,,,,,,,,,,97 Silent,001,2022_Nov_22_1152,ProdSingRedoBetween,2021.2.3,59.93543758530538,
50,0,50,0,,,,,,,,,,,,,,,,,,,,,,,,,,301.6867448007688,None,industry,53,51,silent,blue,299.6816313005984,None,None,299.6816313005984,None,,,,,,,,,,,,,,,,,,,,,,,,,,,,,,,,,,,97 Silent,001,2022_Nov_22_1152,ProdSingRedoBetween,2021.2.3,59.93543758530538,
51,0,51,0,,,,,,,,,,,,,,,,,,,,,,,,,,304.1895166002214,None,sweet,57,52,silent,blue,302.18864310067147,None,None,302.18864310067147,None,,,,,,,,,,,,,,,,,,,,,,,,,,,,,,,,,,,97 Silent,001,2022_Nov_22_1152,ProdSingRedoBetween,2021.2.3,59.93543758530538,
52,0,52,0,,,,,,,,,,,,,,,,,,,,,,,,,,306.6920404005796,None,capital,0,53,silent,yellow,304.6906529003754,None,None,304.6906529003754,None,,,,,,,,,,,,,,,,,,,,,,,,,,,,,,,,,,,97 Silent,001,2022_Nov_22_1152,ProdSingRedoBetween,2021.2.3,59.93543758530538,
53,0,53,0,,,,,,,,,,,,,,,,,,,,,,,,,,309.21132049988955,None,quantity,70,54,silent,red,307.2186534004286,None,None,307.2186534004286,None,,,,,,,,,,,,,,,,,,,,,,,,,,,,,,,,,,,97 Silent,001,2022_Nov_22_1152,ProdSingRedoBetween,2021.2.3,59.93543758530538,
54,0,54,0,,,,,,,,,,,,,,,,,,,,,,,,,,311.7303985999897,None,charter,75,55,silent,red,309.7166030006483,None,None,309.7166030006483,None,,,,,,,,,,,,,,,,,,,,,,,,,,,,,,,,,,,97 Silent,001,2022_Nov_22_1152,ProdSingRedoBetween,2021.2.3,59.93543758530538,
55,0,55,0,,,,,,,,,,,,,,,,,,,,,,,,,,314.2329283002764,None,thing,46,56,silent,blue,312.231017800048,None,None,312.231017800048,None,,,,,,,,,,,,,,,,,,,,,,,,,,,,,,,,,,,97 Silent,001,2022_Nov_22_1152,ProdSingRedoBetween,2021.2.3,59.93543758530538,
56,0,56,0,,,,,,,,,,,,,,,,,,,,,,,,,,316.7353926002979,None,public,6,57,silent,yellow,314.73296120017767,None,None,314.73296120017767,None,,,,,,,,,,,,,,,,,,,,,,,,,,,,,,,,,,,97 Silent,001,2022_Nov_22_1152,ProdSingRedoBetween,2021.2.3,59.93543758530538,
57,0,57,0,,,,,,,,,,,,,,,,,,,,,,,,,,319.254631199874,None,judge,16,58,silent,yellow,317.2410173006356,None,None,317.2410173006356,None,,,,,,,,,,,,,,,,,,,,,,,,,,,,,,,,,,,97 Silent,001,2022_Nov_22_1152,ProdSingRedoBetween,2021.2.3,59.93543758530538,
58,0,58,0,,,,,,,,,,,,,,,,,,,,,,,,,,321.7571606002748,None,relation,11,59,silent,yellow,319.7550303004682,None,None,319.7550303004682,None,,,,,,,,,,,,,,,,,,,,,,,,,,,,,,,,,,,97 Silent,001,2022_Nov_22_1152,ProdSingRedoBetween,2021.2.3,59.93543758530538,
59,0,59,0,,,,,,,,,,,,,,,,,,,,,,,,,,324.27629640046507,None,bicycle,3,60,silent,yellow,322.26238660048693,None,None,322.26238660048693,None,,,,,,,,,,,,,,,,,,,,,,,,,,,,,,,,,,,97 Silent,001,2022_Nov_22_1152,ProdSingRedoBetween,2021.2.3,59.93543758530538,
60,0,60,0,,,,,,,,,,,,,,,,,,,,,,,,,,326.79551410023123,None,provision,64,61,silent,red,324.79302410036325,None,None,324.79302410036325,None,,,,,,,,,,,,,,,,,,,,,,,,,,,,,,,,,,,97 Silent,001,2022_Nov_22_1152,ProdSingRedoBetween,2021.2.3,59.93543758530538,
61,0,61,0,,,,,,,,,,,,,,,,,,,,,,,,,,329.29796420037746,None,mankind,29,62,silent,blue,327.29596000071615,None,None,327.29596000071615,None,,,,,,,,,,,,,,,,,,,,,,,,,,,,,,,,,,,97 Silent,001,2022_Nov_22_1152,ProdSingRedoBetween,2021.2.3,59.93543758530538,
62,0,62,0,,,,,,,,,,,,,,,,,,,,,,,,,,331.8171380003914,None,distance,44,63,silent,blue,329.8026966005564,None,None,329.8026966005564,None,,,,,,,,,,,,,,,,,,,,,,,,,,,,,,,,,,,97 Silent,001,2022_Nov_22_1152,ProdSingRedoBetween,2021.2.3,59.93543758530538,
63,0,63,0,,,,,,,,,,,,,,,,,,,,,,,,,,334.31937000062317,None,reach,39,64,silent,blue,332.31745950039476,None,None,332.31745950039476,None,,,,,,,,,,,,,,,,,,,,,,,,,,,,,,,,,,,97 Silent,001,2022_Nov_22_1152,ProdSingRedoBetween,2021.2.3,59.93543758530538,
64,0,64,0,,,,,,,,,,,,,,,,,,,,,,,,,,336.8220486007631,None,route,33,65,silent,blue,334.81994830071926,None,None,334.81994830071926,None,,,,,,,,,,,,,,,,,,,,,,,,,,,,,,,,,,,97 Silent,001,2022_Nov_22_1152,ProdSingRedoBetween,2021.2.3,59.93543758530538,
65,0,65,0,,,,,,,,,,,,,,,,,,,,,,,,,,339.3412502007559,None,primary,55,66,silent,blue,337.3289608005434,None,None,337.3289608005434,None,,,,,,,,,,,,,,,,,,,,,,,,,,,,,,,,,,,97 Silent,001,2022_Nov_22_1152,ProdSingRedoBetween,2021.2.3,59.93543758530538,
66,0,66,0,,,,,,,,,,,,,,,,,,,,,,,,,,341.84374430030584,None,report,23,67,silent,yellow,339.8416360002011,None,None,339.8416360002011,None,,,,,,,,,,,,,,,,,,,,,,,,,,,,,,,,,,,97 Silent,001,2022_Nov_22_1152,ProdSingRedoBetween,2021.2.3,59.93543758530538,
67,0,67,0,,,,,,,,,,,,,,,,,,,,,,,,,,344.34626950044185,None,sight,85,68,silent,red,342.3448426006362,None,None,342.3448426006362,None,,,,,,,,,,,,,,,,,,,,,,,,,,,,,,,,,,,97 Silent,001,2022_Nov_22_1152,ProdSingRedoBetween,2021.2.3,59.93543758530538,
68,0,68,0,,,,,,,,,,,,,,,,,,,,,,,,,,346.8487578006461,None,music,12,69,silent,yellow,344.8464577002451,None,None,344.8464577002451,None,,,,,,,,,,,,,,,,,,,,,,,,,,,,,,,,,,,97 Silent,001,2022_Nov_22_1152,ProdSingRedoBetween,2021.2.3,59.93543758530538,
69,0,69,0,,,,,,,,,,,,,,,,,,,,,,,,,,349.36788180004805,None,nature,68,70,silent,red,347.35494210012257,None,None,347.35494210012257,None,,,,,,,,,,,,,,,,,,,,,,,,,,,,,,,,,,,97 Silent,001,2022_Nov_22_1152,ProdSingRedoBetween,2021.2.3,59.93543758530538,
70,0,70,0,,,,,,,,,,,,,,,,,,,,,,,,,,351.88715610001236,None,household,63,71,silent,red,349.8722983999178,None,None,349.8722983999178,None,,,,,,,,,,,,,,,,,,,,,,,,,,,,,,,,,,,97 Silent,001,2022_Nov_22_1152,ProdSingRedoBetween,2021.2.3,59.93543758530538,
71,0,71,0,,,,,,,,,,,,,,,,,,,,,,,,,,354.40641110017896,None,people,80,72,silent,red,352.3915037000552,None,None,352.3915037000552,None,,,,,,,,,,,,,,,,,,,,,,,,,,,,,,,,,,,97 Silent,001,2022_Nov_22_1152,ProdSingRedoBetween,2021.2.3,59.93543758530538,
72,0,72,0,,,,,,,,,,,,,,,,,,,,,,,,,,356.9089762000367,None,trend,26,73,silent,yellow,354.9068659003824,None,None,354.9068659003824,None,,,,,,,,,,,,,,,,,,,,,,,,,,,,,,,,,,,97 Silent,001,2022_Nov_22_1152,ProdSingRedoBetween,2021.2.3,59.93543758530538,
73,0,73,0,,,,,,,,,,,,,,,,,,,,,,,,,,359.4280072003603,None,cover,67,74,silent,red,357.4159491006285,None,None,357.4159491006285,None,,,,,,,,,,,,,,,,,,,,,,,,,,,,,,,,,,,97 Silent,001,2022_Nov_22_1152,ProdSingRedoBetween,2021.2.3,59.93543758530538,
74,0,74,0,,,,,,,,,,,,,,,,,,,,,,,,,,361.94717090018094,None,impact,47,75,silent,blue,359.93154130037874,None,None,359.93154130037874,None,,,,,,,,,,,,,,,,,,,,,,,,,,,,,,,,,,,97 Silent,001,2022_Nov_22_1152,ProdSingRedoBetween,2021.2.3,59.93543758530538,
75,0,75,0,,,,,,,,,,,,,,,,,,,,,,,,,,364.46599970012903,None,listen,4,76,silent,yellow,362.4515658002347,None,None,362.4515658002347,None,,,,,,,,,,,,,,,,,,,,,,,,,,,,,,,,,,,97 Silent,001,2022_Nov_22_1152,ProdSingRedoBetween,2021.2.3,59.93543758530538,
76,0,76,0,,,,,,,,,,,,,,,,,,,,,,,,,,366.9688599007204,None,narrow,60,77,silent,red,364.96655640006065,None,None,364.96655640006065,None,,,,,,,,,,,,,,,,,,,,,,,,,,,,,,,,,,,97 Silent,001,2022_Nov_22_1152,ProdSingRedoBetween,2021.2.3,59.93543758530538,
77,0,77,0,,,,,,,,,,,,,,,,,,,,,,,,,,369.488013099879,None,measure,49,78,silent,blue,367.47473910078406,None,None,367.47473910078406,None,,,,,,,,,,,,,,,,,,,,,,,,,,,,,,,,,,,97 Silent,001,2022_Nov_22_1152,ProdSingRedoBetween,2021.2.3,59.93543758530538,
78,0,78,0,,,,,,,,,,,,,,,,,,,,,,,,,,371.99036450032145,None,pattern,59,79,silent,yellow,369.98855479992926,None,None,369.98855479992926,None,,,,,,,,,,,,,,,,,,,,,,,,,,,,,,,,,,,97 Silent,001,2022_Nov_22_1152,ProdSingRedoBetween,2021.2.3,59.93543758530538,
79,0,79,0,,,,,,,,,,,,,,,,,,,,,,,,,,374.5097175007686,None,state,15,80,silent,yellow,372.49729030020535,None,None,372.49729030020535,None,,,,,,,,,,,,,,,,,,,,,,,,,,,,,,,,,,,97 Silent,001,2022_Nov_22_1152,ProdSingRedoBetween,2021.2.3,59.93543758530538,
80,0,80,0,,,,,,,,,,,,,,,,,,,,,,,,,,377.0119385998696,None,notice,18,81,silent,yellow,375.01157970074564,None,None,375.01157970074564,None,,,,,,,,,,,,,,,,,,,,,,,,,,,,,,,,,,,97 Silent,001,2022_Nov_22_1152,ProdSingRedoBetween,2021.2.3,59.93543758530538,
81,0,81,0,,,,,,,,,,,,,,,,,,,,,,,,,,379.5147382998839,None,minute,25,82,silent,yellow,377.51301090046763,None,None,377.51301090046763,None,,,,,,,,,,,,,,,,,,,,,,,,,,,,,,,,,,,97 Silent,001,2022_Nov_22_1152,ProdSingRedoBetween,2021.2.3,59.93543758530538,
82,0,82,0,,,,,,,,,,,,,,,,,,,,,,,,,,382.0337393004447,None,agency,10,83,silent,yellow,380.0210043005645,None,None,380.0210043005645,None,,,,,,,,,,,,,,,,,,,,,,,,,,,,,,,,,,,97 Silent,001,2022_Nov_22_1152,ProdSingRedoBetween,2021.2.3,59.93543758530538,
83,0,83,0,,,,,,,,,,,,,,,,,,,,,,,,,,384.53613420017064,None,goose,38,84,silent,blue,382.5360647002235,None,None,382.5360647002235,None,,,,,,,,,,,,,,,,,,,,,,,,,,,,,,,,,,,97 Silent,001,2022_Nov_22_1152,ProdSingRedoBetween,2021.2.3,59.93543758530538,
84,0,84,0,,,,,,,,,,,,,,,,,,,,,,,,,,387.0553707005456,None,straight,28,85,silent,yellow,385.0467651998624,None,None,385.0467651998624,None,,,,,,,,,,,,,,,,,,,,,,,,,,,,,,,,,,,97 Silent,001,2022_Nov_22_1152,ProdSingRedoBetween,2021.2.3,59.93543758530538,
85,0,85,0,,,,,,,,,,,,,,,,,,,,,,,,,,389.5746629005298,None,breath,62,86,silent,red,387.5659791007638,None,None,387.5659791007638,None,,,,,,,,,,,,,,,,,,,,,,,,,,,,,,,,,,,97 Silent,001,2022_Nov_22_1152,ProdSingRedoBetween,2021.2.3,59.93543758530538,
86,0,86,0,,,,,,,,,,,,,,,,,,,,,,,,,,392.0772542003542,None,crime,84,87,silent,red,390.0751363001764,None,None,390.0751363001764,None,,,,,,,,,,,,,,,,,,,,,,,,,,,,,,,,,,,97 Silent,001,2022_Nov_22_1152,ProdSingRedoBetween,2021.2.3,59.93543758530538,
87,0,87,0,,,,,,,,,,,,,,,,,,,,,,,,,,394.5797230005264,None,match,88,88,silent,red,392.57779800053686,None,None,392.57779800053686,None,,,,,,,,,,,,,,,,,,,,,,,,,,,,,,,,,,,97 Silent,001,2022_Nov_22_1152,ProdSingRedoBetween,2021.2.3,59.93543758530538,
88,0,88,0,,,,,,,,,,,,,,,,,,,,,,,,,,397.0988938007504,None,frank,72,89,silent,red,395.0865149004385,None,None,395.0865149004385,None,,,,,,,,,,,,,,,,,,,,,,,,,,,,,,,,,,,97 Silent,001,2022_Nov_22_1152,ProdSingRedoBetween,2021.2.3,59.93543758530538,
89,0,89,0,,,,,,,,,,,,,,,,,,,,,,,,,,399.6013038000092,None,budget,7,90,silent,yellow,397.59939400013536,None,None,397.59939400013536,None,,,,,,,,,,,,,,,,,,,,,,,,,,,,,,,,,,,97 Silent,001,2022_Nov_22_1152,ProdSingRedoBetween,2021.2.3,59.93543758530538,
,,,,,,,,,,,,,,,,,,,,,,,,,,,,,,,,,,,,,,,,,400.1020088000223,None,k,190.3207638002932,400.1020088000223,None,,,,,,,,,,,,,,,,,,,,,,,,,,,,,97 Silent,001,2022_Nov_22_1152,ProdSingRedoBetween,2021.2.3,59.93543758530538,
,,,,0,0,0,0,,,,,,,,,,,,,,,,,,,,,,601.085595600307,None,,,,,,,,,,,,,,,,,oxygen,27,1,silent,old,yellow,590.9491853006184,None,590.9491853006184,None,6,6.609531699679792,590.9491853006184,None,6.609531699679792,597.5836626002565,None,598.0992264999077,None,598.0992264999077,None,r,2.9554163003340364,598.0992264999077,None,2.9554163003340364,,,97 Silent,001,2022_Nov_22_1152,ProdSingRedoBetween,2021.2.3,59.93543758530538,
,,,,1,0,1,0,,,,,,,,,,,,,,,,,,,,,,606.441039999947,None,,,,,,,,,,,,,,,,,safety,117,2,silent,new,null,601.5917092999443,None,601.5917092999443,None,6,3.422928400337696,601.5917092999443,None,3.422928400337696,605.041298000142,None,605.5566055001691,None,605.5566055001691,None,r,0.8580084005370736,605.5566055001691,None,0.8580084005370736,,,97 Silent,001,2022_Nov_22_1152,ProdSingRedoBetween,2021.2.3,59.93543758530538,
,,,,2,0,2,0,,,,,,,,,,,,,,,,,,,,,,612.3969299001619,None,,,,,,,,,,,,,,,,,school,132,3,silent,new,null,606.9413232998922,None,606.9413232998922,None,1,2.9293740997090936,606.9413232998922,None,2.9293740997090936,609.8962685000151,None,610.4184520002455,None,610.4184520002455,None,f,1.9483687998726964,610.4184520002455,None,1.9483687998726964,,,97 Silent,001,2022_Nov_22_1152,ProdSingRedoBetween,2021.2.3,59.93543758530538,
,,,,3,0,3,0,,,,,,,,,,,,,,,,,,,,,,617.002990600653,None,,,,,,,,,,,,,,,,,ground,133,4,silent,new,null,612.9065228998661,None,612.9065228998661,None,1,1.8921565003693104,612.9065228998661,None,1.8921565003693104,614.8157739005983,None,615.3165966002271,None,615.3165966002271,None,f,1.6581096993759274,615.3165966002271,None,1.6581096993759274,,,97 Silent,001,2022_Nov_22_1152,ProdSingRedoBetween,2021.2.3,59.93543758530538,
,,,,4,0,4,0,,,,,,,,,,,,,,,,,,,,,,622.8240053001791,None,,,,,,,,,,,,,,,,,close,130,5,silent,new,null,617.5132592003793,None,617.5132592003793,None,5,3.461360299959779,617.5132592003793,None,3.461360299959779,621.0130640007555,None,621.5290204007179,None,621.5290204007179,None,f,1.2696642000228167,621.5290204007179,None,1.2696642000228167,,,97 Silent,001,2022_Nov_22_1152,ProdSingRedoBetween,2021.2.3,59.93543758530538,
,,,,5,0,5,0,,,,,,,,,,,,,,,,,,,,,,628.3127668006346,None,,,,,,,,,,,,,,,,,minute,25,6,silent,old,yellow,623.3322760006413,None,623.3322760006413,None,6,3.362354900687933,623.3322760006413,None,3.362354900687933,626.7110387003049,None,627.2156760003418,None,627.2156760003418,None,r,1.0789227001369,627.2156760003418,None,1.0789227001369,,,97 Silent,001,2022_Nov_22_1152,ProdSingRedoBetween,2021.2.3,59.93543758530538,
,,,,6,0,6,0,,,,,,,,,,,,,,,,,,,,,,632.1333105005324,None,,,,,,,,,,,,,,,,,territory,52,7,silent,old,blue,628.825469000265,None,628.825469000265,None,6,2.117174600251019,628.825469000265,None,2.117174600251019,630.9666683003306,None,631.4689541002735,None,631.4689541002735,None,r,0.633729599416256,631.4689541002735,None,0.633729599416256,,,97 Silent,001,2022_Nov_22_1152,ProdSingRedoBetween,2021.2.3,59.93543758530538,
,,,,7,0,7,0,,,,,,,,,,,,,,,,,,,,,,639.0901281004772,None,,,,,,,,,,,,,,,,,contract,126,8,silent,new,null,632.6428485000506,None,632.6428485000506,None,1,1.219837099313736,632.6428485000506,None,1.219837099313736,633.888155400753,None,634.402260100469,None,634.402260100469,None,f,4.660318800248206,634.402260100469,None,4.660318800248206,,,97 Silent,001,2022_Nov_22_1152,ProdSingRedoBetween,2021.2.3,59.93543758530538,
,,,,8,0,8,0,,,,,,,,,,,,,,,,,,,,,,642.4936110004783,None,,,,,,,,,,,,,,,,,estate,109,9,silent,new,null,639.6002783002332,None,639.6002783002332,None,1,1.4705044999718666,639.6002783002332,None,1.4705044999718666,641.0987256001681,None,641.6166149005294,None,641.6166149005294,None,n,0.8620984992012382,641.6166149005294,None,0.8620984992012382,,,97 Silent,001,2022_Nov_22_1152,ProdSingRedoBetween,2021.2.3,59.93543758530538,
,,,,9,0,9,0,,,,,,,,,,,,,,,,,,,,,,647.568673000671,None,,,,,,,,,,,,,,,,,reading,147,10,silent,new,null,643.0029637003317,None,643.0029637003317,None,1,3.243674799799919,643.0029637003317,None,3.243674799799919,646.2650313004851,None,646.7666466999799,None,646.7666466999799,None,n,0.7678881995379925,646.7666466999799,None,0.7678881995379925,,,97 Silent,001,2022_Nov_22_1152,ProdSingRedoBetween,2021.2.3,59.93543758530538,
,,,,10,0,10,0,,,,,,,,,,,,,,,,,,,,,,649.9841082002968,None,,,,,,,,,,,,,,,,,sunset,97,11,silent,new,null,648.0826061004773,None,648.0826061004773,None,1,1.2199694998562336,648.0826061004773,None,1.2199694998562336,649.334782300517,None,649.8387550003827,None,649.8387550003827,None,n,0.11991199944168329,649.8387550003827,None,0.11991199944168329,,,97 Silent,001,2022_Nov_22_1152,ProdSingRedoBetween,2021.2.3,59.93543758530538,
,,,,11,0,11,0,,,,,,,,,,,,,,,,,,,,,,653.1224212003872,None,,,,,,,,,,,,,,,,,pattern,59,12,silent,old,yellow,650.4860121998936,None,650.4860121998936,None,6,1.952662999741733,650.4860121998936,None,1.952662999741733,652.4586547007784,None,652.9708087006584,None,652.9708087006584,None,r,0.12385750003159046,652.9708087006584,None,0.12385750003159046,,,97 Silent,001,2022_Nov_22_1152,ProdSingRedoBetween,2021.2.3,59.93543758530538,
,,,,12,0,12,0,,,,,,,,,,,,,,,,,,,,,,657.2416340000927,None,,,,,,,,,,,,,,,,,length,96,13,silent,new,null,653.6389348004013,None,653.6389348004013,None,1,2.183771900832653,653.6389348004013,None,2.183771900832653,655.841227600351,None,656.3516990002245,None,656.3516990002245,None,n,0.8708971003070474,656.3516990002245,None,0.8708971003070474,,,97 Silent,001,2022_Nov_22_1152,ProdSingRedoBetween,2021.2.3,59.93543758530538,
,,,,13,0,13,0,,,,,,,,,,,,,,,,,,,,,,661.846369500272,None,,,,,,,,,,,,,,,,,danger,5,14,silent,old,yellow,657.7503718007356,None,657.7503718007356,None,6,2.6401427006348968,657.7503718007356,None,2.6401427006348968,660.4205936007202,None,660.928747500293,None,660.928747500293,None,r,0.9017450995743275,660.928747500293,None,0.9017450995743275,,,97 Silent,001,2022_Nov_22_1152,ProdSingRedoBetween,2021.2.3,59.93543758530538,
,,,,14,0,14,0,,,,,,,,,,,,,,,,,,,,,,665.9337404007092,None,,,,,,,,,,,,,,,,,universal,120,15,silent,new,null,662.3504629004747,None,662.3504629004747,None,1,2.1761523000895977,662.3504629004747,None,2.1761523000895977,664.5509150000289,None,665.0689107999206,None,665.0689107999206,None,n,0.8416837006807327,665.0689107999206,None,0.8416837006807327,,,97 Silent,001,2022_Nov_22_1152,ProdSingRedoBetween,2021.2.3,59.93543758530538,
,,,,15,0,15,0,,,,,,,,,,,,,,,,,,,,,,668.4528368003666,None,,,,,,,,,,,,,,,,,concern,129,16,silent,new,null,666.4397662999108,None,666.4397662999108,None,1,1.3427153006196022,666.4397662999108,None,1.3427153006196022,667.802074899897,None,668.3029995001853,None,668.3029995001853,None,n,0.1275313999503851,668.3029995001853,None,0.1275313999503851,,,97 Silent,001,2022_Nov_22_1152,ProdSingRedoBetween,2021.2.3,59.93543758530538,
,,,,16,0,16,0,,,,,,,,,,,,,,,,,,,,,,670.6215046001598,None,,,,,,,,,,,,,,,,,drove,171,17,silent,new,null,668.9531763000414,None,668.9531763000414,None,1,1.0053784996271133,668.9531763000414,None,1.0053784996271133,669.9918282004073,None,670.5047305002809,None,670.5047305002809,None,n,0.10175660066306591,670.5047305002809,None,0.10175660066306591,,,97 Silent,001,2022_Nov_22_1152,ProdSingRedoBetween,2021.2.3,59.93543758530538,
,,,,17,0,17,0,,,,,,,,,,,,,,,,,,,,,,676.0278951004148,None,,,,,,,,,,,,,,,,,portion,22,18,silent,old,yellow,671.12731300015,None,671.12731300015,None,6,2.3352946992963552,671.12731300015,None,2.3352946992963552,673.4923807000741,None,673.9955374998972,None,673.9955374998972,None,r,2.002935199998319,673.9955374998972,None,2.002935199998319,,,97 Silent,001,2022_Nov_22_1152,ProdSingRedoBetween,2021.2.3,59.93543758530538,
,,,,18,0,18,0,,,,,,,,,,,,,,,,,,,,,,680.2494470998645,None,,,,,,,,,,,,,,,,,agreement,19,19,silent,old,yellow,676.5478806002066,None,676.5478806002066,None,1,2.7146298000589013,676.5478806002066,None,2.7146298000589013,679.2802804000676,None,679.7843086002395,None,679.7843086002395,None,n,0.4462133003398776,679.7843086002395,None,0.4462133003398776,,,97 Silent,001,2022_Nov_22_1152,ProdSingRedoBetween,2021.2.3,59.93543758530538,
,,,,19,0,19,0,,,,,,,,,,,,,,,,,,,,,,684.0183027004823,None,,,,,,,,,,,,,,,,,impact,47,20,silent,old,blue,680.7651313999668,None,680.7651313999668,None,1,1.9934334000572562,680.7651313999668,None,1.9934334000572562,682.785719900392,None,683.304811200127,None,683.304811200127,None,n,0.6857128003612161,683.304811200127,None,0.6857128003612161,,,97 Silent,001,2022_Nov_22_1152,ProdSingRedoBetween,2021.2.3,59.93543758530538,
,,,,20,0,20,0,,,,,,,,,,,,,,,,,,,,,,687.6884506000206,None,,,,,,,,,,,,,,,,,escape,32,21,silent,old,blue,684.521523100324,None,684.521523100324,None,6,2.2290631998330355,684.521523100324,None,2.2290631998330355,686.7745876004919,None,687.2883662004024,None,687.2883662004024,None,r,0.3741967994719744,687.2883662004024,None,0.3741967994719744,,,97 Silent,001,2022_Nov_22_1152,ProdSingRedoBetween,2021.2.3,59.93543758530538,
,,,,21,0,21,0,,,,,,,,,,,,,,,,,,,,,,693.8447698000818,None,,,,,,,,,,,,,,,,,history,92,22,silent,new,null,688.2131564002484,None,688.2131564002484,None,5,3.961394200101495,688.2131564002484,None,3.961394200101495,692.1951255006716,None,692.7148782005534,None,692.7148782005534,None,f,1.099694900214672,692.7148782005534,None,1.099694900214672,,,97 Silent,001,2022_Nov_22_1152,ProdSingRedoBetween,2021.2.3,59.93543758530538,
,,,,22,0,22,0,,,,,,,,,,,,,,,,,,,,,,697.7662677001208,None,,,,,,,,,,,,,,,,,patient,114,23,silent,new,null,694.3484449004754,None,694.3484449004754,None,1,2.5942424992099404,694.3484449004754,None,2.5942424992099404,696.9657319001853,None,697.4652626998723,None,697.4652626998723,None,n,0.2853659000247717,697.4652626998723,None,0.2853659000247717,,,97 Silent,001,2022_Nov_22_1152,ProdSingRedoBetween,2021.2.3,59.93543758530538,
,,,,23,0,23,0,,,,,,,,,,,,,,,,,,,,,,699.9180279001594,None,,,,,,,,,,,,,,,,,novel,166,24,silent,new,null,698.2686900002882,None,698.2686900002882,None,1,1.0818459000438452,698.2686900002882,None,1.0818459000438452,699.3684570007026,None,699.8909146003425,None,699.8909146003425,None,n,0.011780699715018272,699.8909146003425,None,0.011780699715018272,,,97 Silent,001,2022_Nov_22_1152,ProdSingRedoBetween,2021.2.3,59.93543758530538,
,,,,24,0,24,0,,,,,,,,,,,,,,,,,,,,,,704.4886086005718,None,,,,,,,,,,,,,,,,,alert,81,25,silent,old,red,700.4236139999703,None,700.4236139999703,None,6,2.4548717997968197,700.4236139999703,None,2.4548717997968197,702.9039510004222,None,703.4140665000305,None,703.4140665000305,None,r,1.0566723002120852,703.4140665000305,None,1.0566723002120852,,,97 Silent,001,2022_Nov_22_1152,ProdSingRedoBetween,2021.2.3,59.93543758530538,
,,,,25,0,25,0,,,,,,,,,,,,,,,,,,,,,,707.6586302006617,None,,,,,,,,,,,,,,,,,south,110,26,silent,new,null,705.0021802000701,None,705.0021802000701,None,1,1.6764247994869947,705.0021802000701,None,1.6764247994869947,706.709259999916,None,707.2276316005737,None,707.2276316005737,None,n,0.402899700216949,707.2276316005737,None,0.402899700216949,,,97 Silent,001,2022_Nov_22_1152,ProdSingRedoBetween,2021.2.3,59.93543758530538,
,,,,26,0,26,0,,,,,,,,,,,,,,,,,,,,,,712.9138525007293,None,,,,,,,,,,,,,,,,,measure,49,27,silent,old,blue,708.1668169004843,None,708.1668169004843,None,6,3.0155981006100774,708.1668169004843,None,3.0155981006100774,711.2190879005939,None,711.7366264006123,None,711.7366264006123,None,r,1.157909399829805,711.7366264006123,None,1.157909399829805,,,97 Silent,001,2022_Nov_22_1152,ProdSingRedoBetween,2021.2.3,59.93543758530538,
,,,,27,0,27,0,,,,,,,,,,,,,,,,,,,,,,720.8735925005749,None,,,,,,,,,,,,,,,,,count,128,28,silent,new,null,713.4157498003915,None,713.4157498003915,None,1,4.582985700108111,713.4157498003915,None,4.582985700108111,718.0264202002436,None,718.5360284000635,None,718.5360284000635,None,n,2.3106068996712565,718.5360284000635,None,2.3106068996712565,,,97 Silent,001,2022_Nov_22_1152,ProdSingRedoBetween,2021.2.3,59.93543758530538,
,,,,28,0,28,0,,,,,,,,,,,,,,,,,,,,,,723.8914608005434,None,,,,,,,,,,,,,,,,,treatment,89,29,silent,old,red,721.3926750002429,None,721.3926750002429,None,6,1.942004700191319,721.3926750002429,None,1.942004700191319,723.3573992000893,None,723.858188400045,None,723.858188400045,None,r,0.0043484000489115715,723.858188400045,None,0.0043484000489115715,,,97 Silent,001,2022_Nov_22_1152,ProdSingRedoBetween,2021.2.3,59.93543758530538,
,,,,29,0,29,0,,,,,,,,,,,,,,,,,,,,,,726.8110214006156,None,,,,,,,,,,,,,,,,,trash,83,30,silent,old,red,724.3968408005312,None,724.3968408005312,None,1,1.5456044999882579,724.3968408005312,None,1.5456044999882579,725.9618604006246,None,726.4849634002894,None,726.4849634002894,None,n,0.2975414004176855,726.4849634002894,None,0.2975414004176855,,,97 Silent,001,2022_Nov_22_1152,ProdSingRedoBetween,2021.2.3,59.93543758530538,
,,,,30,0,30,0,,,,,,,,,,,,,,,,,,,,,,729.8473800001666,None,,,,,,,,,,,,,,,,,tough,66,31,silent,old,red,727.323645000346,None,727.323645000346,None,1,1.746866799890995,727.323645000346,None,1.746866799890995,729.0966311004013,None,729.6005325000733,None,729.6005325000733,None,n,0.22994160000234842,729.6005325000733,None,0.22994160000234842,,,97 Silent,001,2022_Nov_22_1152,ProdSingRedoBetween,2021.2.3,59.93543758530538,
,,,,31,0,31,0,,,,,,,,,,,,,,,,,,,,,,734.3540087006986,None,,,,,,,,,,,,,,,,,graduate,131,32,silent,new,null,730.3498817002401,None,730.3498817002401,None,1,3.1126177003607154,730.3498817002401,None,3.1126177003607154,733.486980500631,None,734.0063110003248,None,734.0063110003248,None,n,0.3281878996640444,734.0063110003248,None,0.3281878996640444,,,97 Silent,001,2022_Nov_22_1152,ProdSingRedoBetween,2021.2.3,59.93543758530538,
,,,,32,0,32,0,,,,,,,,,,,,,,,,,,,,,,739.7737787999213,None,,,,,,,,,,,,,,,,,drink,176,33,silent,new,null,734.8695902004838,None,734.8695902004838,None,1,3.8648848002776504,734.8695902004838,None,3.8648848002776504,738.760065600276,None,739.2736880006269,None,739.2736880006269,None,n,0.46890150010585785,739.2736880006269,None,0.46890150010585785,,,97 Silent,001,2022_Nov_22_1152,ProdSingRedoBetween,2021.2.3,59.93543758530538,
,,,,33,0,33,0,,,,,,,,,,,,,,,,,,,,,,743.194087500684,None,,,,,,,,,,,,,,,,,trend,26,34,silent,old,yellow,740.2761273998767,None,740.2761273998767,None,1,1.6503493003547192,740.2761273998767,None,1.6503493003547192,741.9455056004226,None,742.4608404003084,None,742.4608404003084,None,n,0.705565600655973,742.4608404003084,None,0.705565600655973,,,97 Silent,001,2022_Nov_22_1152,ProdSingRedoBetween,2021.2.3,59.93543758530538,
,,,,34,0,34,0,,,,,,,,,,,,,,,,,,,,,,749.099920200184,None,,,,,,,,,,,,,,,,,payment,24,35,silent,old,yellow,743.7104243999347,None,743.7104243999347,None,1,4.448026499710977,743.7104243999347,None,4.448026499710977,748.1836523003876,None,748.6925827004015,None,748.6925827004015,None,n,0.3777699004858732,748.6925827004015,None,0.3777699004858732,,,97 Silent,001,2022_Nov_22_1152,ProdSingRedoBetween,2021.2.3,59.93543758530538,
,,,,35,0,35,0,,,,,,,,,,,,,,,,,,,,,,754.4552760003135,None,,,,,,,,,,,,,,,,,research,9,36,silent,old,yellow,749.6070975000039,None,749.6070975000039,None,4,4.135371400043368,749.6070975000039,None,4.135371400043368,753.7726950999349,None,754.2746069999412,None,754.2746069999412,None,f,0.16378269996494055,754.2746069999412,None,0.16378269996494055,,,97 Silent,001,2022_Nov_22_1152,ProdSingRedoBetween,2021.2.3,59.93543758530538,
,,,,36,0,36,0,,,,,,,,,,,,,,,,,,,,,,758.259083500132,None,,,,,,,,,,,,,,,,,captain,136,37,silent,new,null,754.9639864005148,None,754.9639864005148,None,1,2.378415400162339,754.9639864005148,None,2.378415400162339,757.3595626000315,None,757.8633226007223,None,757.8633226007223,None,n,0.3671142999082804,757.8633226007223,None,0.3671142999082804,,,97 Silent,001,2022_Nov_22_1152,ProdSingRedoBetween,2021.2.3,59.93543758530538,
,,,,37,0,37,0,,,,,,,,,,,,,,,,,,,,,,761.0451563000679,None,,,,,,,,,,,,,,,,,problem,165,38,silent,new,null,758.7681551007554,None,758.7681551007554,None,1,1.3582244999706745,758.7681551007554,None,1.3582244999706745,760.1456614006311,None,760.6591431004927,None,760.6591431004927,None,n,0.3632997004315257,760.6591431004927,None,0.3632997004315257,,,97 Silent,001,2022_Nov_22_1152,ProdSingRedoBetween,2021.2.3,59.93543758530538,
,,,,38,0,38,0,,,,,,,,,,,,,,,,,,,,,,763.3474411005154,None,,,,,,,,,,,,,,,,,voice,145,39,silent,new,null,761.5512891001999,None,761.5512891001999,None,1,0.9511254001408815,761.5512891001999,None,0.9511254001408815,762.5306612001732,None,763.0306336004287,None,763.0306336004287,None,n,0.28788729943335056,763.0306336004287,None,0.28788729943335056,,,97 Silent,001,2022_Nov_22_1152,ProdSingRedoBetween,2021.2.3,59.93543758530538,
,,,,39,0,39,0,,,,,,,,,,,,,,,,,,,,,,766.4139825003222,None,,,,,,,,,,,,,,,,,debate,48,40,silent,old,blue,763.8562064999714,None,763.8562064999714,None,1,1.7661359002813697,763.8562064999714,None,1.7661359002813697,765.6511903004721,None,766.1550679001957,None,766.1550679001957,None,n,0.22728950064629316,766.1550679001957,None,0.22728950064629316,,,97 Silent,001,2022_Nov_22_1152,ProdSingRedoBetween,2021.2.3,59.93543758530538,
,,,,40,0,40,0,,,,,,,,,,,,,,,,,,,,,,770.4542225999758,None,,,,,,,,,,,,,,,,,shock,82,41,silent,old,red,766.935061099939,None,766.935061099939,None,6,2.4875284004956484,766.935061099939,None,2.4875284004956484,769.457289500162,None,769.9732800005004,None,769.9732800005004,None,r,0.46501460019499063,769.9732800005004,None,0.46501460019499063,,,97 Silent,001,2022_Nov_22_1152,ProdSingRedoBetween,2021.2.3,59.93543758530538,
,,,,41,0,41,0,,,,,,,,,,,,,,,,,,,,,,774.0413200007752,None,,,,,,,,,,,,,,,,,quantity,70,42,silent,old,red,770.9599851006642,None,770.9599851006642,None,1,2.0944310994818807,770.9599851006642,None,2.0944310994818807,773.0763449007645,None,773.5911759007722,None,773.5911759007722,None,n,0.43124059960246086,773.5911759007722,None,0.43124059960246086,,,97 Silent,001,2022_Nov_22_1152,ProdSingRedoBetween,2021.2.3,59.93543758530538,
,,,,42,0,42,0,,,,,,,,,,,,,,,,,,,,,,776.9276478001848,None,,,,,,,,,,,,,,,,,curve,134,43,silent,new,null,774.5426106005907,None,774.5426106005907,None,1,1.5758034996688366,774.5426106005907,None,1.5758034996688366,776.1465166006237,None,776.6608283007517,None,776.6608283007517,None,n,0.24154650047421455,776.6608283007517,None,0.24154650047421455,,,97 Silent,001,2022_Nov_22_1152,ProdSingRedoBetween,2021.2.3,59.93543758530538,
,,,,43,0,43,0,,,,,,,,,,,,,,,,,,,,,,782.5165598001331,None,,,,,,,,,,,,,,,,,society,37,44,silent,old,blue,777.4393958002329,None,777.4393958002329,None,5,4.047105300240219,777.4393958002329,None,4.047105300240219,781.5169120002538,None,782.0162409003824,None,782.0162409003824,None,f,0.47815300058573484,782.0162409003824,None,0.47815300058573484,,,97 Silent,001,2022_Nov_22_1152,ProdSingRedoBetween,2021.2.3,59.93543758530538,
,,,,44,0,44,0,,,,,,,,,,,,,,,,,,,,,,786.8209088006988,None,,,,,,,,,,,,,,,,,discovery,78,45,silent,old,red,783.0300828004256,None,783.0300828004256,None,1,2.2562910998240113,783.0300828004256,None,2.2562910998240113,785.3057797001675,None,785.8408232005313,None,785.8408232005313,None,n,0.9575672000646591,785.8408232005313,None,0.9575672000646591,,,97 Silent,001,2022_Nov_22_1152,ProdSingRedoBetween,2021.2.3,59.93543758530538,
,,,,45,0,45,0,,,,,,,,,,,,,,,,,,,,,,790.5579261006787,None,,,,,,,,,,,,,,,,,space,144,46,silent,new,null,787.3306833999231,None,787.3306833999231,None,6,2.427640900015831,787.3306833999231,None,2.427640900015831,789.7752270000055,None,790.2801670003682,None,790.2801670003682,None,f,0.25427949987351894,790.2801670003682,None,0.25427949987351894,,,97 Silent,001,2022_Nov_22_1152,ProdSingRedoBetween,2021.2.3,59.93543758530538,
,,,,46,0,46,0,,,,,,,,,,,,,,,,,,,,,,794.1985309999436,None,,,,,,,,,,,,,,,,,tennis,156,47,silent,new,null,791.0678973002359,None,791.0678973002359,None,1,2.162363499403,791.0678973002359,None,2.162363499403,793.2641970999539,None,793.7776041002944,None,793.7776041002944,None,n,0.3886461006477475,793.7776041002944,None,0.3886461006477475,,,97 Silent,001,2022_Nov_22_1152,ProdSingRedoBetween,2021.2.3,59.93543758530538,
,,,,47,0,47,0,,,,,,,,,,,,,,,,,,,,,,796.4304766003042,None,,,,,,,,,,,,,,,,,discussion,139,48,silent,new,null,794.716262800619,None,794.716262800619,None,1,0.8740501999855042,794.716262800619,None,0.8740501999855042,795.6222237003967,None,796.1302837999538,None,796.1302837999538,None,n,0.2761156000196934,796.1302837999538,None,0.2761156000196934,,,97 Silent,001,2022_Nov_22_1152,ProdSingRedoBetween,2021.2.3,59.93543758530538,
,,,,48,0,48,0,,,,,,,,,,,,,,,,,,,,,,801.5021881004795,None,,,,,,,,,,,,,,,,,phrase,71,49,silent,old,red,796.940010400489,None,796.940010400489,None,6,3.602230600081384,796.940010400489,None,3.602230600081384,800.5737260002643,None,801.0862453998998,None,801.0862453998998,None,f,0.4001347003504634,801.0862453998998,None,0.4001347003504634,,,97 Silent,001,2022_Nov_22_1152,ProdSingRedoBetween,2021.2.3,59.93543758530538,
,,,,49,0,49,0,,,,,,,,,,,,,,,,,,,,,,804.2894771005958,None,,,,,,,,,,,,,,,,,couch,116,50,silent,new,null,802.0122123006731,None,802.0122123006731,None,1,1.6342617003247142,802.0122123006731,None,1.6342617003247142,803.670990800485,None,804.1783544002101,None,804.1783544002101,None,n,0.08411450032144785,804.1783544002101,None,0.08411450032144785,,,97 Silent,001,2022_Nov_22_1152,ProdSingRedoBetween,2021.2.3,59.93543758530538,
,,,,50,0,50,0,,,,,,,,,,,,,,,,,,,,,,810.6112604001537,None,,,,,,,,,,,,,,,,,people,80,51,silent,old,red,804.7978880004957,None,804.7978880004957,None,1,5.1124357003718615,804.7978880004957,None,5.1124357003718615,809.928965699859,None,810.4528687000275,None,810.4528687000275,None,n,0.12958109937608242,810.4528687000275,None,0.12958109937608242,,,97 Silent,001,2022_Nov_22_1152,ProdSingRedoBetween,2021.2.3,59.93543758530538,
,,,,51,0,51,0,,,,,,,,,,,,,,,,,,,,,,813.2147996006534,None,,,,,,,,,,,,,,,,,audience,105,52,silent,new,null,811.1180340005085,None,811.1180340005085,None,1,1.3203154001384974,811.1180340005085,None,1.3203154001384974,812.4647769005969,None,812.9838617006317,None,812.9838617006317,None,n,0.2065190002322197,812.9838617006317,None,0.2065190002322197,,,97 Silent,001,2022_Nov_22_1152,ProdSingRedoBetween,2021.2.3,59.93543758530538,
,,,,52,0,52,0,,,,,,,,,,,,,,,,,,,,,,816.8540374999866,None,,,,,,,,,,,,,,,,,industry,53,53,silent,old,blue,813.7229032004252,None,813.7229032004252,None,6,2.427399699576199,813.7229032004252,None,2.427399699576199,816.1727086007595,None,816.6895489003509,None,816.6895489003509,None,r,0.1330094998702407,816.6895489003509,None,0.1330094998702407,,,97 Silent,001,2022_Nov_22_1152,ProdSingRedoBetween,2021.2.3,59.93543758530538,
,,,,53,0,53,0,,,,,,,,,,,,,,,,,,,,,,819.3197385007516,None,,,,,,,,,,,,,,,,,agency,10,54,silent,old,yellow,817.3841609004885,None,817.3841609004885,None,6,1.2621446000412107,817.3841609004885,None,1.2621446000412107,818.671498700045,None,819.1862943004817,None,819.1862943004817,None,r,0.11602959968149662,819.1862943004817,None,0.11602959968149662,,,97 Silent,001,2022_Nov_22_1152,ProdSingRedoBetween,2021.2.3,59.93543758530538,
,,,,54,0,54,0,,,,,,,,,,,,,,,,,,,,,,821.9225733000785,None,,,,,,,,,,,,,,,,,partner,178,55,silent,new,null,819.8301884001121,None,819.8301884001121,None,1,1.5041366005316377,819.8301884001121,None,1.5041366005316377,821.3569908998907,None,821.8725274000317,None,821.8725274000317,None,n,0.029843199998140335,821.8725274000317,None,0.029843199998140335,,,97 Silent,001,2022_Nov_22_1152,ProdSingRedoBetween,2021.2.3,59.93543758530538,
,,,,55,0,55,0,,,,,,,,,,,,,,,,,,,,,,829.0796706005931,None,,,,,,,,,,,,,,,,,light,45,56,silent,old,blue,822.4287676000968,None,822.4287676000968,None,1,5.041786800138652,822.4287676000968,None,5.041786800138652,827.5037215007469,None,828.0140639999881,None,828.0140639999881,None,n,1.0482692001387477,828.0140639999881,None,1.0482692001387477,,,97 Silent,001,2022_Nov_22_1152,ProdSingRedoBetween,2021.2.3,59.93543758530538,
,,,,56,0,56,0,,,,,,,,,,,,,,,,,,,,,,831.5155545007437,None,,,,,,,,,,,,,,,,,scene,61,57,silent,old,red,829.5877715004608,None,829.5877715004608,None,1,1.1224519992247224,829.5877715004608,None,1.1224519992247224,830.7374224001542,None,831.248629600741,None,831.248629600741,None,n,0.23758500069379807,831.248629600741,None,0.23758500069379807,,,97 Silent,001,2022_Nov_22_1152,ProdSingRedoBetween,2021.2.3,59.93543758530538,
,,,,57,0,57,0,,,,,,,,,,,,,,,,,,,,,,833.9020699001849,None,,,,,,,,,,,,,,,,,entrance,103,58,silent,new,null,832.0276596006006,None,832.0276596006006,None,1,1.2026810003444552,832.0276596006006,None,1.2026810003444552,833.2558730002493,None,833.7677554003894,None,833.7677554003894,None,n,0.1027753995731473,833.7677554003894,None,0.1027753995731473,,,97 Silent,001,2022_Nov_22_1152,ProdSingRedoBetween,2021.2.3,59.93543758530538,
,,,,58,0,58,0,,,,,,,,,,,,,,,,,,,,,,836.3712683999911,None,,,,,,,,,,,,,,,,,region,43,59,silent,old,blue,834.4066794002429,None,834.4066794002429,None,1,1.3197069000452757,834.4066794002429,None,1.3197069000452757,835.7580946004018,None,836.2729337001219,None,836.2729337001219,None,n,0.06944769993424416,836.2729337001219,None,0.06944769993424416,,,97 Silent,001,2022_Nov_22_1152,ProdSingRedoBetween,2021.2.3,59.93543758530538,
,,,,59,0,59,0,,,,,,,,,,,,,,,,,,,,,,840.0740149002522,None,,,,,,,,,,,,,,,,,science,17,60,silent,old,yellow,836.8707695007324,None,836.8707695007324,None,6,2.359526600688696,836.8707695007324,None,2.359526600688696,839.2600545007735,None,839.7737728003412,None,839.7737728003412,None,r,0.28062909934669733,839.7737728003412,None,0.28062909934669733,,,97 Silent,001,2022_Nov_22_1152,ProdSingRedoBetween,2021.2.3,59.93543758530538,
,,,,60,0,60,0,,,,,,,,,,,,,,,,,,,,,,843.0935380002484,None,,,,,,,,,,,,,,,,,mankind,29,61,silent,old,blue,840.5779833002016,None,840.5779833002016,None,1,1.7723427005112171,840.5779833002016,None,1.7723427005112171,842.3818558007479,None,842.8967384006828,None,842.8967384006828,None,n,0.1734813991934061,842.8967384006828,None,0.1734813991934061,,,97 Silent,001,2022_Nov_22_1152,ProdSingRedoBetween,2021.2.3,59.93543758530538,
,,,,61,0,61,0,,,,,,,,,,,,,,,,,,,,,,848.94957539998,None,,,,,,,,,,,,,,,,,worker,14,62,silent,old,yellow,843.5947257000953,None,843.5947257000953,None,5,4.475655700080097,843.5947257000953,None,4.475655700080097,848.1055982001126,None,848.6220454005525,None,848.6220454005525,None,f,0.2961083995178342,848.6220454005525,None,0.2961083995178342,,,97 Silent,001,2022_Nov_22_1152,ProdSingRedoBetween,2021.2.3,59.93543758530538,
,,,,62,0,62,0,,,,,,,,,,,,,,,,,,,,,,852.0211641006172,None,,,,,,,,,,,,,,,,,break,159,63,silent,new,null,849.4516548002139,None,849.4516548002139,None,1,1.8027199003845453,849.4516548002139,None,1.8027199003845453,851.2981040002778,None,851.802523500286,None,851.802523500286,None,n,0.19580649957060814,851.802523500286,None,0.19580649957060814,,,97 Silent,001,2022_Nov_22_1152,ProdSingRedoBetween,2021.2.3,59.93543758530538,
,,,,63,0,63,0,,,,,,,,,,,,,,,,,,,,,,857.4910190999508,None,,,,,,,,,,,,,,,,,present,150,64,silent,new,null,852.5379178002477,None,852.5379178002477,None,1,4.324381900019944,852.5379178002477,None,4.324381900019944,856.897127199918,None,857.4077649004757,None,857.4077649004757,None,n,0.054396199993789196,857.4077649004757,None,0.054396199993789196,,,97 Silent,001,2022_Nov_22_1152,ProdSingRedoBetween,2021.2.3,59.93543758530538,
,,,,64,0,64,0,,,,,,,,,,,,,,,,,,,,,,860.6111242007464,None,,,,,,,,,,,,,,,,,household,63,65,silent,old,red,857.9938690001145,None,857.9938690001145,None,1,1.06839369982481,857.9938690001145,None,1.06839369982481,859.0964003000408,None,859.61037879996,None,859.61037879996,None,n,0.9717789003625512,859.61037879996,None,0.9717789003625512,,,97 Silent,001,2022_Nov_22_1152,ProdSingRedoBetween,2021.2.3,59.93543758530538,
,,,,65,0,65,0,,,,,,,,,,,,,,,,,,,,,,863.3471849001944,None,,,,,,,,,,,,,,,,,charter,75,66,silent,old,red,861.1115022003651,None,861.1115022003651,None,1,1.502735499292612,861.1115022003651,None,1.502735499292612,862.6323694000021,None,863.1487195007503,None,863.1487195007503,None,n,0.17761310003697872,863.1487195007503,None,0.17761310003697872,,,97 Silent,001,2022_Nov_22_1152,ProdSingRedoBetween,2021.2.3,59.93543758530538,
,,,,66,0,66,0,,,,,,,,,,,,,,,,,,,,,,865.2341905999929,None,,,,,,,,,,,,,,,,,nation,107,67,silent,new,null,863.8583209998906,None,863.8583209998906,None,1,0.7639210000634193,863.8583209998906,None,0.7639210000634193,864.6546288998798,None,865.1658836007118,None,865.1658836007118,None,n,0.040404800325632095,865.1658836007118,None,0.040404800325632095,,,97 Silent,001,2022_Nov_22_1152,ProdSingRedoBetween,2021.2.3,59.93543758530538,
,,,,67,0,67,0,,,,,,,,,,,,,,,,,,,,,,867.3011541999876,None,,,,,,,,,,,,,,,,,youth,106,68,silent,new,null,865.7570181004703,None,865.7570181004703,None,1,0.9212254993617535,865.7570181004703,None,0.9212254993617535,866.7027093004435,None,867.2178674004972,None,867.2178674004972,None,n,0.05238450039178133,867.2178674004972,None,0.05238450039178133,,,97 Silent,001,2022_Nov_22_1152,ProdSingRedoBetween,2021.2.3,59.93543758530538,
,,,,68,0,68,0,,,,,,,,,,,,,,,,,,,,,,870.5043780002743,None,,,,,,,,,,,,,,,,,surface,143,69,silent,new,null,867.8052190002054,None,867.8052190002054,None,1,2.1049680998548865,867.8052190002054,None,2.1049680998548865,869.9440972004086,None,870.4544227002189,None,870.4544227002189,None,n,0.03177389968186617,870.4544227002189,None,0.03177389968186617,,,97 Silent,001,2022_Nov_22_1152,ProdSingRedoBetween,2021.2.3,59.93543758530538,
,,,,69,0,69,0,,,,,,,,,,,,,,,,,,,,,,873.9408927001059,None,,,,,,,,,,,,,,,,,addition,50,70,silent,old,blue,871.0184156000614,None,871.0184156000614,None,6,2.083717600442469,871.0184156000614,None,2.083717600442469,873.1237236000597,None,873.6330989999697,None,873.6330989999697,None,r,0.2852226998656988,873.6330989999697,None,0.2852226998656988,,,97 Silent,001,2022_Nov_22_1152,ProdSingRedoBetween,2021.2.3,59.93543758530538,
,,,,70,0,70,0,,,,,,,,,,,,,,,,,,,,,,878.0290530007333,None,,,,,,,,,,,,,,,,,answer,98,71,silent,new,null,874.4544310001656,None,874.4544310001656,None,6,2.759808899834752,874.4544310001656,None,2.759808899834752,877.2452071001753,None,877.7521395003423,None,877.7521395003423,None,r,0.24615260027348995,877.7521395003423,None,0.24615260027348995,,,97 Silent,001,2022_Nov_22_1152,ProdSingRedoBetween,2021.2.3,59.93543758530538,
,,,,71,0,71,0,,,,,,,,,,,,,,,,,,,,,,881.2316971998662,None,,,,,,,,,,,,,,,,,edition,65,72,silent,old,red,878.5358442002907,None,878.5358442002907,None,6,2.054390899837017,878.5358442002907,None,2.054390899837017,880.6164508005604,None,881.1317556006834,None,881.1317556006834,None,r,0.08246910013258457,881.1317556006834,None,0.08246910013258457,,,97 Silent,001,2022_Nov_22_1152,ProdSingRedoBetween,2021.2.3,59.93543758530538,
,,,,72,0,72,0,,,,,,,,,,,,,,,,,,,,,,883.9688435001299,None,,,,,,,,,,,,,,,,,provision,64,73,silent,old,red,881.7442968999967,None,881.7442968999967,None,1,1.5738967005163431,881.7442968999967,None,1.5738967005163431,883.3387233000249,None,883.8584675006568,None,883.8584675006568,None,n,0.0839150995016098,883.8584675006568,None,0.0839150995016098,,,97 Silent,001,2022_Nov_22_1152,ProdSingRedoBetween,2021.2.3,59.93543758530538,
,,,,73,0,73,0,,,,,,,,,,,,,,,,,,,,,,887.4379018004984,None,,,,,,,,,,,,,,,,,skill,86,74,silent,old,red,884.4816075004637,None,884.4816075004637,None,1,2.324617000296712,884.4816075004637,None,2.324617000296712,886.8395934998989,None,887.3560130000114,None,887.3560130000114,None,n,0.06616589985787868,887.3560130000114,None,0.06616589985787868,,,97 Silent,001,2022_Nov_22_1152,ProdSingRedoBetween,2021.2.3,59.93543758530538,
,,,,74,0,74,0,,,,,,,,,,,,,,,,,,,,,,889.5567797003314,None,,,,,,,,,,,,,,,,,right,90,75,silent,new,null,887.9437853004783,None,887.9437853004783,None,1,0.9584192996844649,887.9437853004783,None,0.9584192996844649,888.9239417007193,None,889.4252316001803,None,889.4252316001803,None,n,0.10906699951738119,889.4252316001803,None,0.10906699951738119,,,97 Silent,001,2022_Nov_22_1152,ProdSingRedoBetween,2021.2.3,59.93543758530538,
,,,,75,0,75,0,,,,,,,,,,,,,,,,,,,,,,891.861198800616,None,,,,,,,,,,,,,,,,,front,124,76,silent,new,null,890.0683760000393,None,890.0683760000393,None,1,0.593702900223434,890.0683760000393,None,0.593702900223434,890.6982406005263,None,891.2084138998762,None,891.2084138998762,None,n,0.629763999953866,891.2084138998762,None,0.629763999953866,,,97 Silent,001,2022_Nov_22_1152,ProdSingRedoBetween,2021.2.3,59.93543758530538,
,,,,76,0,76,0,,,,,,,,,,,,,,,,,,,,,,894.0275629004464,None,,,,,,,,,,,,,,,,,music,12,77,silent,old,yellow,892.3834621999413,None,892.3834621999413,None,1,0.8307352000847459,892.3834621999413,None,0.8307352000847459,893.2450101003051,None,893.7484010001644,None,893.7484010001644,None,n,0.24990850035101175,893.7484010001644,None,0.24990850035101175,,,97 Silent,001,2022_Nov_22_1152,ProdSingRedoBetween,2021.2.3,59.93543758530538,
,,,,77,0,77,0,,,,,,,,,,,,,,,,,,,,,,896.5970139000565,None,,,,,,,,,,,,,,,,,pancakes,163,78,silent,new,null,894.5285103004426,None,894.5285103004426,None,1,1.3817036002874374,894.5285103004426,None,1.3817036002874374,895.9331937003881,None,896.4486219007522,None,896.4486219007522,None,n,0.12560779973864555,896.4486219007522,None,0.12560779973864555,,,97 Silent,001,2022_Nov_22_1152,ProdSingRedoBetween,2021.2.3,59.93543758530538,
,,,,78,0,78,0,,,,,,,,,,,,,,,,,,,,,,900.9011490000412,None,,,,,,,,,,,,,,,,,cover,67,79,silent,old,red,897.1061581000686,None,897.1061581000686,None,1,3.180077100172639,897.1061581000686,None,3.180077100172639,900.3175301002339,None,900.8242994006723,None,900.8242994006723,None,n,0.06193380057811737,900.8242994006723,None,0.06193380057811737,,,97 Silent,001,2022_Nov_22_1152,ProdSingRedoBetween,2021.2.3,59.93543758530538,
,,,,79,0,79,0,,,,,,,,,,,,,,,,,,,,,,903.3201081007719,None,,,,,,,,,,,,,,,,,passage,36,80,silent,old,blue,901.409496200271,None,901.409496200271,None,1,1.1326197003945708,901.409496200271,None,1.1326197003945708,902.5706250006333,None,903.0699931001291,None,903.0699931001291,None,n,0.23215429950505495,903.0699931001291,None,0.23215429950505495,,,97 Silent,001,2022_Nov_22_1152,ProdSingRedoBetween,2021.2.3,59.93543758530538,
,,,,80,0,80,0,,,,,,,,,,,,,,,,,,,,,,905.1596512999386,None,,,,,,,,,,,,,,,,,straight,28,81,silent,old,yellow,903.8291017003357,None,903.8291017003357,None,1,0.6570397997274995,903.8291017003357,None,0.6570397997274995,904.5062362998724,None,905.0054687000811,None,905.0054687000811,None,n,0.1288658995181322,905.0054687000811,None,0.1288658995181322,,,97 Silent,001,2022_Nov_22_1152,ProdSingRedoBetween,2021.2.3,59.93543758530538,
,,,,81,0,81,0,,,,,,,,,,,,,,,,,,,,,,910.8279042001814,None,,,,,,,,,,,,,,,,,accident,56,82,silent,old,blue,905.6779156001285,None,905.6779156001285,None,6,4.280325300060213,905.6779156001285,None,4.280325300060213,909.9779676999897,None,910.4779013004154,None,910.4779013004154,None,r,0.32026090007275343,910.4779013004154,None,0.32026090007275343,,,97 Silent,001,2022_Nov_22_1152,ProdSingRedoBetween,2021.2.3,59.93543758530538,
,,,,82,0,82,0,,,,,,,,,,,,,,,,,,,,,,913.3470990005881,None,,,,,,,,,,,,,,,,,goose,38,83,silent,old,blue,911.3404311006889,None,911.3404311006889,None,6,1.4497370002791286,911.3404311006889,None,1.4497370002791286,912.814546700567,None,913.3138634003699,None,913.3138634003699,None,r,0.012311800383031368,913.3138634003699,None,0.012311800383031368,,,97 Silent,001,2022_Nov_22_1152,ProdSingRedoBetween,2021.2.3,59.93543758530538,
,,,,83,0,83,0,,,,,,,,,,,,,,,,,,,,,,915.5325835002586,None,,,,,,,,,,,,,,,,,subject,100,84,silent,new,null,913.8567155003548,None,913.8567155003548,None,6,1.0374568002298474,913.8567155003548,None,1.0374568002298474,914.9170148000121,None,915.4326324006543,None,915.4326324006543,None,r,0.07757349964231253,915.4326324006543,None,0.07757349964231253,,,97 Silent,001,2022_Nov_22_1152,ProdSingRedoBetween,2021.2.3,59.93543758530538,
,,,,84,0,84,0,,,,,,,,,,,,,,,,,,,,,,918.1350084999576,None,,,,,,,,,,,,,,,,,place,1,85,silent,old,yellow,916.041453900747,None,916.041453900747,None,6,1.4285685000941157,916.041453900747,None,1.4285685000941157,917.4892893005162,None,918.0017562005669,None,918.0017562005669,None,r,0.11630479991436005,918.0017562005669,None,0.11630479991436005,,,97 Silent,001,2022_Nov_22_1152,ProdSingRedoBetween,2021.2.3,59.93543758530538,
,,,,85,0,85,0,,,,,,,,,,,,,,,,,,,,,,921.4549707006663,None,,,,,,,,,,,,,,,,,marriage,118,86,silent,new,null,918.6359811006114,None,918.6359811006114,None,1,1.9060783004388213,918.6359811006114,None,1.9060783004388213,920.5834587002173,None,921.0879231998697,None,921.0879231998697,None,n,0.35017829947173595,921.0879231998697,None,0.35017829947173595,,,97 Silent,001,2022_Nov_22_1152,ProdSingRedoBetween,2021.2.3,59.93543758530538,
,,,,86,0,86,0,,,,,,,,,,,,,,,,,,,,,,924.0744626000524,None,,,,,,,,,,,,,,,,,private,94,87,silent,new,null,921.9603458000347,None,921.9603458000347,None,1,1.3818215997889638,921.9603458000347,None,1.3818215997889638,923.3597145006061,None,923.8758312007412,None,923.8758312007412,None,n,0.17039860039949417,923.8758312007412,None,0.17039860039949417,,,97 Silent,001,2022_Nov_22_1152,ProdSingRedoBetween,2021.2.3,59.93543758530538,
,,,,87,0,87,0,,,,,,,,,,,,,,,,,,,,,,926.6936552003026,None,,,,,,,,,,,,,,,,,birth,119,88,silent,new,null,924.583160600625,None,924.583160600625,None,1,0.9349695993587375,924.583160600625,None,0.9349695993587375,925.5452034007758,None,926.059818200767,None,926.059818200767,None,n,0.6183334998786449,926.059818200767,None,0.6183334998786449,,,97 Silent,001,2022_Nov_22_1152,ProdSingRedoBetween,2021.2.3,59.93543758530538,
,,,,88,0,88,0,,,,,,,,,,,,,,,,,,,,,,931.398304800503,None,,,,,,,,,,,,,,,,,damage,151,89,silent,new,null,927.1955484999344,None,927.1955484999344,None,6,3.4025205997750163,927.1955484999344,None,3.4025205997750163,930.6145419999957,None,931.1148512000218,None,931.1148512000218,None,r,0.2671973006799817,931.1148512000218,None,0.2671973006799817,,,97 Silent,001,2022_Nov_22_1152,ProdSingRedoBetween,2021.2.3,59.93543758530538,
,,,,89,0,89,0,,,,,,,,,,,,,,,,,,,,,,938.2051957007498,None,,,,,,,,,,,,,,,,,guide,87,90,silent,old,red,931.9034558003768,None,931.9034558003768,None,1,3.862904599867761,931.9034558003768,None,3.862904599867761,935.7878924999386,None,936.3033099006861,None,936.3033099006861,None,f,1.8788568004965782,936.3033099006861,None,1.8788568004965782,,,97 Silent,001,2022_Nov_22_1152,ProdSingRedoBetween,2021.2.3,59.93543758530538,
,,,,90,0,90,0,,,,,,,,,,,,,,,,,,,,,,943.4121390003711,None,,,,,,,,,,,,,,,,,thing,46,91,silent,old,blue,938.7140649007633,None,938.7140649007633,None,1,3.77207800000906,938.7140649007633,None,3.77207800000906,942.5091749001294,None,943.0101275006309,None,943.0101275006309,None,n,0.3720202995464206,943.0101275006309,None,0.3720202995464206,,,97 Silent,001,2022_Nov_22_1152,ProdSingRedoBetween,2021.2.3,59.93543758530538,
,,,,91,0,91,0,,,,,,,,,,,,,,,,,,,,,,946.1635427000001,None,,,,,,,,,,,,,,,,,colonel,177,92,silent,new,null,943.9391239006072,None,943.9391239006072,None,1,1.4110100995749235,943.9391239006072,None,1.4110100995749235,945.3804908003658,None,945.8796652005985,None,945.8796652005985,None,n,0.26247920002788305,945.8796652005985,None,0.26247920002788305,,,97 Silent,001,2022_Nov_22_1152,ProdSingRedoBetween,2021.2.3,59.93543758530538,
,,,,92,0,92,0,,,,,,,,,,,,,,,,,,,,,,950.2854917002842,None,,,,,,,,,,,,,,,,,point,155,93,silent,new,null,946.667139400728,None,946.667139400728,None,4,2.970989200286567,946.667139400728,None,2.970989200286567,949.6674095001072,None,950.1669514002278,None,950.1669514002278,None,f,0.08703990001231432,950.1669514002278,None,0.08703990001231432,,,97 Silent,001,2022_Nov_22_1152,ProdSingRedoBetween,2021.2.3,59.93543758530538,
,,,,93,0,93,0,,,,,,,,,,,,,,,,,,,,,,952.922094900161,None,,,,,,,,,,,,,,,,,center,73,94,silent,old,red,950.8010901007801,None,950.8010901007801,None,1,1.3170077996328473,950.8010901007801,None,1.3170077996328473,952.1425042999908,None,952.6544802002609,None,952.6544802002609,None,n,0.2395617999136448,952.6544802002609,None,0.2395617999136448,,,97 Silent,001,2022_Nov_22_1152,ProdSingRedoBetween,2021.2.3,59.93543758530538,
,,,,94,0,94,0,,,,,,,,,,,,,,,,,,,,,,959.0644463999197,None,,,,,,,,,,,,,,,,,question,162,95,silent,new,null,953.4406874999404,None,953.4406874999404,None,1,4.8214250998571515,953.4406874999404,None,4.8214250998571515,958.2937473999336,None,958.8114009005949,None,958.8114009005949,None,n,0.22691689990460873,958.8114009005949,None,0.22691689990460873,,,97 Silent,001,2022_Nov_22_1152,ProdSingRedoBetween,2021.2.3,59.93543758530538,
,,,,95,0,95,0,,,,,,,,,,,,,,,,,,,,,,961.5784791000187,None,,,,,,,,,,,,,,,,,route,33,96,silent,old,blue,959.5821118000895,None,959.5821118000895,None,1,1.3039905996993184,959.5821118000895,None,1.3039905996993184,960.9109264006838,None,961.4156019007787,None,961.4156019007787,None,n,0.1425085999071598,961.4156019007787,None,0.1425085999071598,,,97 Silent,001,2022_Nov_22_1152,ProdSingRedoBetween,2021.2.3,59.93543758530538,
,,,,96,0,96,0,,,,,,,,,,,,,,,,,,,,,,965.1152969002724,None,,,,,,,,,,,,,,,,,opening,41,97,silent,old,blue,962.0903428001329,None,962.0903428001329,None,1,2.4437682004645467,962.0903428001329,None,2.4437682004645467,964.573447400704,None,965.0821195002645,None,965.0821195002645,None,n,0.01182509958744049,965.0821195002645,None,0.01182509958744049,,,97 Silent,001,2022_Nov_22_1152,ProdSingRedoBetween,2021.2.3,59.93543758530538,
,,,,97,0,97,0,,,,,,,,,,,,,,,,,,,,,,968.7690556999296,None,,,,,,,,,,,,,,,,,bicycle,3,98,silent,old,yellow,965.6161815999076,None,965.6161815999076,None,6,2.293879999779165,965.6161815999076,None,2.293879999779165,967.9409457007423,None,968.4592126002535,None,968.4592126002535,None,r,0.2827725997194648,968.4592126002535,None,0.2827725997194648,,,97 Silent,001,2022_Nov_22_1152,ProdSingRedoBetween,2021.2.3,59.93543758530538,
,,,,98,0,98,0,,,,,,,,,,,,,,,,,,,,,,971.2726859999821,None,,,,,,,,,,,,,,,,,citizen,2,99,silent,old,yellow,969.27739199996,None,969.27739199996,None,1,1.2966841999441385,969.27739199996,None,1.2966841999441385,970.6060426998883,None,971.1222105007619,None,971.1222105007619,None,n,0.13190849963575602,971.1222105007619,None,0.13190849963575602,,,97 Silent,001,2022_Nov_22_1152,ProdSingRedoBetween,2021.2.3,59.93543758530538,
,,,,99,0,99,0,,,,,,,,,,,,,,,,,,,,,,974.4244257006794,None,,,,,,,,,,,,,,,,,breath,62,100,silent,old,red,971.776638600044,None,971.776638600044,None,6,1.7973411995917559,971.776638600044,None,1.7973411995917559,973.5917651001364,None,974.0931168999523,None,974.0931168999523,None,r,0.3049566997215152,974.0931168999523,None,0.3049566997215152,,,97 Silent,001,2022_Nov_22_1152,ProdSingRedoBetween,2021.2.3,59.93543758530538,
,,,,100,0,100,0,,,,,,,,,,,,,,,,,,,,,,976.8770519001409,None,,,,,,,,,,,,,,,,,month,102,101,silent,new,null,974.9289672002196,None,974.9289672002196,None,1,1.2771630994975567,974.9289672002196,None,1.2771630994975567,976.2309477003291,None,976.7479015002027,None,976.7479015002027,None,n,0.09816240053623915,976.7479015002027,None,0.09816240053623915,,,97 Silent,001,2022_Nov_22_1152,ProdSingRedoBetween,2021.2.3,59.93543758530538,
,,,,101,0,101,0,,,,,,,,,,,,,,,,,,,,,,980.1968459002674,None,,,,,,,,,,,,,,,,,character,74,102,silent,old,red,977.3824693001807,None,977.3824693001807,None,1,2.1436524000018835,977.3824693001807,None,2.1436524000018835,979.5510807000101,None,980.0684038000181,None,980.0684038000181,None,n,0.10554089955985546,980.0684038000181,None,0.10554089955985546,,,97 Silent,001,2022_Nov_22_1152,ProdSingRedoBetween,2021.2.3,59.93543758530538,
,,,,102,0,102,0,,,,,,,,,,,,,,,,,,,,,,982.1655468000099,None,,,,,,,,,,,,,,,,,narrow,60,103,silent,old,red,980.7010269006714,None,980.7010269006714,None,1,0.8009005002677441,980.7010269006714,None,0.8009005002677441,981.5314734000713,None,982.0320572005585,None,982.0320572005585,None,n,0.1019294997677207,982.0320572005585,None,0.1019294997677207,,,97 Silent,001,2022_Nov_22_1152,ProdSingRedoBetween,2021.2.3,59.93543758530538,
,,,,103,0,103,0,,,,,,,,,,,,,,,,,,,,,,984.3402235005051,None,,,,,,,,,,,,,,,,,crisis,141,104,silent,new,null,982.676125000231,None,982.676125000231,None,1,1.025857599452138,982.676125000231,None,1.025857599452138,983.7186668002978,None,984.2344510005787,None,984.2344510005787,None,n,0.08349629957228899,984.2344510005787,None,0.08349629957228899,,,97 Silent,001,2022_Nov_22_1152,ProdSingRedoBetween,2021.2.3,59.93543758530538,
,,,,104,0,104,0,,,,,,,,,,,,,,,,,,,,,,986.8205080004409,None,,,,,,,,,,,,,,,,,season,51,105,silent,old,blue,984.8586082998663,None,984.8586082998663,None,1,1.363366600126028,984.8586082998663,None,1.363366600126028,986.253048799932,None,986.7562442999333,None,986.7562442999333,None,n,0.033699299208819866,986.7562442999333,None,0.033699299208819866,,,97 Silent,001,2022_Nov_22_1152,ProdSingRedoBetween,2021.2.3,59.93543758530538,
,,,,105,0,105,0,,,,,,,,,,,,,,,,,,,,,,990.8586344001815,None,,,,,,,,,,,,,,,,,budget,7,106,silent,old,yellow,987.32103820052,None,987.32103820052,None,6,2.140932699665427,987.32103820052,None,2.140932699665427,989.4894071007147,None,989.9943452998996,None,989.9943452998996,None,f,0.8357437998056412,989.9943452998996,None,0.8357437998056412,,,97 Silent,001,2022_Nov_22_1152,ProdSingRedoBetween,2021.2.3,59.93543758530538,
,,,,106,0,106,0,,,,,,,,,,,,,,,,,,,,,,993.6632238999009,None,,,,,,,,,,,,,,,,,height,167,107,silent,new,null,991.3628555005416,None,991.3628555005416,None,1,1.7151585994288325,991.3628555005416,None,1.7151585994288325,993.0935319000855,None,993.5939469002187,None,993.5939469002187,None,n,0.044234699569642544,993.5939469002187,None,0.044234699569642544,,,97 Silent,001,2022_Nov_22_1152,ProdSingRedoBetween,2021.2.3,59.93543758530538,
,,,,107,0,107,0,,,,,,,,,,,,,,,,,,,,,,998.3650353001431,None,,,,,,,,,,,,,,,,,health,76,108,silent,old,red,994.1807705005631,None,994.1807705005631,None,1,1.921305600553751,994.1807705005631,None,1.921305600553751,996.1344201005995,None,996.6506713004783,None,996.6506713004783,None,f,1.6914518000558019,996.6506713004783,None,1.6914518000558019,,,97 Silent,001,2022_Nov_22_1152,ProdSingRedoBetween,2021.2.3,59.93543758530538,
,,,,108,0,108,0,,,,,,,,,,,,,,,,,,,,,,1000.835764599964,None,,,,,,,,,,,,,,,,,council,168,109,silent,new,null,998.8722288003191,None,998.8722288003191,None,1,1.0777187999337912,998.8722288003191,None,1.0777187999337912,999.9668260999024,None,1000.4671680005267,None,1000.4671680005267,None,n,0.3389173997566104,1000.4671680005267,None,0.3389173997566104,,,97 Silent,001,2022_Nov_22_1152,ProdSingRedoBetween,2021.2.3,59.93543758530538,
,,,,109,0,109,0,,,,,,,,,,,,,,,,,,,,,,1004.3044529007748,None,,,,,,,,,,,,,,,,,relation,11,110,silent,old,yellow,1001.3564670002088,None,1001.3564670002088,None,6,2.161662000231445,1001.3564670002088,None,2.161662000231445,1003.5377234006301,None,1004.0374892000109,None,1004.0374892000109,None,r,0.24857689999043941,1004.0374892000109,None,0.24857689999043941,,,97 Silent,001,2022_Nov_22_1152,ProdSingRedoBetween,2021.2.3,59.93543758530538,
,,,,110,0,110,0,,,,,,,,,,,,,,,,,,,,,,1009.1089091999456,None,,,,,,,,,,,,,,,,,company,164,111,silent,new,null,1004.8153264001012,None,1004.8153264001012,None,6,3.614700200036168,1004.8153264001012,None,3.614700200036168,1008.4612867999822,None,1008.9756439002231,None,1008.9756439002231,None,f,0.10223069973289967,1008.9756439002231,None,0.10223069973289967,,,97 Silent,001,2022_Nov_22_1152,ProdSingRedoBetween,2021.2.3,59.93543758530538,
,,,,111,0,111,0,,,,,,,,,,,,,,,,,,,,,,1014.7480271002278,None,,,,,,,,,,,,,,,,,owner,112,112,silent,new,null,1009.6198046002537,None,1009.6198046002537,None,1,3.7302094995975494,1009.6198046002537,None,3.7302094995975494,1013.3812269000337,None,1013.8857479002327,None,1013.8857479002327,None,n,0.8322660000994802,1013.8857479002327,None,0.8322660000994802,,,97 Silent,001,2022_Nov_22_1152,ProdSingRedoBetween,2021.2.3,59.93543758530538,
,,,,112,0,112,0,,,,,,,,,,,,,,,,,,,,,,1017.1518164006993,None,,,,,,,,,,,,,,,,,orchestra,93,113,silent,new,null,1015.2541352007538,None,1015.2541352007538,None,1,1.2797755999490619,1015.2541352007538,None,1.2797755999490619,1016.5498545998707,None,1017.0545830000192,None,1017.0545830000192,None,n,0.07163130026310682,1017.0545830000192,None,0.07163130026310682,,,97 Silent,001,2022_Nov_22_1152,ProdSingRedoBetween,2021.2.3,59.93543758530538,
,,,,113,0,113,0,,,,,,,,,,,,,,,,,,,,,,1021.2544578006491,None,,,,,,,,,,,,,,,,,commercial,69,114,silent,old,red,1017.6581204002723,None,1017.6581204002723,None,5,2.6038508992642164,1017.6581204002723,None,2.6038508992642164,1020.2887957002968,None,1020.8043282004073,None,1020.8043282004073,None,f,0.433585699647665,1020.8043282004073,None,0.433585699647665,,,97 Silent,001,2022_Nov_22_1152,ProdSingRedoBetween,2021.2.3,59.93543758530538,
,,,,114,0,114,0,,,,,,,,,,,,,,,,,,,,,,1023.7760209999979,None,,,,,,,,,,,,,,,,,brilliant,142,115,silent,new,null,1021.7555407006294,None,1021.7555407006294,None,1,1.1704323003068566,1021.7555407006294,None,1.1704323003068566,1022.9572692001238,None,1023.4628071002662,None,1023.4628071002662,None,n,0.28723130002617836,1023.4628071002662,None,0.28723130002617836,,,97 Silent,001,2022_Nov_22_1152,ProdSingRedoBetween,2021.2.3,59.93543758530538,
,,,,115,0,115,0,,,,,,,,,,,,,,,,,,,,,,1027.7110946001485,None,,,,,,,,,,,,,,,,,income,121,116,silent,new,null,1024.2913326006383,None,1024.2913326006383,None,1,2.6427103001624346,1024.2913326006383,None,2.6427103001624346,1026.9614164000377,None,1027.464756499976,None,1027.464756499976,None,n,0.22131340019404888,1027.464756499976,None,0.22131340019404888,,,97 Silent,001,2022_Nov_22_1152,ProdSingRedoBetween,2021.2.3,59.93543758530538,
,,,,116,0,116,0,,,,,,,,,,,,,,,,,,,,,,1031.1478416007012,None,,,,,,,,,,,,,,,,,frank,72,117,silent,old,red,1028.2250688001513,None,1028.2250688001513,None,6,2.06082300003618,1028.2250688001513,None,2.06082300003618,1030.3154803998768,None,1030.8370023006573,None,1030.8370023006573,None,r,0.2889615995809436,1030.8370023006573,None,0.2889615995809436,,,97 Silent,001,2022_Nov_22_1152,ProdSingRedoBetween,2021.2.3,59.93543758530538,
,,,,117,0,117,0,,,,,,,,,,,,,,,,,,,,,,1033.6546860001981,None,,,,,,,,,,,,,,,,,short,149,118,silent,new,null,1031.656215700321,None,1031.656215700321,None,1,1.3577553993090987,1031.656215700321,None,1.3577553993090987,1033.0342792002484,None,1033.5411159005016,None,1033.5411159005016,None,n,0.0891977995634079,1033.5411159005016,None,0.0891977995634079,,,97 Silent,001,2022_Nov_22_1152,ProdSingRedoBetween,2021.2.3,59.93543758530538,
,,,,118,0,118,0,,,,,,,,,,,,,,,,,,,,,,1037.0036913007498,None,,,,,,,,,,,,,,,,,capital,0,119,silent,old,yellow,1034.174709400162,None,1034.174709400162,None,6,1.9832802005112171,1034.174709400162,None,1.9832802005112171,1036.188145100139,None,1036.7035536998883,None,1036.7035536998883,None,r,0.27039690036326647,1036.7035536998883,None,0.27039690036326647,,,97 Silent,001,2022_Nov_22_1152,ProdSingRedoBetween,2021.2.3,59.93543758530538,
,,,,119,0,119,0,,,,,,,,,,,,,,,,,,,,,,1039.3393371999264,None,,,,,,,,,,,,,,,,,listen,4,120,silent,old,yellow,1037.5155789004639,None,1037.5155789004639,None,1,1.250360899604857,1037.5155789004639,None,1.250360899604857,1038.790270300582,None,1039.2939022006467,None,1039.2939022006467,None,n,0.024030600674450397,1039.2939022006467,None,0.024030600674450397,,,97 Silent,001,2022_Nov_22_1152,ProdSingRedoBetween,2021.2.3,59.93543758530538,
,,,,120,0,120,0,,,,,,,,,,,,,,,,,,,,,,1043.259893500246,None,,,,,,,,,,,,,,,,,crowd,113,121,silent,new,null,1039.8517346000299,None,1039.8517346000299,None,4,2.498193700797856,1039.8517346000299,None,2.498193700797856,1042.377952599898,None,1042.897332300432,None,1042.897332300432,None,f,0.3405251996591687,1042.897332300432,None,0.3405251996591687,,,97 Silent,001,2022_Nov_22_1152,ProdSingRedoBetween,2021.2.3,59.93543758530538,
,,,,121,0,121,0,,,,,,,,,,,,,,,,,,,,,,1045.9650346999988,None,,,,,,,,,,,,,,,,,style,173,122,silent,new,null,1043.7763048000634,None,1043.7763048000634,None,1,1.517578599974513,1043.7763048000634,None,1.517578599974513,1045.3130625998601,None,1045.8126151999459,None,1045.8126151999459,None,n,0.12922830041497946,1045.8126151999459,None,0.12922830041497946,,,97 Silent,001,2022_Nov_22_1152,ProdSingRedoBetween,2021.2.3,59.93543758530538,
,,,,122,0,122,0,,,,,,,,,,,,,,,,,,,,,,1048.0313643999398,None,,,,,,,,,,,,,,,,,author,137,123,silent,new,null,1046.4922152999789,None,1046.4922152999789,None,1,0.8737158998847008,1046.4922152999789,None,0.8737158998847008,1047.3833608999848,None,1047.8979935003445,None,1047.8979935003445,None,n,0.11617009993642569,1047.8979935003445,None,0.11617009993642569,,,97 Silent,001,2022_Nov_22_1152,ProdSingRedoBetween,2021.2.3,59.93543758530538,
,,,,123,0,123,0,,,,,,,,,,,,,,,,,,,,,,1049.901607000269,None,,,,,,,,,,,,,,,,,watch,99,124,silent,new,null,1048.5316933998838,None,1048.5316933998838,None,1,0.7622288996353745,1048.5316933998838,None,0.7622288996353745,1049.3174363998696,None,1049.8330117007717,None,1049.8330117007717,None,n,0.044867600314319134,1049.8330117007717,None,0.044867600314319134,,,97 Silent,001,2022_Nov_22_1152,ProdSingRedoBetween,2021.2.3,59.93543758530538,
,,,,124,0,124,0,,,,,,,,,,,,,,,,,,,,,,1054.439236400649,None,,,,,,,,,,,,,,,,,session,104,125,silent,new,null,1050.4248911999166,None,1050.4248911999166,None,6,2.197264600545168,1050.4248911999166,None,2.197264600545168,1052.6607696004212,None,1053.1721429005265,None,1053.1721429005265,None,r,1.2418334996327758,1053.1721429005265,None,1.2418334996327758,,,97 Silent,001,2022_Nov_22_1152,ProdSingRedoBetween,2021.2.3,59.93543758530538,
,,,,125,0,125,0,,,,,,,,,,,,,,,,,,,,,,1057.040409900248,None,,,,,,,,,,,,,,,,,surprise,153,126,silent,new,null,1054.9610617998987,None,1054.9610617998987,None,1,1.164851900190115,1054.9610617998987,None,1.164851900190115,1056.157654600218,None,1056.6645007999614,None,1056.6645007999614,None,n,0.35737490002065897,1056.6645007999614,None,0.35737490002065897,,,97 Silent,001,2022_Nov_22_1152,ProdSingRedoBetween,2021.2.3,59.93543758530538,
,,,,126,0,126,0,,,,,,,,,,,,,,,,,,,,,,1059.843217600137,None,,,,,,,,,,,,,,,,,harmony,123,127,silent,new,null,1057.5470257000998,None,1057.5470257000998,None,1,1.4908932000398636,1057.5470257000998,None,1.4908932000398636,1059.0612448006868,None,1059.576360700652,None,1059.576360700652,None,n,0.24565819930285215,1059.576360700652,None,0.24565819930285215,,,97 Silent,001,2022_Nov_22_1152,ProdSingRedoBetween,2021.2.3,59.93543758530538,
,,,,127,0,127,0,,,,,,,,,,,,,,,,,,,,,,1062.3121337005869,None,,,,,,,,,,,,,,,,,poetry,154,128,silent,new,null,1060.3594821002334,None,1060.3594821002334,None,1,1.0385735994204879,1060.3594821002334,None,1.0385735994204879,1061.4310915004462,None,1061.9453498004004,None,1061.9453498004004,None,n,0.3406312996521592,1061.9453498004004,None,0.3406312996521592,,,97 Silent,001,2022_Nov_22_1152,ProdSingRedoBetween,2021.2.3,59.93543758530538,
,,,,128,0,128,0,,,,,,,,,,,,,,,,,,,,,,1064.4143463000655,None,,,,,,,,,,,,,,,,,express,148,129,silent,new,null,1062.8236584002152,None,1062.8236584002152,None,1,0.7182525005191565,1062.8236584002152,None,0.7182525005191565,1063.566895400174,None,1064.0858738999814,None,1064.0858738999814,None,n,0.3120055003091693,1064.0858738999814,None,0.3120055003091693,,,97 Silent,001,2022_Nov_22_1152,ProdSingRedoBetween,2021.2.3,59.93543758530538,
,,,,129,0,129,0,,,,,,,,,,,,,,,,,,,,,,1066.8001634003595,None,,,,,,,,,,,,,,,,,report,23,130,silent,old,yellow,1064.918470500037,None,1064.918470500037,None,1,0.9114316999912262,1064.918470500037,None,0.9114316999912262,1065.8503645006567,None,1066.3497411999851,None,1066.3497411999851,None,n,0.4321292005479336,1066.3497411999851,None,0.4321292005479336,,,97 Silent,001,2022_Nov_22_1152,ProdSingRedoBetween,2021.2.3,59.93543758530538,
,,,,130,0,130,0,,,,,,,,,,,,,,,,,,,,,,1069.0022536003962,None,,,,,,,,,,,,,,,,,husband,161,131,silent,new,null,1067.305024500005,None,1067.305024500005,None,1,0.8287692004814744,1067.305024500005,None,0.8287692004814744,1068.1535697001964,None,1068.6827802006155,None,1068.6827802006155,None,n,0.2911261999979615,1068.6827802006155,None,0.2911261999979615,,,97 Silent,001,2022_Nov_22_1152,ProdSingRedoBetween,2021.2.3,59.93543758530538,
,,,,131,0,131,0,,,,,,,,,,,,,,,,,,,,,,1071.0226364005357,None,,,,,,,,,,,,,,,,,military,135,132,silent,new,null,1069.5151324998587,None,1069.5151324998587,None,1,0.778668399900198,1069.5151324998587,None,0.778668399900198,1070.3223726004362,None,1070.8375318003818,None,1070.8375318003818,None,n,0.1683928007259965,1070.8375318003818,None,0.1683928007259965,,,97 Silent,001,2022_Nov_22_1152,ProdSingRedoBetween,2021.2.3,59.93543758530538,
,,,,132,0,132,0,,,,,,,,,,,,,,,,,,,,,,1074.841357100755,None,,,,,,,,,,,,,,,,,display,170,133,silent,new,null,1071.5381378000602,None,1071.5381378000602,None,1,2.627756799571216,1071.5381378000602,None,2.627756799571216,1074.1923782005906,None,1074.7079019006342,None,1074.7079019006342,None,n,0.10590839944779873,1074.7079019006342,None,0.10590839944779873,,,97 Silent,001,2022_Nov_22_1152,ProdSingRedoBetween,2021.2.3,59.93543758530538,
,,,,133,0,133,0,,,,,,,,,,,,,,,,,,,,,,1076.9473764002323,None,,,,,,,,,,,,,,,,,distance,44,134,silent,old,blue,1075.352022900246,None,1075.352022900246,None,1,0.9259511008858681,1075.352022900246,None,0.9259511008858681,1076.2944544004276,None,1076.8050712002441,None,1076.8050712002441,None,n,0.11288280040025711,1076.8050712002441,None,0.11288280040025711,,,97 Silent,001,2022_Nov_22_1152,ProdSingRedoBetween,2021.2.3,59.93543758530538,
,,,,134,0,134,0,,,,,,,,,,,,,,,,,,,,,,1079.8630347000435,None,,,,,,,,,,,,,,,,,attack,125,135,silent,new,null,1077.4706616001204,None,1077.4706616001204,None,6,1.7671126006171107,1077.4706616001204,None,1.7671126006171107,1079.26247780025,None,1079.7670360999182,None,1079.7670360999182,None,r,0.07097350060939789,1079.7670360999182,None,0.07097350060939789,,,97 Silent,001,2022_Nov_22_1152,ProdSingRedoBetween,2021.2.3,59.93543758530538,
,,,,135,0,135,0,,,,,,,,,,,,,,,,,,,,,,1082.6659262003377,None,,,,,,,,,,,,,,,,,object,13,136,silent,old,yellow,1080.3701251000166,None,1080.3701251000166,None,1,1.4356523007154465,1080.3701251000166,None,1.4356523007154465,1081.83572610002,None,1082.3490142002702,None,1082.3490142002702,None,n,0.2969861002638936,1082.3490142002702,None,0.2969861002638936,,,97 Silent,001,2022_Nov_22_1152,ProdSingRedoBetween,2021.2.3,59.93543758530538,
,,,,136,0,136,0,,,,,,,,,,,,,,,,,,,,,,1084.5010743001476,None,,,,,,,,,,,,,,,,,candidate,138,137,silent,new,null,1083.1788440002128,None,1083.1788440002128,None,1,0.6990216001868248,1083.1788440002128,None,0.6990216001868248,1083.9022484002635,None,1084.4213696001098,None,1084.4213696001098,None,n,0.06441800016909838,1084.4213696001098,None,0.06441800016909838,,,97 Silent,001,2022_Nov_22_1152,ProdSingRedoBetween,2021.2.3,59.93543758530538,
,,,,137,0,137,0,,,,,,,,,,,,,,,,,,,,,,1086.9535261001438,None,,,,,,,,,,,,,,,,,childhood,77,138,silent,old,red,1085.0095021007583,None,1085.0095021007583,None,1,1.3322670999914408,1085.0095021007583,None,1.3322670999914408,1086.3718604007736,None,1086.8909512003884,None,1086.8909512003884,None,n,0.03483849950134754,1086.8909512003884,None,0.03483849950134754,,,97 Silent,001,2022_Nov_22_1152,ProdSingRedoBetween,2021.2.3,59.93543758530538,
,,,,138,0,138,0,,,,,,,,,,,,,,,,,,,,,,1089.2080276003107,None,,,,,,,,,,,,,,,,,primary,55,139,silent,old,blue,1087.4681939007714,None,1087.4681939007714,None,1,0.7776555996388197,1087.4681939007714,None,0.7776555996388197,1088.273551600054,None,1088.788849200122,None,1088.788849200122,None,n,0.3930857004597783,1088.788849200122,None,0.3930857004597783,,,97 Silent,001,2022_Nov_22_1152,ProdSingRedoBetween,2021.2.3,59.93543758530538,
,,,,139,0,139,0,,,,,,,,,,,,,,,,,,,,,,1091.5914854006842,None,,,,,,,,,,,,,,,,,order,40,140,silent,old,blue,1089.7391363000497,None,1089.7391363000497,None,1,1.2667260002344847,1089.7391363000497,None,1.2667260002344847,1091.0253590000793,None,1091.5307442005724,None,1091.5307442005724,None,n,0.0430442001670599,1091.5307442005724,None,0.0430442001670599,,,97 Silent,001,2022_Nov_22_1152,ProdSingRedoBetween,2021.2.3,59.93543758530538,
,,,,140,0,140,0,,,,,,,,,,,,,,,,,,,,,,1097.8676118003204,None,,,,,,,,,,,,,,,,,education,160,141,silent,new,null,1092.1035200003535,None,1092.1035200003535,None,4,4.894327599555254,1092.1035200003535,None,4.894327599555254,1097.020359000191,None,1097.532975600101,None,1097.532975600101,None,f,0.30501020047813654,1097.532975600101,None,0.30501020047813654,,,97 Silent,001,2022_Nov_22_1152,ProdSingRedoBetween,2021.2.3,59.93543758530538,
,,,,141,0,141,0,,,,,,,,,,,,,,,,,,,,,,1100.5000859005377,None,,,,,,,,,,,,,,,,,fight,169,142,silent,new,null,1098.388341200538,None,1098.388341200538,None,1,1.217463799752295,1098.388341200538,None,1.217463799752295,1099.6325266007334,None,1100.136829400435,None,1100.136829400435,None,n,0.332919099368155,1100.136829400435,None,0.332919099368155,,,97 Silent,001,2022_Nov_22_1152,ProdSingRedoBetween,2021.2.3,59.93543758530538,
,,,,142,0,142,0,,,,,,,,,,,,,,,,,,,,,,1103.203104200773,None,,,,,,,,,,,,,,,,,device,152,143,silent,new,null,1101.0034481007606,None,1101.0034481007606,None,1,1.3704220997169614,1101.0034481007606,None,1.3704220997169614,1102.4050008999184,None,1102.919618700631,None,1102.919618700631,None,n,0.2542874999344349,1102.919618700631,None,0.2542874999344349,,,97 Silent,001,2022_Nov_22_1152,ProdSingRedoBetween,2021.2.3,59.93543758530538,
,,,,143,0,143,0,,,,,,,,,,,,,,,,,,,,,,1105.7222791006789,None,,,,,,,,,,,,,,,,,growth,35,144,silent,old,blue,1103.7120123002678,None,1103.7120123002678,None,1,1.2697195000946522,1103.7120123002678,None,1.2697195000946522,1105.0075845001265,None,1105.5218911003321,None,1105.5218911003321,None,n,0.1719611994922161,1105.5218911003321,None,0.1719611994922161,,,97 Silent,001,2022_Nov_22_1152,ProdSingRedoBetween,2021.2.3,59.93543758530538,
,,,,144,0,144,0,,,,,,,,,,,,,,,,,,,,,,1108.0909748999402,None,,,,,,,,,,,,,,,,,scale,108,145,silent,new,null,1106.228154500015,None,1106.228154500015,None,1,0.7536907000467181,1106.228154500015,None,0.7536907000467181,1107.0068361004815,None,1107.511310200207,None,1107.511310200207,None,n,0.5584599999710917,1107.511310200207,None,0.5584599999710917,,,97 Silent,001,2022_Nov_22_1152,ProdSingRedoBetween,2021.2.3,59.93543758530538,
,,,,145,0,145,0,,,,,,,,,,,,,,,,,,,,,,1110.0095199001953,None,,,,,,,,,,,,,,,,,command,58,146,silent,old,blue,1108.5930707007647,None,1108.5930707007647,None,1,0.7726910002529621,1108.5930707007647,None,0.7726910002529621,1109.393885800615,None,1109.8932753000408,None,1109.8932753000408,None,n,0.08851230051368475,1109.8932753000408,None,0.08851230051368475,,,97 Silent,001,2022_Nov_22_1152,ProdSingRedoBetween,2021.2.3,59.93543758530538,
,,,,146,0,146,0,,,,,,,,,,,,,,,,,,,,,,1113.129665600136,None,,,,,,,,,,,,,,,,,crime,84,147,silent,old,red,1110.5163766006008,None,1110.5163766006008,None,1,0.7214392004534602,1110.5163766006008,None,0.7214392004534602,1111.26232060045,None,1111.7617450999096,None,1111.7617450999096,None,f,1.3480748999863863,1111.7617450999096,None,1.3480748999863863,,,97 Silent,001,2022_Nov_22_1152,ProdSingRedoBetween,2021.2.3,59.93543758530538,
,,,,147,0,147,0,,,,,,,,,,,,,,,,,,,,,,1118.6851204000413,None,,,,,,,,,,,,,,,,,sweet,57,148,silent,old,blue,1113.6366599006578,None,1113.6366599006578,None,1,4.401147799566388,1113.6366599006578,None,4.401147799566388,1118.069035500288,None,1118.5684577999637,None,1118.5684577999637,None,n,0.08545470051467419,1118.5684577999637,None,0.08545470051467419,,,97 Silent,001,2022_Nov_22_1152,ProdSingRedoBetween,2021.2.3,59.93543758530538,
,,,,148,0,148,0,,,,,,,,,,,,,,,,,,,,,,1120.570439999923,None,,,,,,,,,,,,,,,,,expansion,42,149,silent,old,blue,1119.1939321001992,None,1119.1939321001992,None,1,0.8120331997051835,1119.1939321001992,None,0.8120331997051835,1120.0374335004017,None,1120.536999099888,None,1120.536999099888,None,n,0.004840199835598469,1120.536999099888,None,0.004840199835598469,,,97 Silent,001,2022_Nov_22_1152,ProdSingRedoBetween,2021.2.3,59.93543758530538,
,,,,149,0,149,0,,,,,,,,,,,,,,,,,,,,,,1122.405489699915,None,,,,,,,,,,,,,,,,,nature,68,150,silent,old,red,1121.072198100388,None,1121.072198100388,None,1,0.7416179003193974,1121.072198100388,None,0.7416179003193974,1121.8400690006092,None,1122.3570079999045,None,1122.3570079999045,None,n,0.0325443996116519,1122.3570079999045,None,0.0325443996116519,,,97 Silent,001,2022_Nov_22_1152,ProdSingRedoBetween,2021.2.3,59.93543758530538,
,,,,150,0,150,0,,,,,,,,,,,,,,,,,,,,,,1126.9767810003832,None,,,,,,,,,,,,,,,,,running,30,151,silent,old,blue,1122.9091472001746,None,1122.9091472001746,None,5,3.256581200286746,1122.9091472001746,None,3.256581200286746,1126.1934475004673,None,1126.6932227006182,None,1126.6932227006182,None,f,0.25648059975355864,1126.6932227006182,None,0.25648059975355864,,,97 Silent,001,2022_Nov_22_1152,ProdSingRedoBetween,2021.2.3,59.93543758530538,
,,,,151,0,151,0,,,,,,,,,,,,,,,,,,,,,,1130.847702600062,None,,,,,,,,,,,,,,,,,drama,122,152,silent,new,null,1127.4773625005037,None,1127.4773625005037,None,1,0.7845211997628212,1127.4773625005037,None,0.7845211997628212,1128.2803418999538,None,1128.79507930018,None,1128.79507930018,None,n,2.026689499616623,1128.79507930018,None,2.026689499616623,,,97 Silent,001,2022_Nov_22_1152,ProdSingRedoBetween,2021.2.3,59.93543758530538,
,,,,152,0,152,0,,,,,,,,,,,,,,,,,,,,,,1132.7992828004062,None,,,,,,,,,,,,,,,,,quiet,158,153,silent,new,null,1131.3597999000922,None,1131.3597999000922,None,1,0.7740973001345992,1131.3597999000922,None,0.7740973001345992,1132.167583600618,None,1132.6826166007668,None,1132.6826166007668,None,n,0.09916429966688156,1132.6826166007668,None,0.09916429966688156,,,97 Silent,001,2022_Nov_22_1152,ProdSingRedoBetween,2021.2.3,59.93543758530538,
,,,,153,0,153,0,,,,,,,,,,,,,,,,,,,,,,1134.684431500733,None,,,,,,,,,,,,,,,,,cousin,34,154,silent,old,blue,1133.3124094000086,None,1133.3124094000086,None,1,0.661387600004673,1133.3124094000086,None,0.661387600004673,1134.0025229007006,None,1134.5198156004772,None,1134.5198156004772,None,n,0.13414330035448074,1134.5198156004772,None,0.13414330035448074,,,97 Silent,001,2022_Nov_22_1152,ProdSingRedoBetween,2021.2.3,59.93543758530538,
,,,,154,0,154,0,,,,,,,,,,,,,,,,,,,,,,1136.669756100513,None,,,,,,,,,,,,,,,,,match,88,155,silent,old,red,1135.1902713999152,None,1135.1902713999152,None,1,0.7275279993191361,1135.1902713999152,None,0.7275279993191361,1135.9424279006198,None,1136.452960100025,None,1136.452960100025,None,n,0.19283099938184023,1136.452960100025,None,0.19283099938184023,,,97 Silent,001,2022_Nov_22_1152,ProdSingRedoBetween,2021.2.3,59.93543758530538,
,,,,155,0,155,0,,,,,,,,,,,,,,,,,,,,,,1141.641434200108,None,,,,,,,,,,,,,,,,,institute,95,156,silent,new,null,1137.1837893007323,None,1137.1837893007323,None,1,3.5419912999495864,1137.1837893007323,None,3.5419912999495864,1140.758216000162,None,1141.2642163001,None,1141.2642163001,None,n,0.3495014002546668,1141.2642163001,None,0.3495014002546668,,,97 Silent,001,2022_Nov_22_1152,ProdSingRedoBetween,2021.2.3,59.93543758530538,
,,,,156,0,156,0,,,,,,,,,,,,,,,,,,,,,,1143.6934930002317,None,,,,,,,,,,,,,,,,,carry,21,157,silent,old,yellow,1142.1493456000462,None,1142.1493456000462,None,1,0.7126176003366709,1142.1493456000462,None,0.7126176003366709,1142.899238199927,None,1143.4141330001876,None,1143.4141330001876,None,n,0.24772789981216192,1143.4141330001876,None,0.24772789981216192,,,97 Silent,001,2022_Nov_22_1152,ProdSingRedoBetween,2021.2.3,59.93543758530538,
,,,,157,0,157,0,,,,,,,,,,,,,,,,,,,,,,1145.5284306006506,None,,,,,,,,,,,,,,,,,pressure,140,158,silent,new,null,1144.2061376003549,None,1144.2061376003549,None,1,0.6396404998376966,1144.2061376003549,None,0.6396404998376966,1144.8655150001869,None,1145.3833402004093,None,1145.3833402004093,None,n,0.12645519990473986,1145.3833402004093,None,0.12645519990473986,,,97 Silent,001,2022_Nov_22_1152,ProdSingRedoBetween,2021.2.3,59.93543758530538,
,,,,158,0,158,0,,,,,,,,,,,,,,,,,,,,,,1147.4806456007063,None,,,,,,,,,,,,,,,,,fashion,20,159,silent,old,yellow,1146.0371840000153,None,1146.0371840000153,None,1,0.680456799454987,1146.0371840000153,None,0.680456799454987,1146.7524665007368,None,1147.2637121006846,None,1147.2637121006846,None,n,0.19801980070769787,1147.2637121006846,None,0.19801980070769787,,,97 Silent,001,2022_Nov_22_1152,ProdSingRedoBetween,2021.2.3,59.93543758530538,
,,,,159,0,159,0,,,,,,,,,,,,,,,,,,,,,,1151.684551300481,None,,,,,,,,,,,,,,,,,suspect,179,160,silent,new,null,1147.999952699989,None,1147.999952699989,None,6,2.805861299857497,1147.999952699989,None,2.805861299857497,1150.835135800764,None,1151.341780600138,None,1151.341780600138,None,f,0.3200183995068073,1151.341780600138,None,0.3200183995068073,,,97 Silent,001,2022_Nov_22_1152,ProdSingRedoBetween,2021.2.3,59.93543758530538,
,,,,160,0,160,0,,,,,,,,,,,,,,,,,,,,,,1156.4561387998983,None,,,,,,,,,,,,,,,,,period,157,161,silent,new,null,1152.185263399966,None,1152.185263399966,None,5,2.6924550998955965,1152.185263399966,None,2.6924550998955965,1154.9059156998992,None,1155.4052552003413,None,1155.4052552003413,None,f,1.0244447998702526,1155.4052552003413,None,1.0244447998702526,,,97 Silent,001,2022_Nov_22_1152,ProdSingRedoBetween,2021.2.3,59.93543758530538,
,,,,161,0,161,0,,,,,,,,,,,,,,,,,,,,,,1160.5268470002338,None,,,,,,,,,,,,,,,,,union,174,162,silent,new,null,1156.963865400292,None,1156.963865400292,None,1,2.7138775000348687,1156.963865400292,None,2.7138775000348687,1159.6938418000937,None,1160.1930423006415,None,1160.1930423006415,None,n,0.3166217999532819,1160.1930423006415,None,0.3166217999532819,,,97 Silent,001,2022_Nov_22_1152,ProdSingRedoBetween,2021.2.3,59.93543758530538,
,,,,162,0,162,0,,,,,,,,,,,,,,,,,,,,,,1162.895812000148,None,,,,,,,,,,,,,,,,,beginning,101,163,silent,new,null,1161.0299014002085,None,1161.0299014002085,None,1,1.1278332993388176,1161.0299014002085,None,1.1278332993388176,1162.1796839004382,None,1162.684336900711,None,1162.684336900711,None,n,0.18546519987285137,1162.684336900711,None,0.18546519987285137,,,97 Silent,001,2022_Nov_22_1152,ProdSingRedoBetween,2021.2.3,59.93543758530538,
,,,,163,0,163,0,,,,,,,,,,,,,,,,,,,,,,1164.647694600746,None,,,,,,,,,,,,,,,,,build,31,164,silent,old,blue,1163.4054720001295,None,1163.4054720001295,None,1,0.6882728999480605,1163.4054720001295,None,0.6882728999480605,1164.1151624005288,None,1164.6169408001006,None,1164.6169408001006,None,n,0.00482300017029047,1164.6169408001006,None,0.00482300017029047,,,97 Silent,001,2022_Nov_22_1152,ProdSingRedoBetween,2021.2.3,59.93543758530538,
,,,,164,0,164,0,,,,,,,,,,,,,,,,,,,,,,1168.9352684998885,None,,,,,,,,,,,,,,,,,principal,54,165,silent,old,blue,1165.154938700609,None,1165.154938700609,None,5,2.8828075993806124,1165.154938700609,None,2.8828075993806124,1168.0702034998685,None,1168.5850763004273,None,1168.5850763004273,None,f,0.3326422004029155,1168.5850763004273,None,0.3326422004029155,,,97 Silent,001,2022_Nov_22_1152,ProdSingRedoBetween,2021.2.3,59.93543758530538,
,,,,165,0,165,0,,,,,,,,,,,,,,,,,,,,,,1171.5045393006876,None,,,,,,,,,,,,,,,,,sight,85,166,silent,old,red,1169.4452482005581,None,1169.4452482005581,None,1,1.0883793998509645,1169.4452482005581,None,1.0883793998509645,1170.558446600102,None,1171.0707609001547,None,1171.0707609001547,None,n,0.4069203995168209,1171.0707609001547,None,0.4069203995168209,,,97 Silent,001,2022_Nov_22_1152,ProdSingRedoBetween,2021.2.3,59.93543758530538,
,,,,166,0,166,0,,,,,,,,,,,,,,,,,,,,,,1175.3584412001073,None,,,,,,,,,,,,,,,,,reach,39,167,silent,old,blue,1172.0094129005447,None,1172.0094129005447,None,4,2.4042758997529745,1172.0094129005447,None,2.4042758997529745,1174.4430494001135,None,1174.9580970006064,None,1174.9580970006064,None,f,0.37562600057572126,1174.9580970006064,None,0.37562600057572126,,,97 Silent,001,2022_Nov_22_1152,ProdSingRedoBetween,2021.2.3,59.93543758530538,
,,,,167,0,167,0,,,,,,,,,,,,,,,,,,,,,,1177.2869644006714,None,,,,,,,,,,,,,,,,,broad,79,168,silent,old,red,1175.8617455000058,None,1175.8617455000058,None,1,0.8640933996066451,1175.8617455000058,None,0.8640933996066451,1176.746762700379,None,1177.267276099883,None,1177.267276099883,None,n,0.003009200096130371,1177.267276099883,None,0.003009200096130371,,,97 Silent,001,2022_Nov_22_1152,ProdSingRedoBetween,2021.2.3,59.93543758530538,
,,,,168,0,168,0,,,,,,,,,,,,,,,,,,,,,,1179.8795304000378,None,,,,,,,,,,,,,,,,,salary,175,169,silent,new,null,1177.8047298006713,None,1177.8047298006713,None,1,0.6411450002342463,1177.8047298006713,None,0.6411450002342463,1178.4679407002404,None,1178.9788319002837,None,1178.9788319002837,None,n,0.8748753005638719,1178.9788319002837,None,0.8748753005638719,,,97 Silent,001,2022_Nov_22_1152,ProdSingRedoBetween,2021.2.3,59.93543758530538,
,,,,169,0,169,0,,,,,,,,,,,,,,,,,,,,,,1182.0983798000962,None,,,,,,,,,,,,,,,,,working,172,170,silent,new,null,1180.3963946001604,None,1180.3963946001604,None,1,0.857277499511838,1180.3963946001604,None,0.857277499511838,1181.2845970001072,None,1181.804171900265,None,1181.804171900265,None,n,0.2655544001609087,1181.804171900265,None,0.2655544001609087,,,97 Silent,001,2022_Nov_22_1152,ProdSingRedoBetween,2021.2.3,59.93543758530538,
,,,,170,0,170,0,,,,,,,,,,,,,,,,,,,,,,1185.9356321999803,None,,,,,,,,,,,,,,,,,judge,16,171,silent,old,yellow,1182.5989466998726,None,1182.5989466998726,None,1,2.622726399451494,1182.5989466998726,None,2.622726399451494,1185.253876700066,None,1185.7688724007457,None,1185.7688724007457,None,n,0.14877619966864586,1185.7688724007457,None,0.14877619966864586,,,97 Silent,001,2022_Nov_22_1152,ProdSingRedoBetween,2021.2.3,59.93543758530538,
,,,,171,0,171,0,,,,,,,,,,,,,,,,,,,,,,1188.3043245999143,None,,,,,,,,,,,,,,,,,equipment,146,172,silent,new,null,1186.4539796998724,None,1186.4539796998724,None,1,1.1597087997943163,1186.4539796998724,None,1.1597087997943163,1187.6401688000187,None,1188.1624068003148,None,1188.1624068003148,None,n,0.12336379941552877,1188.1624068003148,None,0.12336379941552877,,,97 Silent,001,2022_Nov_22_1152,ProdSingRedoBetween,2021.2.3,59.93543758530538,
,,,,172,0,172,0,,,,,,,,,,,,,,,,,,,,,,1191.374286800623,None,,,,,,,,,,,,,,,,,finish,127,173,silent,new,null,1188.8052115002647,None,1188.8052115002647,None,1,1.672389299608767,1188.8052115002647,None,1.672389299608767,1190.5125612001866,None,1191.0238367998973,None,1191.0238367998973,None,n,0.33385990001261234,1191.0238367998973,None,0.33385990001261234,,,97 Silent,001,2022_Nov_22_1152,ProdSingRedoBetween,2021.2.3,59.93543758530538,
,,,,173,0,173,0,,,,,,,,,,,,,,,,,,,,,,1196.6641561007127,None,,,,,,,,,,,,,,,,,state,15,174,silent,old,yellow,1191.8850947003812,None,1191.8850947003812,None,6,3.0326829003170133,1191.8850947003812,None,3.0326829003170133,1194.955277199857,None,1195.4645475000143,None,1195.4645475000143,None,r,1.1811559004709125,1195.4645475000143,None,1.1811559004709125,,,97 Silent,001,2022_Nov_22_1152,ProdSingRedoBetween,2021.2.3,59.93543758530538,
,,,,174,0,174,0,,,,,,,,,,,,,,,,,,,,,,1199.5823069000617,None,,,,,,,,,,,,,,,,,service,111,175,silent,new,null,1197.1771290004253,None,1197.1771290004253,None,1,1.6445269007235765,1197.1771290004253,None,1.6445269007235765,1198.8496251003817,None,1199.3490859000012,None,1199.3490859000012,None,n,0.20859779976308346,1199.3490859000012,None,0.20859779976308346,,,97 Silent,001,2022_Nov_22_1152,ProdSingRedoBetween,2021.2.3,59.93543758530538,
