StudyLoop.thisRepN,StudyLoop.thisTrialN,StudyLoop.thisN,StudyLoop.thisIndex,TestLoop.thisRepN,TestLoop.thisTrialN,TestLoop.thisN,TestLoop.thisIndex,textCondition.started,textCondition.stopped,keyCondition.keys,keyCondition.rt,keyCondition.started,keyCondition.stopped,Condition,textWelcome.started,textWelcome.stopped,keyWelcome.keys,keyWelcome.rt,keyWelcome.started,keyWelcome.stopped,textAloud.started,textAloud.stopped,textSilent.started,textSilent.stopped,textSing.started,textSing.stopped,conditional_text.started,conditional_text.stopped,textBlank500.started,textBlank500.stopped,study_word,study_num,study_order,study_type,word_color,textStudy.started,textStudy.stopped,keyStudy.keys,keyStudy.started,keyStudy.stopped,keyStudy.rt,textTestInstructions.started,textTestInstructions.stopped,key_resp_3.keys,key_resp_3.rt,key_resp_3.started,key_resp_3.stopped,test_word,test_num,test_order,test_condition,old_new_test,test_word_original_color,textConf.started,textConf.stopped,textConfScale.started,textConfScale.stopped,keyConf.keys,keyConf.rt,keyConf.started,keyConf.stopped,confidence response time,textTestBlank.started,textTestBlank.stopped,textRKN.started,textRKN.stopped,textRKNScale.started,textRKNScale.stopped,keyRKN.keys,keyRKN.rt,keyRKN.started,keyRKN.stopped,rkn response time,textEnd.started,textEnd.stopped,participant,session,date,expName,psychopyVersion,frameRate,
,,,,,,,,31.13932180032134,None,b,12.490370400249958,31.13932180032134,None,,,,,,,,,,,,,,,,,,,,,,,,,,,,,,,,,,,,,,,,,,,,,,,,,,,,,,,,,,,,,,,98Aloud,001,2022_Nov_28_1002,ProdSingRedoBetween,2021.2.3,59.97825170636562,
,,,,,,,,,,,,,,AloudTest,43.68511120043695,None,space,147.64820820000023,43.68511120043695,None,,,,,,,,,,,,,,,,,,,,,,,,,,,,,,,,,,,,,,,,,,,,,,,,,,,,,,,,98Aloud,001,2022_Nov_28_1002,ProdSingRedoBetween,2021.2.3,59.97825170636562,
0,0,0,0,,,,,,,,,,,,,,,,,,43.68511120043695,None,43.68511120043695,None,43.68511120043695,None,43.68511120043695,None,193.87174380011857,None,beginning,65,1,aloud,red,191.85756259970367,None,None,191.85756259970367,None,,,,,,,,,,,,,,,,,,,,,,,,,,,,,,,,,,,,98Aloud,001,2022_Nov_28_1002,ProdSingRedoBetween,2021.2.3,59.97825170636562,
1,0,1,0,,,,,,,,,,,,,,,,,,,,,,,,,,196.37435039971024,None,drama,84,2,aloud,red,194.3720995001495,None,space,194.3720995001495,None,1.9532503001391888,,,,,,,,,,,,,,,,,,,,,,,,,,,,,,,,,,,98Aloud,001,2022_Nov_28_1002,ProdSingRedoBetween,2021.2.3,59.97825170636562,
2,0,2,0,,,,,,,,,,,,,,,,,,,,,,,,,,198.87679660040885,None,burden,58,3,aloud,blue,196.87462029978633,None,None,196.87462029978633,None,,,,,,,,,,,,,,,,,,,,,,,,,,,,,,,,,,,,98Aloud,001,2022_Nov_28_1002,ProdSingRedoBetween,2021.2.3,59.97825170636562,
3,0,3,0,,,,,,,,,,,,,,,,,,,,,,,,,,201.37907700054348,None,reading,62,4,aloud,red,199.37722400017083,None,None,199.37722400017083,None,,,,,,,,,,,,,,,,,,,,,,,,,,,,,,,,,,,,98Aloud,001,2022_Nov_28_1002,ProdSingRedoBetween,2021.2.3,59.97825170636562,
4,0,4,0,,,,,,,,,,,,,,,,,,,,,,,,,,203.88140229973942,None,defeat,22,5,aloud,yellow,201.87960830051452,None,space,201.87960830051452,None,1.6936899004504085,,,,,,,,,,,,,,,,,,,,,,,,,,,,,,,,,,,98Aloud,001,2022_Nov_28_1002,ProdSingRedoBetween,2021.2.3,59.97825170636562,
5,0,5,0,,,,,,,,,,,,,,,,,,,,,,,,,,206.3843398001045,None,present,47,6,aloud,blue,204.38202510029078,None,None,204.38202510029078,None,,,,,,,,,,,,,,,,,,,,,,,,,,,,,,,,,,,,98Aloud,001,2022_Nov_28_1002,ProdSingRedoBetween,2021.2.3,59.97825170636562,
6,0,6,0,,,,,,,,,,,,,,,,,,,,,,,,,,208.9033562000841,None,conference,15,7,aloud,yellow,206.88861980009824,None,None,206.88861980009824,None,,,,,,,,,,,,,,,,,,,,,,,,,,,,,,,,,,,,98Aloud,001,2022_Nov_28_1002,ProdSingRedoBetween,2021.2.3,59.97825170636562,
7,0,7,0,,,,,,,,,,,,,,,,,,,,,,,,,,211.4061334002763,None,tragedy,34,8,aloud,blue,209.40394150000066,None,None,209.40394150000066,None,,,,,,,,,,,,,,,,,,,,,,,,,,,,,,,,,,,,98Aloud,001,2022_Nov_28_1002,ProdSingRedoBetween,2021.2.3,59.97825170636562,
8,0,8,0,,,,,,,,,,,,,,,,,,,,,,,,,,213.90858289971948,None,republic,89,9,aloud,red,211.9065086999908,None,None,211.9065086999908,None,,,,,,,,,,,,,,,,,,,,,,,,,,,,,,,,,,,,98Aloud,001,2022_Nov_28_1002,ProdSingRedoBetween,2021.2.3,59.97825170636562,
9,0,9,0,,,,,,,,,,,,,,,,,,,,,,,,,,216.42779230047017,None,sound,16,10,aloud,yellow,214.41253500059247,None,None,214.41253500059247,None,,,,,,,,,,,,,,,,,,,,,,,,,,,,,,,,,,,,98Aloud,001,2022_Nov_28_1002,ProdSingRedoBetween,2021.2.3,59.97825170636562,
10,0,10,0,,,,,,,,,,,,,,,,,,,,,,,,,,218.9470357997343,None,growth,41,11,aloud,blue,216.9323877003044,None,None,216.9323877003044,None,,,,,,,,,,,,,,,,,,,,,,,,,,,,,,,,,,,,98Aloud,001,2022_Nov_28_1002,ProdSingRedoBetween,2021.2.3,59.97825170636562,
11,0,11,0,,,,,,,,,,,,,,,,,,,,,,,,,,221.4661896005273,None,personnel,46,12,aloud,blue,219.45218969974667,None,None,219.45218969974667,None,,,,,,,,,,,,,,,,,,,,,,,,,,,,,,,,,,,,98Aloud,001,2022_Nov_28_1002,ProdSingRedoBetween,2021.2.3,59.97825170636562,
12,0,12,0,,,,,,,,,,,,,,,,,,,,,,,,,,223.9685310004279,None,poetry,70,13,aloud,red,221.96798550058156,None,None,221.96798550058156,None,,,,,,,,,,,,,,,,,,,,,,,,,,,,,,,,,,,,98Aloud,001,2022_Nov_28_1002,ProdSingRedoBetween,2021.2.3,59.97825170636562,
13,0,13,0,,,,,,,,,,,,,,,,,,,,,,,,,,226.47108819987625,None,count,0,14,aloud,yellow,224.46914339996874,None,None,224.46914339996874,None,,,,,,,,,,,,,,,,,,,,,,,,,,,,,,,,,,,,98Aloud,001,2022_Nov_28_1002,ProdSingRedoBetween,2021.2.3,59.97825170636562,
14,0,14,0,,,,,,,,,,,,,,,,,,,,,,,,,,228.97360870055854,None,blind,76,15,aloud,red,226.97178720030934,None,None,226.97178720030934,None,,,,,,,,,,,,,,,,,,,,,,,,,,,,,,,,,,,,98Aloud,001,2022_Nov_28_1002,ProdSingRedoBetween,2021.2.3,59.97825170636562,
15,0,15,0,,,,,,,,,,,,,,,,,,,,,,,,,,231.49284579977393,None,majority,44,16,aloud,blue,229.48331260029227,None,None,229.48331260029227,None,,,,,,,,,,,,,,,,,,,,,,,,,,,,,,,,,,,,98Aloud,001,2022_Nov_28_1002,ProdSingRedoBetween,2021.2.3,59.97825170636562,
16,0,16,0,,,,,,,,,,,,,,,,,,,,,,,,,,234.0119348000735,None,object,19,17,aloud,yellow,232.00066709984094,None,None,232.00066709984094,None,,,,,,,,,,,,,,,,,,,,,,,,,,,,,,,,,,,,98Aloud,001,2022_Nov_28_1002,ProdSingRedoBetween,2021.2.3,59.97825170636562,
17,0,17,0,,,,,,,,,,,,,,,,,,,,,,,,,,236.53125680051744,None,incident,33,18,aloud,blue,234.5159171000123,None,None,234.5159171000123,None,,,,,,,,,,,,,,,,,,,,,,,,,,,,,,,,,,,,98Aloud,001,2022_Nov_28_1002,ProdSingRedoBetween,2021.2.3,59.97825170636562,
18,0,18,0,,,,,,,,,,,,,,,,,,,,,,,,,,239.05019890051335,None,style,40,19,aloud,blue,237.03941250033677,None,None,237.03941250033677,None,,,,,,,,,,,,,,,,,,,,,,,,,,,,,,,,,,,,98Aloud,001,2022_Nov_28_1002,ProdSingRedoBetween,2021.2.3,59.97825170636562,
19,0,19,0,,,,,,,,,,,,,,,,,,,,,,,,,,241.55275929998606,None,bucket,18,20,aloud,yellow,239.5523653998971,None,None,239.5523653998971,None,,,,,,,,,,,,,,,,,,,,,,,,,,,,,,,,,,,,98Aloud,001,2022_Nov_28_1002,ProdSingRedoBetween,2021.2.3,59.97825170636562,
20,0,20,0,,,,,,,,,,,,,,,,,,,,,,,,,,244.05537560023367,None,heavy,78,21,aloud,red,242.0556674003601,None,None,242.0556674003601,None,,,,,,,,,,,,,,,,,,,,,,,,,,,,,,,,,,,,98Aloud,001,2022_Nov_28_1002,ProdSingRedoBetween,2021.2.3,59.97825170636562,
21,0,21,0,,,,,,,,,,,,,,,,,,,,,,,,,,246.57444400060922,None,strain,37,22,aloud,blue,244.56092249974608,None,None,244.56092249974608,None,,,,,,,,,,,,,,,,,,,,,,,,,,,,,,,,,,,,98Aloud,001,2022_Nov_28_1002,ProdSingRedoBetween,2021.2.3,59.97825170636562,
22,0,22,0,,,,,,,,,,,,,,,,,,,,,,,,,,249.09358590003103,None,contract,66,23,aloud,red,247.08212519995868,None,None,247.08212519995868,None,,,,,,,,,,,,,,,,,,,,,,,,,,,,,,,,,,,,98Aloud,001,2022_Nov_28_1002,ProdSingRedoBetween,2021.2.3,59.97825170636562,
23,0,23,0,,,,,,,,,,,,,,,,,,,,,,,,,,251.61257820017636,None,pattern,53,24,aloud,blue,249.59783020056784,None,None,249.59783020056784,None,,,,,,,,,,,,,,,,,,,,,,,,,,,,,,,,,,,,98Aloud,001,2022_Nov_28_1002,ProdSingRedoBetween,2021.2.3,59.97825170636562,
24,0,24,0,,,,,,,,,,,,,,,,,,,,,,,,,,254.1149923997,None,rough,24,25,aloud,yellow,252.11516950000077,None,None,252.11516950000077,None,,,,,,,,,,,,,,,,,,,,,,,,,,,,,,,,,,,,98Aloud,001,2022_Nov_28_1002,ProdSingRedoBetween,2021.2.3,59.97825170636562,
25,0,25,0,,,,,,,,,,,,,,,,,,,,,,,,,,256.6177695002407,None,second,56,26,aloud,blue,254.61579759977758,None,None,254.61579759977758,None,,,,,,,,,,,,,,,,,,,,,,,,,,,,,,,,,,,,98Aloud,001,2022_Nov_28_1002,ProdSingRedoBetween,2021.2.3,59.97825170636562,
26,0,26,0,,,,,,,,,,,,,,,,,,,,,,,,,,259.1370894005522,None,route,1,27,aloud,yellow,257.12267930060625,None,None,257.12267930060625,None,,,,,,,,,,,,,,,,,,,,,,,,,,,,,,,,,,,,98Aloud,001,2022_Nov_28_1002,ProdSingRedoBetween,2021.2.3,59.97825170636562,
27,0,27,0,,,,,,,,,,,,,,,,,,,,,,,,,,261.65624430030584,None,power,69,28,aloud,red,259.642118900083,None,None,259.642118900083,None,,,,,,,,,,,,,,,,,,,,,,,,,,,,,,,,,,,,98Aloud,001,2022_Nov_28_1002,ProdSingRedoBetween,2021.2.3,59.97825170636562,
28,0,28,0,,,,,,,,,,,,,,,,,,,,,,,,,,264.17525400035083,None,finance,64,29,aloud,red,262.16060100030154,None,None,262.16060100030154,None,,,,,,,,,,,,,,,,,,,,,,,,,,,,,,,,,,,,98Aloud,001,2022_Nov_28_1002,ProdSingRedoBetween,2021.2.3,59.97825170636562,
29,0,29,0,,,,,,,,,,,,,,,,,,,,,,,,,,266.67787630017847,None,expansion,26,30,aloud,yellow,264.67590420041233,None,None,264.67590420041233,None,,,,,,,,,,,,,,,,,,,,,,,,,,,,,,,,,,,,98Aloud,001,2022_Nov_28_1002,ProdSingRedoBetween,2021.2.3,59.97825170636562,
30,0,30,0,,,,,,,,,,,,,,,,,,,,,,,,,,269.1804387997836,None,mechanical,30,31,aloud,blue,267.1802382003516,None,None,267.1802382003516,None,,,,,,,,,,,,,,,,,,,,,,,,,,,,,,,,,,,,98Aloud,001,2022_Nov_28_1002,ProdSingRedoBetween,2021.2.3,59.97825170636562,
31,0,31,0,,,,,,,,,,,,,,,,,,,,,,,,,,271.6993412002921,None,breath,38,32,aloud,blue,269.69038849975914,None,None,269.69038849975914,None,,,,,,,,,,,,,,,,,,,,,,,,,,,,,,,,,,,,98Aloud,001,2022_Nov_28_1002,ProdSingRedoBetween,2021.2.3,59.97825170636562,
32,0,32,0,,,,,,,,,,,,,,,,,,,,,,,,,,274.2020716005936,None,waste,20,33,aloud,yellow,272.20011410024017,None,None,272.20011410024017,None,,,,,,,,,,,,,,,,,,,,,,,,,,,,,,,,,,,,98Aloud,001,2022_Nov_28_1002,ProdSingRedoBetween,2021.2.3,59.97825170636562,
33,0,33,0,,,,,,,,,,,,,,,,,,,,,,,,,,276.70457990001887,None,pretty,87,34,aloud,red,274.70361409988254,None,None,274.70361409988254,None,,,,,,,,,,,,,,,,,,,,,,,,,,,,,,,,,,,,98Aloud,001,2022_Nov_28_1002,ProdSingRedoBetween,2021.2.3,59.97825170636562,
34,0,34,0,,,,,,,,,,,,,,,,,,,,,,,,,,279.2237494001165,None,write,3,35,aloud,yellow,277.20955449994653,None,None,277.20955449994653,None,,,,,,,,,,,,,,,,,,,,,,,,,,,,,,,,,,,,98Aloud,001,2022_Nov_28_1002,ProdSingRedoBetween,2021.2.3,59.97825170636562,
35,0,35,0,,,,,,,,,,,,,,,,,,,,,,,,,,281.7260413998738,None,build,2,36,aloud,yellow,279.7241860004142,None,None,279.7241860004142,None,,,,,,,,,,,,,,,,,,,,,,,,,,,,,,,,,,,,98Aloud,001,2022_Nov_28_1002,ProdSingRedoBetween,2021.2.3,59.97825170636562,
36,0,36,0,,,,,,,,,,,,,,,,,,,,,,,,,,284.2454607002437,None,literature,82,37,aloud,red,282.2321017002687,None,None,282.2321017002687,None,,,,,,,,,,,,,,,,,,,,,,,,,,,,,,,,,,,,98Aloud,001,2022_Nov_28_1002,ProdSingRedoBetween,2021.2.3,59.97825170636562,
37,0,37,0,,,,,,,,,,,,,,,,,,,,,,,,,,286.7475997004658,None,generation,43,38,aloud,blue,284.7459249002859,None,None,284.7459249002859,None,,,,,,,,,,,,,,,,,,,,,,,,,,,,,,,,,,,,98Aloud,001,2022_Nov_28_1002,ProdSingRedoBetween,2021.2.3,59.97825170636562,
38,0,38,0,,,,,,,,,,,,,,,,,,,,,,,,,,289.2503660004586,None,force,68,39,aloud,red,287.2493409998715,None,None,287.2493409998715,None,,,,,,,,,,,,,,,,,,,,,,,,,,,,,,,,,,,,98Aloud,001,2022_Nov_28_1002,ProdSingRedoBetween,2021.2.3,59.97825170636562,
39,0,39,0,,,,,,,,,,,,,,,,,,,,,,,,,,291.7695610001683,None,population,67,40,aloud,red,289.7540712002665,None,None,289.7540712002665,None,,,,,,,,,,,,,,,,,,,,,,,,,,,,,,,,,,,,98Aloud,001,2022_Nov_28_1002,ProdSingRedoBetween,2021.2.3,59.97825170636562,
40,0,40,0,,,,,,,,,,,,,,,,,,,,,,,,,,294.2718858998269,None,discovery,59,41,aloud,yellow,292.2711923997849,None,None,292.2711923997849,None,,,,,,,,,,,,,,,,,,,,,,,,,,,,,,,,,,,,98Aloud,001,2022_Nov_28_1002,ProdSingRedoBetween,2021.2.3,59.97825170636562,
41,0,41,0,,,,,,,,,,,,,,,,,,,,,,,,,,296.77436820045114,None,match,57,42,aloud,blue,294.7736940002069,None,None,294.7736940002069,None,,,,,,,,,,,,,,,,,,,,,,,,,,,,,,,,,,,,98Aloud,001,2022_Nov_28_1002,ProdSingRedoBetween,2021.2.3,59.97825170636562,
42,0,42,0,,,,,,,,,,,,,,,,,,,,,,,,,,299.29365010000765,None,production,11,43,aloud,yellow,297.27888720016927,None,None,297.27888720016927,None,,,,,,,,,,,,,,,,,,,,,,,,,,,,,,,,,,,,98Aloud,001,2022_Nov_28_1002,ProdSingRedoBetween,2021.2.3,59.97825170636562,
43,0,43,0,,,,,,,,,,,,,,,,,,,,,,,,,,301.81302370037884,None,report,9,44,aloud,yellow,299.7996454006061,None,None,299.7996454006061,None,,,,,,,,,,,,,,,,,,,,,,,,,,,,,,,,,,,,98Aloud,001,2022_Nov_28_1002,ProdSingRedoBetween,2021.2.3,59.97825170636562,
44,0,44,0,,,,,,,,,,,,,,,,,,,,,,,,,,304.31537560001016,None,review,32,45,aloud,blue,302.31644990015775,None,None,302.31644990015775,None,,,,,,,,,,,,,,,,,,,,,,,,,,,,,,,,,,,,98Aloud,001,2022_Nov_28_1002,ProdSingRedoBetween,2021.2.3,59.97825170636562,
45,0,45,0,,,,,,,,,,,,,,,,,,,,,,,,,,306.8179026003927,None,native,88,46,aloud,red,304.8170087998733,None,None,304.8170087998733,None,,,,,,,,,,,,,,,,,,,,,,,,,,,,,,,,,,,,98Aloud,001,2022_Nov_28_1002,ProdSingRedoBetween,2021.2.3,59.97825170636562,
46,0,46,0,,,,,,,,,,,,,,,,,,,,,,,,,,309.3205072004348,None,people,31,47,aloud,blue,307.31836790032685,None,None,307.31836790032685,None,,,,,,,,,,,,,,,,,,,,,,,,,,,,,,,,,,,,98Aloud,001,2022_Nov_28_1002,ProdSingRedoBetween,2021.2.3,59.97825170636562,
47,0,47,0,,,,,,,,,,,,,,,,,,,,,,,,,,311.8396936999634,None,dispute,77,48,aloud,red,309.8247445002198,None,None,309.8247445002198,None,,,,,,,,,,,,,,,,,,,,,,,,,,,,,,,,,,,,98Aloud,001,2022_Nov_28_1002,ProdSingRedoBetween,2021.2.3,59.97825170636562,
48,0,48,0,,,,,,,,,,,,,,,,,,,,,,,,,,314.35869110003114,None,corner,4,49,aloud,yellow,312.3463709000498,None,None,312.3463709000498,None,,,,,,,,,,,,,,,,,,,,,,,,,,,,,,,,,,,,98Aloud,001,2022_Nov_28_1002,ProdSingRedoBetween,2021.2.3,59.97825170636562,
49,0,49,0,,,,,,,,,,,,,,,,,,,,,,,,,,316.87759689986706,None,rural,86,50,aloud,red,314.86339099984616,None,None,314.86339099984616,None,,,,,,,,,,,,,,,,,,,,,,,,,,,,,,,,,,,,98Aloud,001,2022_Nov_28_1002,ProdSingRedoBetween,2021.2.3,59.97825170636562,
50,0,50,0,,,,,,,,,,,,,,,,,,,,,,,,,,319.3805221999064,None,harmony,74,51,aloud,red,317.37861320003867,None,None,317.37861320003867,None,,,,,,,,,,,,,,,,,,,,,,,,,,,,,,,,,,,,98Aloud,001,2022_Nov_28_1002,ProdSingRedoBetween,2021.2.3,59.97825170636562,
51,0,51,0,,,,,,,,,,,,,,,,,,,,,,,,,,321.8997833998874,None,period,54,52,aloud,blue,319.88543449994177,None,None,319.88543449994177,None,,,,,,,,,,,,,,,,,,,,,,,,,,,,,,,,,,,,98Aloud,001,2022_Nov_28_1002,ProdSingRedoBetween,2021.2.3,59.97825170636562,
52,0,52,0,,,,,,,,,,,,,,,,,,,,,,,,,,324.4021648000926,None,history,52,53,aloud,blue,322.3999318005517,None,None,322.3999318005517,None,,,,,,,,,,,,,,,,,,,,,,,,,,,,,,,,,,,,98Aloud,001,2022_Nov_28_1002,ProdSingRedoBetween,2021.2.3,59.97825170636562,
53,0,53,0,,,,,,,,,,,,,,,,,,,,,,,,,,326.90461460035294,None,debate,55,54,aloud,blue,324.9053589999676,None,None,324.9053589999676,None,,,,,,,,,,,,,,,,,,,,,,,,,,,,,,,,,,,,98Aloud,001,2022_Nov_28_1002,ProdSingRedoBetween,2021.2.3,59.97825170636562,
54,0,54,0,,,,,,,,,,,,,,,,,,,,,,,,,,329.4237114004791,None,bicycle,79,55,aloud,red,327.408355999738,None,None,327.408355999738,None,,,,,,,,,,,,,,,,,,,,,,,,,,,,,,,,,,,,98Aloud,001,2022_Nov_28_1002,ProdSingRedoBetween,2021.2.3,59.97825170636562,
55,0,55,0,,,,,,,,,,,,,,,,,,,,,,,,,,331.92599709983915,None,range,80,56,aloud,red,329.92422659974545,None,None,329.92422659974545,None,,,,,,,,,,,,,,,,,,,,,,,,,,,,,,,,,,,,98Aloud,001,2022_Nov_28_1002,ProdSingRedoBetween,2021.2.3,59.97825170636562,
56,0,56,0,,,,,,,,,,,,,,,,,,,,,,,,,,334.42882480006665,None,property,72,57,aloud,red,332.4268300002441,None,None,332.4268300002441,None,,,,,,,,,,,,,,,,,,,,,,,,,,,,,,,,,,,,98Aloud,001,2022_Nov_28_1002,ProdSingRedoBetween,2021.2.3,59.97825170636562,
57,0,57,0,,,,,,,,,,,,,,,,,,,,,,,,,,336.9480325002223,None,shock,27,58,aloud,yellow,334.9387686997652,None,None,334.9387686997652,None,,,,,,,,,,,,,,,,,,,,,,,,,,,,,,,,,,,,98Aloud,001,2022_Nov_28_1002,ProdSingRedoBetween,2021.2.3,59.97825170636562,
58,0,58,0,,,,,,,,,,,,,,,,,,,,,,,,,,339.45056449994445,None,listen,35,59,aloud,blue,337.4489003997296,None,None,337.4489003997296,None,,,,,,,,,,,,,,,,,,,,,,,,,,,,,,,,,,,,98Aloud,001,2022_Nov_28_1002,ProdSingRedoBetween,2021.2.3,59.97825170636562,
59,0,59,0,,,,,,,,,,,,,,,,,,,,,,,,,,341.9530231002718,None,trial,60,60,aloud,red,339.9510038997978,None,None,339.9510038997978,None,,,,,,,,,,,,,,,,,,,,,,,,,,,,,,,,,,,,98Aloud,001,2022_Nov_28_1002,ProdSingRedoBetween,2021.2.3,59.97825170636562,
60,0,60,0,,,,,,,,,,,,,,,,,,,,,,,,,,344.4720975998789,None,murder,73,61,aloud,red,342.45692660007626,None,None,342.45692660007626,None,,,,,,,,,,,,,,,,,,,,,,,,,,,,,,,,,,,,98Aloud,001,2022_Nov_28_1002,ProdSingRedoBetween,2021.2.3,59.97825170636562,
61,0,61,0,,,,,,,,,,,,,,,,,,,,,,,,,,346.9913274999708,None,court,49,62,aloud,blue,344.9763526003808,None,None,344.9763526003808,None,,,,,,,,,,,,,,,,,,,,,,,,,,,,,,,,,,,,98Aloud,001,2022_Nov_28_1002,ProdSingRedoBetween,2021.2.3,59.97825170636562,
62,0,62,0,,,,,,,,,,,,,,,,,,,,,,,,,,349.4938607001677,None,management,42,63,aloud,blue,347.49184220004827,None,None,347.49184220004827,None,,,,,,,,,,,,,,,,,,,,,,,,,,,,,,,,,,,,98Aloud,001,2022_Nov_28_1002,ProdSingRedoBetween,2021.2.3,59.97825170636562,
63,0,63,0,,,,,,,,,,,,,,,,,,,,,,,,,,352.01298630051315,None,broke,10,64,aloud,yellow,349.9979239003733,None,None,349.9979239003733,None,,,,,,,,,,,,,,,,,,,,,,,,,,,,,,,,,,,,98Aloud,001,2022_Nov_28_1002,ProdSingRedoBetween,2021.2.3,59.97825170636562,
64,0,64,0,,,,,,,,,,,,,,,,,,,,,,,,,,354.5155485998839,None,cover,7,65,aloud,yellow,352.5143597004935,None,None,352.5143597004935,None,,,,,,,,,,,,,,,,,,,,,,,,,,,,,,,,,,,,98Aloud,001,2022_Nov_28_1002,ProdSingRedoBetween,2021.2.3,59.97825170636562,
65,0,65,0,,,,,,,,,,,,,,,,,,,,,,,,,,357.01797199994326,None,center,28,66,aloud,yellow,355.0167821003124,None,None,355.0167821003124,None,,,,,,,,,,,,,,,,,,,,,,,,,,,,,,,,,,,,98Aloud,001,2022_Nov_28_1002,ProdSingRedoBetween,2021.2.3,59.97825170636562,
66,0,66,0,,,,,,,,,,,,,,,,,,,,,,,,,,359.53719350043684,None,session,17,67,aloud,yellow,357.5227840002626,None,None,357.5227840002626,None,,,,,,,,,,,,,,,,,,,,,,,,,,,,,,,,,,,,98Aloud,001,2022_Nov_28_1002,ProdSingRedoBetween,2021.2.3,59.97825170636562,
67,0,67,0,,,,,,,,,,,,,,,,,,,,,,,,,,362.05640139989555,None,place,75,68,aloud,red,360.0411609997973,None,None,360.0411609997973,None,,,,,,,,,,,,,,,,,,,,,,,,,,,,,,,,,,,,98Aloud,001,2022_Nov_28_1002,ProdSingRedoBetween,2021.2.3,59.97825170636562,
68,0,68,0,,,,,,,,,,,,,,,,,,,,,,,,,,364.5754760000855,None,partner,81,69,aloud,red,362.5609406000003,None,None,362.5609406000003,None,,,,,,,,,,,,,,,,,,,,,,,,,,,,,,,,,,,,98Aloud,001,2022_Nov_28_1002,ProdSingRedoBetween,2021.2.3,59.97825170636562,
69,0,69,0,,,,,,,,,,,,,,,,,,,,,,,,,,367.07810600008816,None,owner,39,70,aloud,blue,365.07723840046674,None,None,365.07723840046674,None,,,,,,,,,,,,,,,,,,,,,,,,,,,,,,,,,,,,98Aloud,001,2022_Nov_28_1002,ProdSingRedoBetween,2021.2.3,59.97825170636562,
70,0,70,0,,,,,,,,,,,,,,,,,,,,,,,,,,369.58042880054563,None,error,45,71,aloud,blue,367.58002900052816,None,None,367.58002900052816,None,,,,,,,,,,,,,,,,,,,,,,,,,,,,,,,,,,,,98Aloud,001,2022_Nov_28_1002,ProdSingRedoBetween,2021.2.3,59.97825170636562,
71,0,71,0,,,,,,,,,,,,,,,,,,,,,,,,,,372.0997192002833,None,design,14,72,aloud,yellow,370.08686999976635,None,None,370.08686999976635,None,,,,,,,,,,,,,,,,,,,,,,,,,,,,,,,,,,,,98Aloud,001,2022_Nov_28_1002,ProdSingRedoBetween,2021.2.3,59.97825170636562,
72,0,72,0,,,,,,,,,,,,,,,,,,,,,,,,,,374.6021662000567,None,answer,21,73,aloud,yellow,372.6001690002158,None,None,372.6001690002158,None,,,,,,,,,,,,,,,,,,,,,,,,,,,,,,,,,,,,98Aloud,001,2022_Nov_28_1002,ProdSingRedoBetween,2021.2.3,59.97825170636562,
73,0,73,0,,,,,,,,,,,,,,,,,,,,,,,,,,377.1214049998671,None,salary,23,74,aloud,yellow,375.1102796997875,None,None,375.1102796997875,None,,,,,,,,,,,,,,,,,,,,,,,,,,,,,,,,,,,,98Aloud,001,2022_Nov_28_1002,ProdSingRedoBetween,2021.2.3,59.97825170636562,
74,0,74,0,,,,,,,,,,,,,,,,,,,,,,,,,,379.623840900138,None,treatment,50,75,aloud,blue,377.62188530061394,None,None,377.62188530061394,None,,,,,,,,,,,,,,,,,,,,,,,,,,,,,,,,,,,,98Aloud,001,2022_Nov_28_1002,ProdSingRedoBetween,2021.2.3,59.97825170636562,
75,0,75,0,,,,,,,,,,,,,,,,,,,,,,,,,,382.12632399983704,None,quarter,25,76,aloud,yellow,380.12638160027564,None,None,380.12638160027564,None,,,,,,,,,,,,,,,,,,,,,,,,,,,,,,,,,,,,98Aloud,001,2022_Nov_28_1002,ProdSingRedoBetween,2021.2.3,59.97825170636562,
76,0,76,0,,,,,,,,,,,,,,,,,,,,,,,,,,384.62877770047635,None,junior,12,77,aloud,yellow,382.6268627997488,None,None,382.6268627997488,None,,,,,,,,,,,,,,,,,,,,,,,,,,,,,,,,,,,,98Aloud,001,2022_Nov_28_1002,ProdSingRedoBetween,2021.2.3,59.97825170636562,
77,0,77,0,,,,,,,,,,,,,,,,,,,,,,,,,,387.14802359975874,None,crime,83,78,aloud,red,385.13323550019413,None,None,385.13323550019413,None,,,,,,,,,,,,,,,,,,,,,,,,,,,,,,,,,,,,98Aloud,001,2022_Nov_28_1002,ProdSingRedoBetween,2021.2.3,59.97825170636562,
78,0,78,0,,,,,,,,,,,,,,,,,,,,,,,,,,389.66732950042933,None,piece,48,79,aloud,blue,387.65782519988716,None,None,387.65782519988716,None,,,,,,,,,,,,,,,,,,,,,,,,,,,,,,,,,,,,98Aloud,001,2022_Nov_28_1002,ProdSingRedoBetween,2021.2.3,59.97825170636562,
79,0,79,0,,,,,,,,,,,,,,,,,,,,,,,,,,392.16963700018823,None,course,85,80,aloud,red,390.169790700078,None,None,390.169790700078,None,,,,,,,,,,,,,,,,,,,,,,,,,,,,,,,,,,,,98Aloud,001,2022_Nov_28_1002,ProdSingRedoBetween,2021.2.3,59.97825170636562,
80,0,80,0,,,,,,,,,,,,,,,,,,,,,,,,,,394.67220779974014,None,threat,61,81,aloud,red,392.6720040002838,None,None,392.6720040002838,None,,,,,,,,,,,,,,,,,,,,,,,,,,,,,,,,,,,,98Aloud,001,2022_Nov_28_1002,ProdSingRedoBetween,2021.2.3,59.97825170636562,
81,0,81,0,,,,,,,,,,,,,,,,,,,,,,,,,,397.17461550049484,None,ground,51,82,aloud,blue,395.17277450021356,None,None,395.17277450021356,None,,,,,,,,,,,,,,,,,,,,,,,,,,,,,,,,,,,,98Aloud,001,2022_Nov_28_1002,ProdSingRedoBetween,2021.2.3,59.97825170636562,
82,0,82,0,,,,,,,,,,,,,,,,,,,,,,,,,,399.6771891005337,None,search,5,83,aloud,yellow,397.67521240003407,None,None,397.67521240003407,None,,,,,,,,,,,,,,,,,,,,,,,,,,,,,,,,,,,,98Aloud,001,2022_Nov_28_1002,ProdSingRedoBetween,2021.2.3,59.97825170636562,
83,0,83,0,,,,,,,,,,,,,,,,,,,,,,,,,,402.1797710005194,None,split,36,84,aloud,blue,400.1798497000709,None,None,400.1798497000709,None,,,,,,,,,,,,,,,,,,,,,,,,,,,,,,,,,,,,98Aloud,001,2022_Nov_28_1002,ProdSingRedoBetween,2021.2.3,59.97825170636562,
84,0,84,0,,,,,,,,,,,,,,,,,,,,,,,,,,404.69886669982225,None,degree,29,85,aloud,blue,402.68706770054996,None,None,402.68706770054996,None,,,,,,,,,,,,,,,,,,,,,,,,,,,,,,,,,,,,98Aloud,001,2022_Nov_28_1002,ProdSingRedoBetween,2021.2.3,59.97825170636562,
85,0,85,0,,,,,,,,,,,,,,,,,,,,,,,,,,407.2013173997402,None,voice,71,86,aloud,red,405.19954149983823,None,None,405.19954149983823,None,,,,,,,,,,,,,,,,,,,,,,,,,,,,,,,,,,,,98Aloud,001,2022_Nov_28_1002,ProdSingRedoBetween,2021.2.3,59.97825170636562,
86,0,86,0,,,,,,,,,,,,,,,,,,,,,,,,,,409.72052570059896,None,general,6,87,aloud,yellow,407.70551719982177,None,None,407.70551719982177,None,,,,,,,,,,,,,,,,,,,,,,,,,,,,,,,,,,,,98Aloud,001,2022_Nov_28_1002,ProdSingRedoBetween,2021.2.3,59.97825170636562,
87,0,87,0,,,,,,,,,,,,,,,,,,,,,,,,,,412.22302090004086,None,union,8,88,aloud,yellow,410.22073470056057,None,None,410.22073470056057,None,,,,,,,,,,,,,,,,,,,,,,,,,,,,,,,,,,,,98Aloud,001,2022_Nov_28_1002,ProdSingRedoBetween,2021.2.3,59.97825170636562,
88,0,88,0,,,,,,,,,,,,,,,,,,,,,,,,,,414.7255835002288,None,track,63,89,aloud,red,412.7234952002764,None,None,412.7234952002764,None,,,,,,,,,,,,,,,,,,,,,,,,,,,,,,,,,,,,98Aloud,001,2022_Nov_28_1002,ProdSingRedoBetween,2021.2.3,59.97825170636562,
89,0,89,0,,,,,,,,,,,,,,,,,,,,,,,,,,417.22771750018,None,narrow,13,90,aloud,yellow,415.22658440005034,None,None,415.22658440005034,None,,,,,,,,,,,,,,,,,,,,,,,,,,,,,,,,,,,,98Aloud,001,2022_Nov_28_1002,ProdSingRedoBetween,2021.2.3,59.97825170636562,
,,,,,,,,,,,,,,,,,,,,,,,,,,,,,,,,,,,,,,,,,,417.72885140031576,None,k,55.212240600027144,417.72885140031576,None,,,,,,,,,,,,,,,,,,,,,,,,,,,,,98Aloud,001,2022_Nov_28_1002,ProdSingRedoBetween,2021.2.3,59.97825170636562,
,,,,0,0,0,0,,,,,,,,,,,,,,,,,,,,,,487.4188136998564,None,,,,,,,,,,,,,,,,,,citizen,116,1,aloud,new,null,473.483132599853,None,473.483132599853,None,4,10.705782299861312,473.483132599853,None,10.705782299861312,484.21614610031247,None,484.7287316005677,None,484.7287316005677,None,f,2.660268399864435,484.7287316005677,None,2.660268399864435,,,98Aloud,001,2022_Nov_28_1002,ProdSingRedoBetween,2021.2.3,59.97825170636562,
,,,,1,0,1,0,,,,,,,,,,,,,,,,,,,,,,492.0887275999412,None,,,,,,,,,,,,,,,,,,council,108,2,aloud,new,null,487.9384085005149,None,487.9384085005149,None,1,2.3384560998529196,487.9384085005149,None,2.3384560998529196,490.30082480050623,None,490.80631360039115,None,490.80631360039115,None,n,1.2546105002984405,490.80631360039115,None,1.2546105002984405,,,98Aloud,001,2022_Nov_28_1002,ProdSingRedoBetween,2021.2.3,59.97825170636562,
,,,,2,0,2,0,,,,,,,,,,,,,,,,,,,,,,498.3588936002925,None,,,,,,,,,,,,,,,,,,force,68,3,aloud,old,red,492.60840690042824,None,492.60840690042824,None,6,2.308478199876845,492.60840690042824,None,2.308478199876845,494.9408183004707,None,495.4584787003696,None,495.4584787003696,None,r,2.874547000043094,495.4584787003696,None,2.874547000043094,,,98Aloud,001,2022_Nov_28_1002,ProdSingRedoBetween,2021.2.3,59.97825170636562,
,,,,3,0,3,0,,,,,,,,,,,,,,,,,,,,,,502.84681400004774,None,,,,,,,,,,,,,,,,,,owner,39,4,aloud,old,blue,498.86865490023047,None,498.86865490023047,None,6,2.7441416000947356,498.86865490023047,None,2.7441416000947356,501.63585640024394,None,502.14596899971366,None,502.14596899971366,None,r,0.6829335000365973,502.14596899971366,None,0.6829335000365973,,,98Aloud,001,2022_Nov_28_1002,ProdSingRedoBetween,2021.2.3,59.97825170636562,
,,,,4,0,4,0,,,,,,,,,,,,,,,,,,,,,,508.6524186003953,None,,,,,,,,,,,,,,,,,,candidate,137,5,aloud,new,null,503.3528787000105,None,503.3528787000105,None,2,3.5959912994876504,503.3528787000105,None,3.5959912994876504,506.9852708997205,None,507.4845061004162,None,507.4845061004162,None,n,1.1441839998587966,507.4845061004162,None,1.1441839998587966,,,98Aloud,001,2022_Nov_28_1002,ProdSingRedoBetween,2021.2.3,59.97825170636562,
,,,,5,0,5,0,,,,,,,,,,,,,,,,,,,,,,514.3081304002553,None,,,,,,,,,,,,,,,,,,congress,122,6,aloud,new,null,509.15509270038456,None,509.15509270038456,None,1,3.697767600417137,509.15509270038456,None,3.697767600417137,512.87692300044,None,513.3904073005542,None,513.3904073005542,None,n,0.8944536000490189,513.3904073005542,None,0.8944536000490189,,,98Aloud,001,2022_Nov_28_1002,ProdSingRedoBetween,2021.2.3,59.97825170636562,
,,,,6,0,6,0,,,,,,,,,,,,,,,,,,,,,,520.7311597000808,None,,,,,,,,,,,,,,,,,,division,139,7,aloud,new,null,514.821344899945,None,514.821344899945,None,3,3.6634128000587225,514.821344899945,None,3.6634128000587225,518.5120812999085,None,519.017338800244,None,519.017338800244,None,n,1.6834699995815754,519.017338800244,None,1.6834699995815754,,,98Aloud,001,2022_Nov_28_1002,ProdSingRedoBetween,2021.2.3,59.97825170636562,
,,,,7,0,7,0,,,,,,,,,,,,,,,,,,,,,,527.0207882998511,None,,,,,,,,,,,,,,,,,,clear,138,8,aloud,new,null,521.2394484998658,None,521.2394484998658,None,4,4.205347499810159,521.2394484998658,None,4.205347499810159,525.4692302998155,None,525.9746524002403,None,525.9746524002403,None,f,1.022133800201118,525.9746524002403,None,1.022133800201118,,,98Aloud,001,2022_Nov_28_1002,ProdSingRedoBetween,2021.2.3,59.97825170636562,
,,,,8,0,8,0,,,,,,,,,,,,,,,,,,,,,,530.3075291002169,None,,,,,,,,,,,,,,,,,,equipment,95,9,aloud,new,null,527.5307285003364,None,527.5307285003364,None,2,1.8900905000045896,527.5307285003364,None,1.8900905000045896,529.4409173000604,None,529.9500655001029,None,529.9500655001029,None,n,0.3267433000728488,529.9500655001029,None,0.3267433000728488,,,98Aloud,001,2022_Nov_28_1002,ProdSingRedoBetween,2021.2.3,59.97825170636562,
,,,,9,0,9,0,,,,,,,,,,,,,,,,,,,,,,534.8620068999007,None,,,,,,,,,,,,,,,,,,route,1,10,aloud,old,yellow,530.818511299789,None,530.818511299789,None,6,2.9222737001255155,530.818511299789,None,2.9222737001255155,533.7617488000542,None,534.2637649998069,None,534.2637649998069,None,r,0.5730499997735023,534.2637649998069,None,0.5730499997735023,,,98Aloud,001,2022_Nov_28_1002,ProdSingRedoBetween,2021.2.3,59.97825170636562,
,,,,10,0,10,0,,,,,,,,,,,,,,,,,,,,,,538.2987695997581,None,,,,,,,,,,,,,,,,,,smooth,170,11,aloud,new,null,535.3714083004743,None,535.3714083004743,None,1,2.3455733004957438,535.3714083004743,None,2.3455733004957438,537.7557279998437,None,538.2654966004193,None,538.2654966004193,None,n,0.011300499550998211,538.2654966004193,None,0.011300499550998211,,,98Aloud,001,2022_Nov_28_1002,ProdSingRedoBetween,2021.2.3,59.97825170636562,
,,,,11,0,11,0,,,,,,,,,,,,,,,,,,,,,,542.8865579003468,None,,,,,,,,,,,,,,,,,,match,57,12,aloud,old,blue,538.7992139998823,None,538.7992139998823,None,6,3.1655660001561046,538.7992139998823,None,3.1655660001561046,541.9855636004359,None,542.4909768998623,None,542.4909768998623,None,r,0.3697917005047202,542.4909768998623,None,0.3697917005047202,,,98Aloud,001,2022_Nov_28_1002,ProdSingRedoBetween,2021.2.3,59.97825170636562,
,,,,12,0,12,0,,,,,,,,,,,,,,,,,,,,,,548.4087947998196,None,,,,,,,,,,,,,,,,,,problem,136,13,aloud,new,null,543.3900655005127,None,543.3900655005127,None,2,4.022732799872756,543.3900655005127,None,4.022732799872756,547.4452654002234,None,547.958425800316,None,547.958425800316,None,n,0.4223648002371192,547.958425800316,None,0.4223648002371192,,,98Aloud,001,2022_Nov_28_1002,ProdSingRedoBetween,2021.2.3,59.97825170636562,
,,,,13,0,13,0,,,,,,,,,,,,,,,,,,,,,,553.0134150004014,None,,,,,,,,,,,,,,,,,,escape,167,14,aloud,new,null,548.9175971001387,None,548.9175971001387,None,3,3.2952082995325327,548.9175971001387,None,3.2952082995325327,552.2304600002244,None,552.7322220997885,None,552.7322220997885,None,n,0.2645232994109392,552.7322220997885,None,0.2645232994109392,,,98Aloud,001,2022_Nov_28_1002,ProdSingRedoBetween,2021.2.3,59.97825170636562,
,,,,14,0,14,0,,,,,,,,,,,,,,,,,,,,,,556.4835163997486,None,,,,,,,,,,,,,,,,,,blind,76,15,aloud,old,red,553.5155207002535,None,553.5155207002535,None,5,2.2972378004342318,553.5155207002535,None,2.2972378004342318,555.8338325005025,None,556.3423758000135,None,556.3423758000135,None,f,0.11843189969658852,556.3423758000135,None,0.11843189969658852,,,98Aloud,001,2022_Nov_28_1002,ProdSingRedoBetween,2021.2.3,59.97825170636562,
,,,,15,0,15,0,,,,,,,,,,,,,,,,,,,,,,562.7898468002677,None,,,,,,,,,,,,,,,,,,color,97,16,aloud,new,null,556.9861500998959,None,556.9861500998959,None,6,4.06666489969939,556.9861500998959,None,4.06666489969939,561.0815864996985,None,561.5887513002381,None,561.5887513002381,None,r,1.1761314999312162,561.5887513002381,None,1.1761314999312162,,,98Aloud,001,2022_Nov_28_1002,ProdSingRedoBetween,2021.2.3,59.97825170636562,
,,,,16,0,16,0,,,,,,,,,,,,,,,,,,,,,,568.3046927005053,None,,,,,,,,,,,,,,,,,,answer,21,17,aloud,old,yellow,563.3025272004306,None,563.3025272004306,None,4,2.870201200246811,563.3025272004306,None,2.870201200246811,566.1931207003072,None,566.7024603001773,None,566.7024603001773,None,f,1.5662337997928262,566.7024603001773,None,1.5662337997928262,,,98Aloud,001,2022_Nov_28_1002,ProdSingRedoBetween,2021.2.3,59.97825170636562,
,,,,17,0,17,0,,,,,,,,,,,,,,,,,,,,,,573.3002676004544,None,,,,,,,,,,,,,,,,,,clean,178,18,aloud,new,null,568.8122851997614,None,568.8122851997614,None,4,3.064741099253297,568.8122851997614,None,3.064741099253297,571.9041477004066,None,572.4161288999021,None,572.4161288999021,None,f,0.8685801001265645,572.4161288999021,None,0.8685801001265645,,,98Aloud,001,2022_Nov_28_1002,ProdSingRedoBetween,2021.2.3,59.97825170636562,
,,,,18,0,18,0,,,,,,,,,,,,,,,,,,,,,,577.137432700023,None,,,,,,,,,,,,,,,,,,school,174,19,aloud,new,null,573.8166545005515,None,573.8166545005515,None,2,2.3241600999608636,573.8166545005515,None,2.3241600999608636,576.1706248000264,None,576.6704845000058,None,576.6704845000058,None,n,0.4462387003004551,576.6704845000058,None,0.4462387003004551,,,98Aloud,001,2022_Nov_28_1002,ProdSingRedoBetween,2021.2.3,59.97825170636562,
,,,,19,0,19,0,,,,,,,,,,,,,,,,,,,,,,581.5918741999194,None,,,,,,,,,,,,,,,,,,spoke,121,20,aloud,new,null,577.6477653002366,None,577.6477653002366,None,2,2.812838999554515,577.6477653002366,None,2.812838999554515,580.4906542003155,None,580.9943458000198,None,580.9943458000198,None,n,0.5703322002664208,580.9943458000198,None,0.5703322002664208,,,98Aloud,001,2022_Nov_28_1002,ProdSingRedoBetween,2021.2.3,59.97825170636562,
,,,,20,0,20,0,,,,,,,,,,,,,,,,,,,,,,584.8117532003671,None,,,,,,,,,,,,,,,,,,thick,164,21,aloud,new,null,582.0993331000209,None,582.0993331000209,None,1,1.881559000350535,582.0993331000209,None,1.881559000350535,584.015290800482,None,584.5324862999842,None,584.5324862999842,None,n,0.26422199979424477,584.5324862999842,None,0.26422199979424477,,,98Aloud,001,2022_Nov_28_1002,ProdSingRedoBetween,2021.2.3,59.97825170636562,
,,,,21,0,21,0,,,,,,,,,,,,,,,,,,,,,,588.5191149003804,None,,,,,,,,,,,,,,,,,,piece,48,22,aloud,old,blue,585.3235820000991,None,585.3235820000991,None,6,2.5691753001883626,585.3235820000991,None,2.5691753001883626,587.9219321999699,None,588.438969200477,None,588.438969200477,None,r,0.05393490009009838,588.438969200477,None,0.05393490009009838,,,98Aloud,001,2022_Nov_28_1002,ProdSingRedoBetween,2021.2.3,59.97825170636562,
,,,,22,0,22,0,,,,,,,,,,,,,,,,,,,,,,592.7400673003867,None,,,,,,,,,,,,,,,,,,beauty,152,23,aloud,new,null,589.0348963998258,None,589.0348963998258,None,1,2.569799699820578,589.0348963998258,None,2.569799699820578,591.6378837004304,None,592.1550238998607,None,592.1550238998607,None,n,0.5619408003985882,592.1550238998607,None,0.5619408003985882,,,98Aloud,001,2022_Nov_28_1002,ProdSingRedoBetween,2021.2.3,59.97825170636562,
,,,,23,0,23,0,,,,,,,,,,,,,,,,,,,,,,595.7393180998042,None,,,,,,,,,,,,,,,,,,payment,172,24,aloud,new,null,593.2731419000775,None,593.2731419000775,None,1,1.7235296005383134,593.2731419000775,None,1.7235296005383134,595.0230564000085,None,595.5265278005973,None,595.5265278005973,None,n,0.19017240032553673,595.5265278005973,None,0.19017240032553673,,,98Aloud,001,2022_Nov_28_1002,ProdSingRedoBetween,2021.2.3,59.97825170636562,
,,,,24,0,24,0,,,,,,,,,,,,,,,,,,,,,,599.8600909002125,None,,,,,,,,,,,,,,,,,,heavy,78,25,aloud,old,red,596.2514741001651,None,596.2514741001651,None,3,2.889245799742639,596.2514741001651,None,2.889245799742639,599.1591966999695,None,599.6646459000185,None,599.6646459000185,None,n,0.18005899991840124,599.6646459000185,None,0.18005899991840124,,,98Aloud,001,2022_Nov_28_1002,ProdSingRedoBetween,2021.2.3,59.97825170636562,
,,,,25,0,25,0,,,,,,,,,,,,,,,,,,,,,,604.3479140000418,None,,,,,,,,,,,,,,,,,,count,0,26,aloud,old,yellow,600.364713200368,None,600.364713200368,None,4,3.37625790014863,600.364713200368,None,3.37625790014863,603.7751235002652,None,604.2880663005635,None,604.2880663005635,None,f,0.04458519909530878,604.2880663005635,None,0.04458519909530878,,,98Aloud,001,2022_Nov_28_1002,ProdSingRedoBetween,2021.2.3,59.97825170636562,
,,,,26,0,26,0,,,,,,,,,,,,,,,,,,,,,,608.7574113998562,None,,,,,,,,,,,,,,,,,,place,75,27,aloud,old,red,604.8589567998424,None,604.8589567998424,None,3,3.0416647996753454,604.8589567998424,None,3.0416647996753454,607.9191388003528,None,608.4230022002012,None,608.4230022002012,None,n,0.3099315008148551,608.4230022002012,None,0.3099315008148551,,,98Aloud,001,2022_Nov_28_1002,ProdSingRedoBetween,2021.2.3,59.97825170636562,
,,,,27,0,27,0,,,,,,,,,,,,,,,,,,,,,,612.9064297005534,None,,,,,,,,,,,,,,,,,,business,135,28,aloud,new,null,609.2788768997416,None,609.2788768997416,None,1,2.3897860003635287,609.2788768997416,None,2.3897860003635287,611.6897013001144,None,612.1963836997747,None,612.1963836997747,None,n,0.6802408006042242,612.1963836997747,None,0.6802408006042242,,,98Aloud,001,2022_Nov_28_1002,ProdSingRedoBetween,2021.2.3,59.97825170636562,
,,,,28,0,28,0,,,,,,,,,,,,,,,,,,,,,,616.1261504003778,None,,,,,,,,,,,,,,,,,,measure,115,29,aloud,new,null,613.4153927005827,None,613.4153927005827,None,1,1.9653557995334268,613.4153927005827,None,1.9653557995334268,615.4096832005307,None,615.9125677999109,None,615.9125677999109,None,n,0.19608480017632246,615.9125677999109,None,0.19608480017632246,,,98Aloud,001,2022_Nov_28_1002,ProdSingRedoBetween,2021.2.3,59.97825170636562,
,,,,29,0,29,0,,,,,,,,,,,,,,,,,,,,,,620.1656582001597,None,,,,,,,,,,,,,,,,,,trial,60,30,aloud,old,red,616.6267114998773,None,616.6267114998773,None,5,2.7459390992298722,616.6267114998773,None,2.7459390992298722,619.3972027003765,None,619.8994926000014,None,619.8994926000014,None,f,0.2334733996540308,619.8994926000014,None,0.2334733996540308,,,98Aloud,001,2022_Nov_28_1002,ProdSingRedoBetween,2021.2.3,59.97825170636562,
,,,,30,0,30,0,,,,,,,,,,,,,,,,,,,,,,624.389909800142,None,,,,,,,,,,,,,,,,,,plane,145,31,aloud,new,null,620.6810322999954,None,620.6810322999954,None,2,3.0116135999560356,620.6810322999954,None,3.0116135999560356,623.719389599748,None,624.2389737004414,None,624.2389737004414,None,n,0.12605080008506775,624.2389737004414,None,0.12605080008506775,,,98Aloud,001,2022_Nov_28_1002,ProdSingRedoBetween,2021.2.3,59.97825170636562,
,,,,31,0,31,0,,,,,,,,,,,,,,,,,,,,,,627.7397062005475,None,,,,,,,,,,,,,,,,,,harmony,74,32,aloud,old,red,624.9086921997368,None,624.9086921997368,None,2,2.143876299262047,624.9086921997368,None,2.143876299262047,627.0717118997127,None,627.5750903999433,None,627.5750903999433,None,n,0.14160639978945255,627.5750903999433,None,0.14160639978945255,,,98Aloud,001,2022_Nov_28_1002,ProdSingRedoBetween,2021.2.3,59.97825170636562,
,,,,32,0,32,0,,,,,,,,,,,,,,,,,,,,,,631.3581376001239,None,,,,,,,,,,,,,,,,,,research,175,33,aloud,new,null,628.2751404000446,None,628.2751404000446,None,2,2.2574562998488545,628.2751404000446,None,2.2574562998488545,630.5660736998543,None,631.0744080999866,None,631.0744080999866,None,n,0.2662259005010128,631.0744080999866,None,0.2662259005010128,,,98Aloud,001,2022_Nov_28_1002,ProdSingRedoBetween,2021.2.3,59.97825170636562,
,,,,33,0,33,0,,,,,,,,,,,,,,,,,,,,,,637.0972551004961,None,,,,,,,,,,,,,,,,,,story,92,34,aloud,new,null,631.8586507998407,None,631.8586507998407,None,1,4.353936400264502,631.8586507998407,None,4.353936400264502,636.23367960006,None,636.7523734997958,None,636.7523734997958,None,n,0.3169247005134821,636.7523734997958,None,0.3169247005134821,,,98Aloud,001,2022_Nov_28_1002,ProdSingRedoBetween,2021.2.3,59.97825170636562,
,,,,34,0,34,0,,,,,,,,,,,,,,,,,,,,,,640.6674290001392,None,,,,,,,,,,,,,,,,,,fight,124,35,aloud,new,null,637.6010509999469,None,637.6010509999469,None,1,2.347559900023043,637.6010509999469,None,2.347559900023043,639.9739661002532,None,640.4840647997335,None,640.4840647997335,None,n,0.15250749979168177,640.4840647997335,None,0.15250749979168177,,,98Aloud,001,2022_Nov_28_1002,ProdSingRedoBetween,2021.2.3,59.97825170636562,
,,,,35,0,35,0,,,,,,,,,,,,,,,,,,,,,,646.3578888997436,None,,,,,,,,,,,,,,,,,,silence,101,36,aloud,new,null,641.1777947004884,None,641.1777947004884,None,3,3.546926699578762,641.1777947004884,None,3.546926699578762,644.7557583004236,None,645.2635112004355,None,645.2635112004355,None,n,1.0771899996325374,645.2635112004355,None,1.0771899996325374,,,98Aloud,001,2022_Nov_28_1002,ProdSingRedoBetween,2021.2.3,59.97825170636562,
,,,,36,0,36,0,,,,,,,,,,,,,,,,,,,,,,650.8943145005032,None,,,,,,,,,,,,,,,,,,management,42,37,aloud,old,blue,646.8661756003276,None,646.8661756003276,None,6,2.7704275995492935,646.8661756003276,None,2.7704275995492935,649.6610294999555,None,650.1604714998975,None,650.1604714998975,None,r,0.7081597996875644,650.1604714998975,None,0.7081597996875644,,,98Aloud,001,2022_Nov_28_1002,ProdSingRedoBetween,2021.2.3,59.97825170636562,
,,,,37,0,37,0,,,,,,,,,,,,,,,,,,,,,,655.2486394997686,None,,,,,,,,,,,,,,,,,,narrow,13,38,aloud,old,yellow,651.4036405999213,None,651.4036405999213,None,6,2.897069999948144,651.4036405999213,None,2.897069999948144,654.338814300485,None,654.8505185004324,None,654.8505185004324,None,r,0.3700795993208885,654.8505185004324,None,0.3700795993208885,,,98Aloud,001,2022_Nov_28_1002,ProdSingRedoBetween,2021.2.3,59.97825170636562,
,,,,38,0,38,0,,,,,,,,,,,,,,,,,,,,,,660.1202054005116,None,,,,,,,,,,,,,,,,,,order,169,39,aloud,new,null,655.7569797001779,None,655.7569797001779,None,4,3.4395642997696996,655.7569797001779,None,3.4395642997696996,659.2222319003195,None,659.7365787001327,None,659.7365787001327,None,f,0.36403079982846975,659.7365787001327,None,0.36403079982846975,,,98Aloud,001,2022_Nov_28_1002,ProdSingRedoBetween,2021.2.3,59.97825170636562,
,,,,39,0,39,0,,,,,,,,,,,,,,,,,,,,,,663.4754494000226,None,,,,,,,,,,,,,,,,,,property,72,40,aloud,old,red,660.6251359004527,None,660.6251359004527,None,5,1.955447799526155,660.6251359004527,None,1.955447799526155,662.6073070997372,None,663.11169099994,None,663.11169099994,None,f,0.34089289978146553,663.11169099994,None,0.34089289978146553,,,98Aloud,001,2022_Nov_28_1002,ProdSingRedoBetween,2021.2.3,59.97825170636562,
,,,,40,0,40,0,,,,,,,,,,,,,,,,,,,,,,667.7817524997517,None,,,,,,,,,,,,,,,,,,whole,161,41,aloud,new,null,664.0022398997098,None,664.0022398997098,None,1,3.050367900170386,664.0022398997098,None,3.050367900170386,667.0856689000502,None,667.5945378998294,None,667.5945378998294,None,n,0.15397240035235882,667.5945378998294,None,0.15397240035235882,,,98Aloud,001,2022_Nov_28_1002,ProdSingRedoBetween,2021.2.3,59.97825170636562,
,,,,41,0,41,0,,,,,,,,,,,,,,,,,,,,,,672.349051900208,None,,,,,,,,,,,,,,,,,,expansion,26,42,aloud,old,yellow,668.3148223999888,None,668.3148223999888,None,6,2.5297343004494905,668.3148223999888,None,2.5297343004494905,670.8661535996944,None,671.3862498998642,None,671.3862498998642,None,r,0.9383351001888514,671.3862498998642,None,0.9383351001888514,,,98Aloud,001,2022_Nov_28_1002,ProdSingRedoBetween,2021.2.3,59.97825170636562,
,,,,42,0,42,0,,,,,,,,,,,,,,,,,,,,,,675.2686497997493,None,,,,,,,,,,,,,,,,,,level,127,43,aloud,new,null,672.8599303998053,None,672.8599303998053,None,1,1.560598099604249,672.8599303998053,None,1.560598099604249,674.452169300057,None,674.9558094004169,None,674.9558094004169,None,n,0.28872770071029663,674.9558094004169,None,0.28872770071029663,,,98Aloud,001,2022_Nov_28_1002,ProdSingRedoBetween,2021.2.3,59.97825170636562,
,,,,43,0,43,0,,,,,,,,,,,,,,,,,,,,,,678.2049128003418,None,,,,,,,,,,,,,,,,,,carry,140,44,aloud,new,null,675.7826492004097,None,675.7826492004097,None,1,1.7019020998850465,675.7826492004097,None,1.7019020998850465,677.5054294001311,None,678.0097069004551,None,678.0097069004551,None,n,0.17883369978517294,678.0097069004551,None,0.17883369978517294,,,98Aloud,001,2022_Nov_28_1002,ProdSingRedoBetween,2021.2.3,59.97825170636562,
,,,,44,0,44,0,,,,,,,,,,,,,,,,,,,,,,682.1421181000769,None,,,,,,,,,,,,,,,,,,reading,62,45,aloud,old,red,678.7099518002942,None,678.7099518002942,None,2,2.118652400560677,678.7099518002942,None,2.118652400560677,680.8576263999566,None,681.3605668004602,None,681.3605668004602,None,n,0.7638753997161984,681.3605668004602,None,0.7638753997161984,,,98Aloud,001,2022_Nov_28_1002,ProdSingRedoBetween,2021.2.3,59.97825170636562,
,,,,45,0,45,0,,,,,,,,,,,,,,,,,,,,,,685.7133958004415,None,,,,,,,,,,,,,,,,,,general,6,46,aloud,old,yellow,682.6486848006025,None,682.6486848006025,None,6,2.0197361996397376,682.6486848006025,None,2.0197361996397376,684.69750460051,None,685.2131122006103,None,685.2131122006103,None,r,0.47141189966350794,685.2131122006103,None,0.47141189966350794,,,98Aloud,001,2022_Nov_28_1002,ProdSingRedoBetween,2021.2.3,59.97825170636562,
,,,,46,0,46,0,,,,,,,,,,,,,,,,,,,,,,689.416129000485,None,,,,,,,,,,,,,,,,,,little,125,47,aloud,new,null,686.2160791000351,None,686.2160791000351,None,1,1.6043846001848578,686.2160791000351,None,1.6043846001848578,687.8485270002857,None,688.359481099993,None,688.359481099993,None,n,1.037028300575912,688.359481099993,None,1.037028300575912,,,98Aloud,001,2022_Nov_28_1002,ProdSingRedoBetween,2021.2.3,59.97825170636562,
,,,,47,0,47,0,,,,,,,,,,,,,,,,,,,,,,696.6065485002473,None,,,,,,,,,,,,,,,,,,dream,109,48,aloud,new,null,689.9226476997137,None,689.9226476997137,None,3,4.937787899747491,689.9226476997137,None,4.937787899747491,694.8882672004402,None,695.3887926004827,None,695.3887926004827,None,n,1.191728500649333,695.3887926004827,None,1.191728500649333,,,98Aloud,001,2022_Nov_28_1002,ProdSingRedoBetween,2021.2.3,59.97825170636562,
,,,,48,0,48,0,,,,,,,,,,,,,,,,,,,,,,701.2278915997595,None,,,,,,,,,,,,,,,,,,present,47,49,aloud,old,blue,697.1170944003388,None,697.1170944003388,None,6,3.1353835994377732,697.1170944003388,None,3.1353835994377732,700.2874068003148,None,700.7980741001666,None,700.7980741001666,None,r,0.39843819942325354,700.7980741001666,None,0.39843819942325354,,,98Aloud,001,2022_Nov_28_1002,ProdSingRedoBetween,2021.2.3,59.97825170636562,
,,,,49,0,49,0,,,,,,,,,,,,,,,,,,,,,,703.8638706002384,None,,,,,,,,,,,,,,,,,,fellow,179,50,aloud,new,null,701.7384313996881,None,701.7384313996881,None,1,1.4421621998772025,701.7384313996881,None,1.4421621998772025,703.1977113001049,None,703.6992573002353,None,703.6992573002353,None,n,0.14526870008558035,703.6992573002353,None,0.14526870008558035,,,98Aloud,001,2022_Nov_28_1002,ProdSingRedoBetween,2021.2.3,59.97825170636562,
,,,,50,0,50,0,,,,,,,,,,,,,,,,,,,,,,706.3492835005745,None,,,,,,,,,,,,,,,,,,opening,112,51,aloud,new,null,704.3743254002184,None,704.3743254002184,None,1,1.3821163000538945,704.3743254002184,None,1.3821163000538945,705.7833860004321,None,706.2874734001234,None,706.2874734001234,None,n,0.03700860030949116,706.2874734001234,None,0.03700860030949116,,,98Aloud,001,2022_Nov_28_1002,ProdSingRedoBetween,2021.2.3,59.97825170636562,
,,,,51,0,51,0,,,,,,,,,,,,,,,,,,,,,,709.7225337000564,None,,,,,,,,,,,,,,,,,,design,14,52,aloud,old,yellow,706.8578508999199,None,706.8578508999199,None,6,2.314651899971068,706.8578508999199,None,2.314651899971068,709.2033318001777,None,709.7065992997959,None,709.7065992997959,None,r,0.002129599452018738,709.7065992997959,None,0.002129599452018738,,,98Aloud,001,2022_Nov_28_1002,ProdSingRedoBetween,2021.2.3,59.97825170636562,
,,,,52,0,52,0,,,,,,,,,,,,,,,,,,,,,,715.6421450003982,None,,,,,,,,,,,,,,,,,,discovery,59,53,aloud,old,yellow,710.2466567000374,None,710.2466567000374,None,5,4.36583869997412,710.2466567000374,None,4.36583869997412,714.6442438000813,None,715.1669541997835,None,715.1669541997835,None,f,0.4455655002966523,715.1669541997835,None,0.4455655002966523,,,98Aloud,001,2022_Nov_28_1002,ProdSingRedoBetween,2021.2.3,59.97825170636562,
,,,,53,0,53,0,,,,,,,,,,,,,,,,,,,,,,718.6007663002238,None,,,,,,,,,,,,,,,,,,murder,73,54,aloud,old,red,716.1455982001498,None,716.1455982001498,None,2,1.6989105995744467,716.1455982001498,None,1.6989105995744467,717.8612099001184,None,718.3640985004604,None,718.3640985004604,None,n,0.20827419962733984,718.3640985004604,None,0.20827419962733984,,,98Aloud,001,2022_Nov_28_1002,ProdSingRedoBetween,2021.2.3,59.97825170636562,
,,,,54,0,54,0,,,,,,,,,,,,,,,,,,,,,,721.5481193996966,None,,,,,,,,,,,,,,,,,,corner,4,55,aloud,old,yellow,719.1123655997217,None,719.1123655997217,None,6,1.6361597999930382,719.1123655997217,None,1.6361597999930382,720.77123640012,None,721.2830782001838,None,721.2830782001838,None,r,0.24939369969069958,721.2830782001838,None,0.24939369969069958,,,98Aloud,001,2022_Nov_28_1002,ProdSingRedoBetween,2021.2.3,59.97825170636562,
,,,,55,0,55,0,,,,,,,,,,,,,,,,,,,,,,726.0190276000649,None,,,,,,,,,,,,,,,,,,patient,126,56,aloud,new,null,722.0502997003496,None,722.0502997003496,None,4,3.218335499987006,722.0502997003496,None,3.218335499987006,725.2910046000034,None,725.8105094004422,None,725.8105094004422,None,f,0.1781201995909214,725.8105094004422,None,0.1781201995909214,,,98Aloud,001,2022_Nov_28_1002,ProdSingRedoBetween,2021.2.3,59.97825170636562,
,,,,56,0,56,0,,,,,,,,,,,,,,,,,,,,,,731.8081769999117,None,,,,,,,,,,,,,,,,,,evidence,120,57,aloud,new,null,726.5316800000146,None,726.5316800000146,None,3,4.448735699988902,726.5316800000146,None,4.448735699988902,731.0084247002378,None,731.5134179005399,None,731.5134179005399,None,n,0.27507130056619644,731.5134179005399,None,0.27507130056619644,,,98Aloud,001,2022_Nov_28_1002,ProdSingRedoBetween,2021.2.3,59.97825170636562,
,,,,57,0,57,0,,,,,,,,,,,,,,,,,,,,,,735.8623997000977,None,,,,,,,,,,,,,,,,,,build,2,58,aloud,old,yellow,732.3161227004603,None,732.3161227004603,None,4,2.7766733998432755,732.3161227004603,None,2.7766733998432755,735.118560500443,None,735.6289630001411,None,735.6289630001411,None,f,0.20740079972893,735.6289630001411,None,0.20740079972893,,,98Aloud,001,2022_Nov_28_1002,ProdSingRedoBetween,2021.2.3,59.97825170636562,
,,,,58,0,58,0,,,,,,,,,,,,,,,,,,,,,,742.7858718000352,None,,,,,,,,,,,,,,,,,,conference,15,59,aloud,old,yellow,736.3705305000767,None,736.3705305000767,None,3,5.618057299405336,736.3705305000767,None,5.618057299405336,742.0205511003733,None,742.5374469002709,None,742.5374469002709,None,n,0.21904749982059002,742.5374469002709,None,0.21904749982059002,,,98Aloud,001,2022_Nov_28_1002,ProdSingRedoBetween,2021.2.3,59.97825170636562,
,,,,59,0,59,0,,,,,,,,,,,,,,,,,,,,,,745.4219161001965,None,,,,,,,,,,,,,,,,,,minor,99,60,aloud,new,null,743.3031454002485,None,743.3031454002485,None,1,1.5012692995369434,743.3031454002485,None,1.5012692995369434,744.8278395002708,None,745.3405766002834,None,745.3405766002834,None,n,0.06385600008070469,745.3405766002834,None,0.06385600008070469,,,98Aloud,001,2022_Nov_28_1002,ProdSingRedoBetween,2021.2.3,59.97825170636562,
,,,,60,0,60,0,,,,,,,,,,,,,,,,,,,,,,748.3081951998174,None,,,,,,,,,,,,,,,,,,quarter,25,61,aloud,old,yellow,745.9241877999157,None,745.9241877999157,None,6,1.5282434998080134,745.9241877999157,None,1.5282434998080134,747.4769331999123,None,747.9923930997029,None,747.9923930997029,None,r,0.3000357002019882,747.9923930997029,None,0.3000357002019882,,,98Aloud,001,2022_Nov_28_1002,ProdSingRedoBetween,2021.2.3,59.97825170636562,
,,,,61,0,61,0,,,,,,,,,,,,,,,,,,,,,,751.1287462003529,None,,,,,,,,,,,,,,,,,,republic,89,62,aloud,old,red,748.8099786005914,None,748.8099786005914,None,6,1.4584630001336336,748.8099786005914,None,1.4584630001336336,750.2955192998052,None,750.8147772001103,None,750.8147772001103,None,r,0.2857403000816703,750.8147772001103,None,0.2857403000816703,,,98Aloud,001,2022_Nov_28_1002,ProdSingRedoBetween,2021.2.3,59.97825170636562,
,,,,62,0,62,0,,,,,,,,,,,,,,,,,,,,,,754.0138100003824,None,,,,,,,,,,,,,,,,,,trash,114,63,aloud,new,null,751.6354998005554,None,751.6354998005554,None,1,1.592909200116992,751.6354998005554,None,1.592909200116992,753.2477166997269,None,753.7524070004001,None,753.7524070004001,None,n,0.24396419990807772,753.7524070004001,None,0.24396419990807772,,,98Aloud,001,2022_Nov_28_1002,ProdSingRedoBetween,2021.2.3,59.97825170636562,
,,,,63,0,63,0,,,,,,,,,,,,,,,,,,,,,,756.8189791003242,None,,,,,,,,,,,,,,,,,,crowd,119,64,aloud,new,null,754.523781100288,None,754.523781100288,None,2,1.432510199956596,754.523781100288,None,1.432510199956596,755.9837105004117,None,756.4878641003743,None,756.4878641003743,None,n,0.3084856001660228,756.4878641003743,None,0.3084856001660228,,,98Aloud,001,2022_Nov_28_1002,ProdSingRedoBetween,2021.2.3,59.97825170636562,
,,,,64,0,64,0,,,,,,,,,,,,,,,,,,,,,,760.4368823003024,None,,,,,,,,,,,,,,,,,,write,3,65,aloud,old,yellow,757.3339341999963,None,757.3339341999963,None,3,2.2945472998544574,757.3339341999963,None,2.2945472998544574,759.6539396997541,None,760.1534759998322,None,760.1534759998322,None,n,0.2589620007202029,760.1534759998322,None,0.2589620007202029,,,98Aloud,001,2022_Nov_28_1002,ProdSingRedoBetween,2021.2.3,59.97825170636562,
,,,,65,0,65,0,,,,,,,,,,,,,,,,,,,,,,763.1729621002451,None,,,,,,,,,,,,,,,,,,bicycle,79,66,aloud,old,red,760.949703999795,None,760.949703999795,None,6,1.4227041993290186,760.949703999795,None,1.4227041993290186,762.3901311000809,None,762.8960030004382,None,762.8960030004382,None,r,0.26036780048161745,762.8960030004382,None,0.26036780048161745,,,98Aloud,001,2022_Nov_28_1002,ProdSingRedoBetween,2021.2.3,59.97825170636562,
,,,,66,0,66,0,,,,,,,,,,,,,,,,,,,,,,767.7275470001623,None,,,,,,,,,,,,,,,,,,bucket,18,67,aloud,old,yellow,763.6879757000133,None,763.6879757000133,None,4,3.3404272003099322,763.6879757000133,None,3.3404272003099322,767.0446731001139,None,767.5527082998306,None,767.5527082998306,None,f,0.15567579958587885,767.5527082998306,None,0.15567579958587885,,,98Aloud,001,2022_Nov_28_1002,ProdSingRedoBetween,2021.2.3,59.97825170636562,
,,,,67,0,67,0,,,,,,,,,,,,,,,,,,,,,,773.6001968001947,None,,,,,,,,,,,,,,,,,,produce,168,68,aloud,new,null,768.2357179000974,None,768.2357179000974,None,5,4.560736900195479,768.2357179000974,None,4.560736900195479,772.825938699767,None,773.3353251004592,None,773.3353251004592,None,f,0.2451945999637246,773.3353251004592,None,0.2451945999637246,,,98Aloud,001,2022_Nov_28_1002,ProdSingRedoBetween,2021.2.3,59.97825170636562,
,,,,68,0,68,0,,,,,,,,,,,,,,,,,,,,,,778.0544503005221,None,,,,,,,,,,,,,,,,,,atmosphere,91,69,aloud,new,null,774.107846500352,None,774.107846500352,None,3,3.1604474000632763,774.107846500352,None,3.1604474000632763,777.2876180000603,None,777.7919739000499,None,777.7919739000499,None,n,0.23643869999796152,777.7919739000499,None,0.23643869999796152,,,98Aloud,001,2022_Nov_28_1002,ProdSingRedoBetween,2021.2.3,59.97825170636562,
,,,,69,0,69,0,,,,,,,,,,,,,,,,,,,,,,782.2587040998042,None,,,,,,,,,,,,,,,,,,session,17,70,aloud,old,yellow,778.5591609003022,None,778.5591609003022,None,6,2.069227499887347,778.5591609003022,None,2.069227499887347,780.6579458005726,None,781.1576420003548,None,781.1576420003548,None,r,1.0707262996584177,781.1576420003548,None,1.0707262996584177,,,98Aloud,001,2022_Nov_28_1002,ProdSingRedoBetween,2021.2.3,59.97825170636562,
,,,,70,0,70,0,,,,,,,,,,,,,,,,,,,,,,787.7317115999758,None,,,,,,,,,,,,,,,,,,beginning,65,71,aloud,old,red,782.7594800004736,None,782.7594800004736,None,3,4.084936999715865,782.7594800004736,None,4.084936999715865,786.8640775997192,None,787.37099079974,None,787.37099079974,None,n,0.3373869005590677,787.37099079974,None,0.3373869005590677,,,98Aloud,001,2022_Nov_28_1002,ProdSingRedoBetween,2021.2.3,59.97825170636562,
,,,,71,0,71,0,,,,,,,,,,,,,,,,,,,,,,791.5512915002182,None,,,,,,,,,,,,,,,,,,marriage,105,72,aloud,new,null,788.243742399849,None,788.243742399849,None,2,2.3846134999766946,788.243742399849,None,2.3846134999766946,790.65133399982,None,791.1509779002517,None,791.1509779002517,None,n,0.3733515003696084,791.1509779002517,None,0.3733515003696084,,,98Aloud,001,2022_Nov_28_1002,ProdSingRedoBetween,2021.2.3,59.97825170636562,
,,,,72,0,72,0,,,,,,,,,,,,,,,,,,,,,,795.3048047004268,None,,,,,,,,,,,,,,,,,,crime,83,73,aloud,old,red,792.0637651002035,None,792.0637651002035,None,1,2.372515800409019,792.0637651002035,None,2.372515800409019,794.4559717001393,None,794.9751351997256,None,794.9751351997256,None,n,0.3092105994001031,794.9751351997256,None,0.3092105994001031,,,98Aloud,001,2022_Nov_28_1002,ProdSingRedoBetween,2021.2.3,59.97825170636562,
,,,,73,0,73,0,,,,,,,,,,,,,,,,,,,,,,799.9933603005484,None,,,,,,,,,,,,,,,,,,cover,7,74,aloud,old,yellow,795.8146633999422,None,795.8146633999422,None,3,3.397661100141704,795.8146633999422,None,3.397661100141704,799.243972199969,None,799.7470300998539,None,799.7470300998539,None,n,0.21737660001963377,799.7470300998539,None,0.21737660001963377,,,98Aloud,001,2022_Nov_28_1002,ProdSingRedoBetween,2021.2.3,59.97825170636562,
,,,,74,0,74,0,,,,,,,,,,,,,,,,,,,,,,804.1471730004996,None,,,,,,,,,,,,,,,,,,union,8,75,aloud,old,yellow,800.502547999844,None,800.502547999844,None,5,2.405673200264573,800.502547999844,None,2.405673200264573,802.9293081006035,None,803.4323954004794,None,803.4323954004794,None,f,0.6838343003764749,803.4323954004794,None,0.6838343003764749,,,98Aloud,001,2022_Nov_28_1002,ProdSingRedoBetween,2021.2.3,59.97825170636562,
,,,,75,0,75,0,,,,,,,,,,,,,,,,,,,,,,809.0185211002827,None,,,,,,,,,,,,,,,,,,position,131,76,aloud,new,null,804.6542114000767,None,804.6542114000767,None,6,3.438112199306488,804.6542114000767,None,3.438112199306488,808.1190277002752,None,808.6348652997985,None,808.6348652997985,None,r,0.36932789999991655,808.6348652997985,None,0.36932789999991655,,,98Aloud,001,2022_Nov_28_1002,ProdSingRedoBetween,2021.2.3,59.97825170636562,
,,,,76,0,76,0,,,,,,,,,,,,,,,,,,,,,,813.6065811002627,None,,,,,,,,,,,,,,,,,,burden,58,77,aloud,old,blue,809.51928950008,None,809.51928950008,None,4,3.437262300401926,809.51928950008,None,3.437262300401926,812.9798852000386,None,813.490175999701,None,813.490175999701,None,f,0.09016159921884537,813.490175999701,None,0.09016159921884537,,,98Aloud,001,2022_Nov_28_1002,ProdSingRedoBetween,2021.2.3,59.97825170636562,
,,,,77,0,77,0,,,,,,,,,,,,,,,,,,,,,,817.6273063998669,None,,,,,,,,,,,,,,,,,,portion,141,78,aloud,new,null,814.1096159005538,None,814.1096159005538,None,2,2.510693700052798,814.1096159005538,None,2.510693700052798,816.6439992999658,None,817.1460362002254,None,817.1460362002254,None,n,0.45828070025891066,817.1460362002254,None,0.45828070025891066,,,98Aloud,001,2022_Nov_28_1002,ProdSingRedoBetween,2021.2.3,59.97825170636562,
,,,,78,0,78,0,,,,,,,,,,,,,,,,,,,,,,820.6968916002661,None,,,,,,,,,,,,,,,,,,military,147,79,aloud,new,null,818.1293109003454,None,818.1293109003454,None,1,1.6989564998075366,818.1293109003454,None,1.6989564998075366,819.8472849000245,None,820.3467274997383,None,820.3467274997383,None,n,0.3295621005818248,820.3467274997383,None,0.3295621005818248,,,98Aloud,001,2022_Nov_28_1002,ProdSingRedoBetween,2021.2.3,59.97825170636562,
,,,,79,0,79,0,,,,,,,,,,,,,,,,,,,,,,824.6704433001578,None,,,,,,,,,,,,,,,,,,prime,111,80,aloud,new,null,821.1973179997876,None,821.1973179997876,None,1,2.7349713006988168,821.1973179997876,None,2.7349713006988168,823.9514645002782,None,824.4519825000316,None,824.4519825000316,None,n,0.19253419991582632,824.4519825000316,None,0.19253419991582632,,,98Aloud,001,2022_Nov_28_1002,ProdSingRedoBetween,2021.2.3,59.97825170636562,
,,,,80,0,80,0,,,,,,,,,,,,,,,,,,,,,,828.7883766004816,None,,,,,,,,,,,,,,,,,,power,69,81,aloud,old,red,825.2055518003181,None,825.2055518003181,None,2,2.7828296003863215,825.2055518003181,None,2.7828296003863215,828.0130008002743,None,828.5239649005234,None,828.5239649005234,None,n,0.2403506003320217,828.5239649005234,None,0.2403506003320217,,,98Aloud,001,2022_Nov_28_1002,ProdSingRedoBetween,2021.2.3,59.97825170636562,
,,,,81,0,81,0,,,,,,,,,,,,,,,,,,,,,,832.0080367000774,None,,,,,,,,,,,,,,,,,,center,28,82,aloud,old,yellow,829.2996500004083,None,829.2996500004083,None,2,1.848560499958694,829.2996500004083,None,1.848560499958694,831.1748842997476,None,831.6786666000262,None,831.6786666000262,None,n,0.30193910002708435,831.6786666000262,None,0.30193910002708435,,,98Aloud,001,2022_Nov_28_1002,ProdSingRedoBetween,2021.2.3,59.97825170636562,
,,,,82,0,82,0,,,,,,,,,,,,,,,,,,,,,,834.9778680000454,None,,,,,,,,,,,,,,,,,,afternoon,107,83,aloud,new,null,832.5130964005366,None,832.5130964005366,None,1,1.6671791998669505,832.5130964005366,None,1.6671791998669505,834.2113402998075,None,834.7169701000676,None,834.7169701000676,None,n,0.2394572999328375,834.7169701000676,None,0.2394572999328375,,,98Aloud,001,2022_Nov_28_1002,ProdSingRedoBetween,2021.2.3,59.97825170636562,
,,,,83,0,83,0,,,,,,,,,,,,,,,,,,,,,,837.8807559004053,None,,,,,,,,,,,,,,,,,,style,40,84,aloud,old,blue,835.4831875003874,None,835.4831875003874,None,6,1.5451268004253507,835.4831875003874,None,1.5451268004253507,837.0543402004987,None,837.5685045002028,None,837.5685045002028,None,r,0.28377179987728596,837.5685045002028,None,0.28377179987728596,,,98Aloud,001,2022_Nov_28_1002,ProdSingRedoBetween,2021.2.3,59.97825170636562,
,,,,84,0,84,0,,,,,,,,,,,,,,,,,,,,,,841.1674691000953,None,,,,,,,,,,,,,,,,,,incident,33,85,aloud,old,blue,838.3827772000805,None,838.3827772000805,None,6,1.9974671993404627,838.3827772000805,None,1.9974671993404627,840.3997563999146,None,840.9006091002375,None,840.9006091002375,None,r,0.2397528998553753,840.9006091002375,None,0.2397528998553753,,,98Aloud,001,2022_Nov_28_1002,ProdSingRedoBetween,2021.2.3,59.97825170636562,
,,,,85,0,85,0,,,,,,,,,,,,,,,,,,,,,,844.3539243005216,None,,,,,,,,,,,,,,,,,,smell,133,86,aloud,new,null,841.683819600381,None,841.683819600381,None,1,1.9123999997973442,841.683819600381,None,1.9123999997973442,843.6210345998406,None,844.129599600099,None,844.129599600099,None,n,0.19468319974839687,844.129599600099,None,0.19468319974839687,,,98Aloud,001,2022_Nov_28_1002,ProdSingRedoBetween,2021.2.3,59.97825170636562,
,,,,86,0,86,0,,,,,,,,,,,,,,,,,,,,,,850.2430925006047,None,,,,,,,,,,,,,,,,,,rough,24,87,aloud,old,yellow,844.8663544999436,None,844.8663544999436,None,4,4.561859200708568,844.8663544999436,None,4.561859200708568,849.4589899005368,None,849.962362700142,None,849.962362700142,None,f,0.26591460034251213,849.962362700142,None,0.26591460034251213,,,98Aloud,001,2022_Nov_28_1002,ProdSingRedoBetween,2021.2.3,59.97825170636562,
,,,,87,0,87,0,,,,,,,,,,,,,,,,,,,,,,855.6158177005127,None,,,,,,,,,,,,,,,,,,history,52,88,aloud,old,blue,850.7503398004919,None,850.7503398004919,None,6,4.061936900019646,850.7503398004919,None,4.061936900019646,854.8321626000106,None,855.335197600536,None,855.335197600536,None,r,0.26112599950283766,855.335197600536,None,0.26112599950283766,,,98Aloud,001,2022_Nov_28_1002,ProdSingRedoBetween,2021.2.3,59.97825170636562,
,,,,88,0,88,0,,,,,,,,,,,,,,,,,,,,,,858.6682567996904,None,,,,,,,,,,,,,,,,,,junior,12,89,aloud,old,yellow,856.116247500293,None,856.116247500293,None,4,1.656011899933219,856.116247500293,None,1.656011899933219,857.801516700536,None,858.3063382003456,None,858.3063382003456,None,f,0.3458879003301263,858.3063382003456,None,0.3458879003301263,,,98Aloud,001,2022_Nov_28_1002,ProdSingRedoBetween,2021.2.3,59.97825170636562,
,,,,89,0,89,0,,,,,,,,,,,,,,,,,,,,,,863.6565340999514,None,,,,,,,,,,,,,,,,,,court,49,90,aloud,old,blue,859.180761099793,None,859.180761099793,None,6,3.6394597003236413,859.180761099793,None,3.6394597003236413,862.8388745002449,None,863.3421726999804,None,863.3421726999804,None,r,0.28606760036200285,863.3421726999804,None,0.28606760036200285,,,98Aloud,001,2022_Nov_28_1002,ProdSingRedoBetween,2021.2.3,59.97825170636562,
,,,,90,0,90,0,,,,,,,,,,,,,,,,,,,,,,866.7463113004342,None,,,,,,,,,,,,,,,,,,month,173,91,aloud,new,null,864.1623812001199,None,864.1623812001199,None,1,1.9619381995871663,864.1623812001199,None,1.9619381995871663,866.1516901003197,None,866.6593623002991,None,866.6593623002991,None,n,0.05687240045517683,866.6593623002991,None,0.05687240045517683,,,98Aloud,001,2022_Nov_28_1002,ProdSingRedoBetween,2021.2.3,59.97825170636562,
,,,,91,0,91,0,,,,,,,,,,,,,,,,,,,,,,870.5139295002446,None,,,,,,,,,,,,,,,,,,drink,104,92,aloud,new,null,867.27605890017,None,867.27605890017,None,1,1.9281454998999834,867.27605890017,None,1.9281454998999834,869.2319523999467,None,869.7460484001786,None,869.7460484001786,None,n,0.7382640996947885,869.7460484001786,None,0.7382640996947885,,,98Aloud,001,2022_Nov_28_1002,ProdSingRedoBetween,2021.2.3,59.97825170636562,
,,,,92,0,92,0,,,,,,,,,,,,,,,,,,,,,,873.199289499782,None,,,,,,,,,,,,,,,,,,surface,149,93,aloud,new,null,871.0195345999673,None,871.0195345999673,None,1,1.3525885995477438,871.0195345999673,None,1.3525885995477438,872.4003290003166,None,872.9180637998506,None,872.9180637998506,None,n,0.25406309962272644,872.9180637998506,None,0.25406309962272644,,,98Aloud,001,2022_Nov_28_1002,ProdSingRedoBetween,2021.2.3,59.97825170636562,
,,,,93,0,93,0,,,,,,,,,,,,,,,,,,,,,,876.3024690998718,None,,,,,,,,,,,,,,,,,,empty,118,94,aloud,new,null,873.7077788999304,None,873.7077788999304,None,1,1.8163188993930817,873.7077788999304,None,1.8163188993930817,875.5524655999616,None,876.0582634005696,None,876.0582634005696,None,n,0.21785600017756224,876.0582634005696,None,0.21785600017756224,,,98Aloud,001,2022_Nov_28_1002,ProdSingRedoBetween,2021.2.3,59.97825170636562,
,,,,94,0,94,0,,,,,,,,,,,,,,,,,,,,,,879.240609000437,None,,,,,,,,,,,,,,,,,,motion,165,95,aloud,new,null,876.8118535997346,None,876.8118535997346,None,2,1.7442659996449947,876.8118535997346,None,1.7442659996449947,878.5723077002913,None,879.0720159001648,None,879.0720159001648,None,n,0.14815849997103214,879.0720159001648,None,0.14815849997103214,,,98Aloud,001,2022_Nov_28_1002,ProdSingRedoBetween,2021.2.3,59.97825170636562,
,,,,95,0,95,0,,,,,,,,,,,,,,,,,,,,,,883.1448226002976,None,,,,,,,,,,,,,,,,,,threat,61,96,aloud,old,red,879.7564602997154,None,879.7564602997154,None,4,2.7758341003209352,879.7564602997154,None,2.7758341003209352,882.5592806003988,None,883.0590706001967,None,883.0590706001967,None,f,0.05700580030679703,883.0590706001967,None,0.05700580030679703,,,98Aloud,001,2022_Nov_28_1002,ProdSingRedoBetween,2021.2.3,59.97825170636562,
,,,,96,0,96,0,,,,,,,,,,,,,,,,,,,,,,885.5665532005951,None,,,,,,,,,,,,,,,,,,personnel,46,97,aloud,old,blue,883.6708816001192,None,883.6708816001192,None,6,1.33322439994663,883.6708816001192,None,1.33322439994663,885.027632500045,None,885.5283768000081,None,885.5283768000081,None,r,0.011746600270271301,885.5283768000081,None,0.011746600270271301,,,98Aloud,001,2022_Nov_28_1002,ProdSingRedoBetween,2021.2.3,59.97825170636562,
,,,,97,0,97,0,,,,,,,,,,,,,,,,,,,,,,888.734438800253,None,,,,,,,,,,,,,,,,,,cousin,143,98,aloud,new,null,886.0833938000724,None,886.0833938000724,None,1,1.6808297000825405,886.0833938000724,None,1.6808297000825405,887.7816689005122,None,888.2856550998986,None,888.2856550998986,None,n,0.4227083995938301,888.2856550998986,None,0.4227083995938301,,,98Aloud,001,2022_Nov_28_1002,ProdSingRedoBetween,2021.2.3,59.97825170636562,
,,,,98,0,98,0,,,,,,,,,,,,,,,,,,,,,,892.1021936004981,None,,,,,,,,,,,,,,,,,,medicine,117,99,aloud,new,null,889.2535506002605,None,889.2535506002605,None,1,1.9988341005519032,889.2535506002605,None,1.9988341005519032,891.2743306998163,None,891.7902735006064,None,891.7902735006064,None,n,0.28591099940240383,891.7902735006064,None,0.28591099940240383,,,98Aloud,001,2022_Nov_28_1002,ProdSingRedoBetween,2021.2.3,59.97825170636562,
,,,,99,0,99,0,,,,,,,,,,,,,,,,,,,,,,897.0731073003262,None,,,,,,,,,,,,,,,,,,report,9,100,aloud,old,yellow,892.6052165003493,None,892.6052165003493,None,3,3.654959199950099,892.6052165003493,None,3.654959199950099,896.2897749999538,None,896.7948200004175,None,896.7948200004175,None,n,0.24942449945956469,896.7948200004175,None,0.24942449945956469,,,98Aloud,001,2022_Nov_28_1002,ProdSingRedoBetween,2021.2.3,59.97825170636562,
,,,,100,0,100,0,,,,,,,,,,,,,,,,,,,,,,900.980987300165,None,,,,,,,,,,,,,,,,,,break,123,101,aloud,new,null,897.5943633997813,None,897.5943633997813,None,3,2.5937820998951793,897.5943633997813,None,2.5937820998951793,900.2109791003168,None,900.7153109004721,None,900.7153109004721,None,n,0.24112780019640923,900.7153109004721,None,0.24112780019640923,,,98Aloud,001,2022_Nov_28_1002,ProdSingRedoBetween,2021.2.3,59.97825170636562,
,,,,101,0,101,0,,,,,,,,,,,,,,,,,,,,,,904.8642554003745,None,,,,,,,,,,,,,,,,,,stand,166,102,aloud,new,null,901.4968236004934,None,901.4968236004934,None,2,2.643319300375879,901.4968236004934,None,2.643319300375879,904.1647947002202,None,904.6674359999597,None,904.6674359999597,None,n,0.16876670066267252,904.6674359999597,None,0.16876670066267252,,,98Aloud,001,2022_Nov_28_1002,ProdSingRedoBetween,2021.2.3,59.97825170636562,
,,,,102,0,102,0,,,,,,,,,,,,,,,,,,,,,,908.184234100394,None,,,,,,,,,,,,,,,,,,bitter,129,103,aloud,new,null,905.3646860998124,None,905.3646860998124,None,1,2.1354286996647716,905.3646860998124,None,2.1354286996647716,907.5175302997231,None,908.020902399905,None,908.020902399905,None,n,0.13525399938225746,908.020902399905,None,0.13525399938225746,,,98Aloud,001,2022_Nov_28_1002,ProdSingRedoBetween,2021.2.3,59.97825170636562,
,,,,103,0,103,0,,,,,,,,,,,,,,,,,,,,,,910.7081380002201,None,,,,,,,,,,,,,,,,,,goose,90,104,aloud,new,null,908.6955417003483,None,908.6955417003483,None,1,1.3966013994067907,908.6955417003483,None,1.3966013994067907,910.1240889998153,None,910.6408227002248,None,910.6408227002248,None,n,0.035461099818348885,910.6408227002248,None,0.035461099818348885,,,98Aloud,001,2022_Nov_28_1002,ProdSingRedoBetween,2021.2.3,59.97825170636562,
,,,,104,0,104,0,,,,,,,,,,,,,,,,,,,,,,914.3749596998096,None,,,,,,,,,,,,,,,,,,defeat,22,105,aloud,old,yellow,911.2257134998217,None,911.2257134998217,None,3,2.2505751997232437,911.2257134998217,None,2.2505751997232437,913.5124939000234,None,914.032054499723,None,914.032054499723,None,n,0.32413459941744804,914.032054499723,None,0.32413459941744804,,,98Aloud,001,2022_Nov_28_1002,ProdSingRedoBetween,2021.2.3,59.97825170636562,
,,,,105,0,105,0,,,,,,,,,,,,,,,,,,,,,,917.1644874000922,None,,,,,,,,,,,,,,,,,,short,159,106,aloud,new,null,914.8834022004157,None,914.8834022004157,None,3,1.6727167004719377,914.8834022004157,None,1.6727167004719377,916.575915100053,None,917.0818611001596,None,917.0818611001596,None,n,0.050439899787306786,917.0818611001596,None,0.050439899787306786,,,98Aloud,001,2022_Nov_28_1002,ProdSingRedoBetween,2021.2.3,59.97825170636562,
,,,,106,0,106,0,,,,,,,,,,,,,,,,,,,,,,921.1304755005985,None,,,,,,,,,,,,,,,,,,article,154,107,aloud,new,null,917.6804758002982,None,917.6804758002982,None,6,2.827645999379456,917.6804758002982,None,2.827645999379456,920.5308102006093,None,921.0369846997783,None,921.0369846997783,None,r,0.07127190008759499,921.0369846997783,None,0.07127190008759499,,,98Aloud,001,2022_Nov_28_1002,ProdSingRedoBetween,2021.2.3,59.97825170636562,
,,,,107,0,107,0,,,,,,,,,,,,,,,,,,,,,,923.800819600001,None,,,,,,,,,,,,,,,,,,waste,20,108,aloud,old,yellow,921.6384260002524,None,921.6384260002524,None,4,1.5097257997840643,921.6384260002524,None,1.5097257997840643,923.1724569005892,None,923.683991599828,None,923.683991599828,None,f,0.08819529972970486,923.683991599828,None,0.08819529972970486,,,98Aloud,001,2022_Nov_28_1002,ProdSingRedoBetween,2021.2.3,59.97825170636562,
,,,,108,0,108,0,,,,,,,,,,,,,,,,,,,,,,928.1902830004692,None,,,,,,,,,,,,,,,,,,testimony,156,109,aloud,new,null,924.3048050003126,None,924.3048050003126,None,3,2.819441500119865,924.3048050003126,None,2.819441500119865,927.1595692997798,None,927.6796655999497,None,927.6796655999497,None,n,0.4846449997276068,927.6796655999497,None,0.4846449997276068,,,98Aloud,001,2022_Nov_28_1002,ProdSingRedoBetween,2021.2.3,59.97825170636562,
,,,,109,0,109,0,,,,,,,,,,,,,,,,,,,,,,934.0266835996881,None,,,,,,,,,,,,,,,,,,contract,66,110,aloud,old,red,928.7060548998415,None,928.7060548998415,None,4,4.473956700414419,928.7060548998415,None,4.473956700414419,933.2092257002369,None,933.7120059998706,None,933.7120059998706,None,f,0.292119599878788,933.7120059998706,None,0.292119599878788,,,98Aloud,001,2022_Nov_28_1002,ProdSingRedoBetween,2021.2.3,59.97825170636562,
,,,,110,0,110,0,,,,,,,,,,,,,,,,,,,,,,937.7968746004626,None,,,,,,,,,,,,,,,,,,degree,29,111,aloud,old,blue,934.5344072999433,None,934.5344072999433,None,4,2.605673199519515,934.5344072999433,None,2.605673199519515,937.162913300097,None,937.663774699904,None,937.663774699904,None,f,0.11632320005446672,937.663774699904,None,0.11632320005446672,,,98Aloud,001,2022_Nov_28_1002,ProdSingRedoBetween,2021.2.3,59.97825170636562,
,,,,111,0,111,0,,,,,,,,,,,,,,,,,,,,,,941.7353575006127,None,,,,,,,,,,,,,,,,,,nation,157,112,aloud,new,null,938.3120828997344,None,938.3120828997344,None,3,2.731984999962151,938.3120828997344,None,2.731984999962151,941.0667735002935,None,941.5752840004861,None,941.5752840004861,None,n,0.132842599414289,941.5752840004861,None,0.132842599414289,,,98Aloud,001,2022_Nov_28_1002,ProdSingRedoBetween,2021.2.3,59.97825170636562,
,,,,112,0,112,0,,,,,,,,,,,,,,,,,,,,,,944.9041731003672,None,,,,,,,,,,,,,,,,,,appearance,144,113,aloud,new,null,942.2400732003152,None,942.2400732003152,None,1,1.9399887006729841,942.2400732003152,None,1.9399887006729841,944.2046427000314,None,944.7084389999509,None,944.7084389999509,None,n,0.17570329923182726,944.7084389999509,None,0.17570329923182726,,,98Aloud,001,2022_Nov_28_1002,ProdSingRedoBetween,2021.2.3,59.97825170636562,
,,,,113,0,113,0,,,,,,,,,,,,,,,,,,,,,,949.5421304004267,None,,,,,,,,,,,,,,,,,,population,67,114,aloud,old,red,945.4158014999703,None,945.4158014999703,None,4,3.2602733997628093,945.4158014999703,None,3.2602733997628093,948.6954298997298,None,949.2086966000497,None,949.2086966000497,None,f,0.3072964996099472,949.2086966000497,None,0.3072964996099472,,,98Aloud,001,2022_Nov_28_1002,ProdSingRedoBetween,2021.2.3,59.97825170636562,
,,,,114,0,114,0,,,,,,,,,,,,,,,,,,,,,,953.9465789003298,None,,,,,,,,,,,,,,,,,,people,31,115,aloud,old,blue,950.0509945005178,None,950.0509945005178,None,2,2.0972723001614213,950.0509945005178,None,2.0972723001614213,952.1841333005577,None,952.696221800521,None,952.696221800521,None,n,1.21983249951154,952.696221800521,None,1.21983249951154,,,98Aloud,001,2022_Nov_28_1002,ProdSingRedoBetween,2021.2.3,59.97825170636562,
,,,,115,0,115,0,,,,,,,,,,,,,,,,,,,,,,958.0005349004641,None,,,,,,,,,,,,,,,,,,election,106,116,aloud,new,null,954.4543107999489,None,954.4543107999489,None,2,2.3817582996562123,954.4543107999489,None,2.3817582996562123,956.8659845003858,None,957.3687348999083,None,957.3687348999083,None,n,0.6113576991483569,957.3687348999083,None,0.6113576991483569,,,98Aloud,001,2022_Nov_28_1002,ProdSingRedoBetween,2021.2.3,59.97825170636562,
,,,,116,0,116,0,,,,,,,,,,,,,,,,,,,,,,961.4706626003608,None,,,,,,,,,,,,,,,,,,listen,35,117,aloud,old,blue,958.5086379004642,None,958.5086379004642,None,3,2.143409600481391,958.5086379004642,None,2.143409600481391,960.6722344001755,None,961.1872421000153,None,961.1872421000153,None,n,0.26485069934278727,961.1872421000153,None,0.26485069934278727,,,98Aloud,001,2022_Nov_28_1002,ProdSingRedoBetween,2021.2.3,59.97825170636562,
,,,,117,0,117,0,,,,,,,,,,,,,,,,,,,,,,965.4580477997661,None,,,,,,,,,,,,,,,,,,interior,163,118,aloud,new,null,961.985215799883,None,961.985215799883,None,3,2.330891899764538,961.985215799883,None,2.330891899764538,964.3561917003244,None,964.857583399862,None,964.857583399862,None,n,0.5784967998042703,964.857583399862,None,0.5784967998042703,,,98Aloud,001,2022_Nov_28_1002,ProdSingRedoBetween,2021.2.3,59.97825170636562,
,,,,118,0,118,0,,,,,,,,,,,,,,,,,,,,,,968.5974185001105,None,,,,,,,,,,,,,,,,,,shock,27,119,aloud,old,yellow,965.9633379997686,None,965.9633379997686,None,3,1.6407038001343608,965.9633379997686,None,1.6407038001343608,967.6295060003176,None,968.1441460000351,None,968.1441460000351,None,n,0.4279730003327131,968.1441460000351,None,0.4279730003327131,,,98Aloud,001,2022_Nov_28_1002,ProdSingRedoBetween,2021.2.3,59.97825170636562,
,,,,119,0,119,0,,,,,,,,,,,,,,,,,,,,,,971.5686288001016,None,,,,,,,,,,,,,,,,,,quick,113,120,aloud,new,null,969.1257413998246,None,969.1257413998246,None,1,1.7504011997953057,969.1257413998246,None,1.7504011997953057,970.9042119998485,None,971.4140774002299,None,971.4140774002299,None,n,0.13402209989726543,971.4140774002299,None,0.13402209989726543,,,98Aloud,001,2022_Nov_28_1002,ProdSingRedoBetween,2021.2.3,59.97825170636562,
,,,,120,0,120,0,,,,,,,,,,,,,,,,,,,,,,978.4713102998212,None,,,,,,,,,,,,,,,,,,primary,151,121,aloud,new,null,972.0855418005958,None,972.0855418005958,None,2,5.57444960065186,972.0855418005958,None,5.57444960065186,977.6878300001845,None,978.193664200604,None,978.193664200604,None,n,0.2584574995562434,978.193664200604,None,0.2584574995562434,,,98Aloud,001,2022_Nov_28_1002,ProdSingRedoBetween,2021.2.3,59.97825170636562,
,,,,121,0,121,0,,,,,,,,,,,,,,,,,,,,,,981.8743757000193,None,,,,,,,,,,,,,,,,,,object,19,122,aloud,old,yellow,978.974339700304,None,978.974339700304,None,3,2.1816742001101375,978.974339700304,None,2.1816742001101375,981.1748192999512,None,981.6782788001001,None,981.6782788001001,None,n,0.16573149990290403,981.6782788001001,None,0.16573149990290403,,,98Aloud,001,2022_Nov_28_1002,ProdSingRedoBetween,2021.2.3,59.97825170636562,
,,,,122,0,122,0,,,,,,,,,,,,,,,,,,,,,,984.8774308003485,None,,,,,,,,,,,,,,,,,,mechanical,30,123,aloud,old,blue,982.3841991005465,None,982.3841991005465,None,3,1.7317451993003488,982.3841991005465,None,1.7317451993003488,984.1433538002893,None,984.6439255997539,None,984.6439255997539,None,n,0.21608909964561462,984.6439255997539,None,0.21608909964561462,,,98Aloud,001,2022_Nov_28_1002,ProdSingRedoBetween,2021.2.3,59.97825170636562,
,,,,123,0,123,0,,,,,,,,,,,,,,,,,,,,,,987.8637001998723,None,,,,,,,,,,,,,,,,,,industry,146,124,aloud,new,null,985.386374800466,None,985.386374800466,None,1,1.8177260998636484,985.386374800466,None,1.8177260998636484,987.2342039998621,None,987.7485605003312,None,987.7485605003312,None,n,0.08741619996726513,987.7485605003312,None,0.08741619996726513,,,98Aloud,001,2022_Nov_28_1002,ProdSingRedoBetween,2021.2.3,59.97825170636562,
,,,,124,0,124,0,,,,,,,,,,,,,,,,,,,,,,990.4830448003486,None,,,,,,,,,,,,,,,,,,drama,84,125,aloud,old,red,988.3767133997753,None,988.3767133997753,None,2,1.2912419000640512,988.3767133997753,None,1.2912419000640512,989.6994821997359,None,990.2037978004664,None,990.2037978004664,None,n,0.2561959996819496,990.2037978004664,None,0.2561959996819496,,,98Aloud,001,2022_Nov_28_1002,ProdSingRedoBetween,2021.2.3,59.97825170636562,
,,,,125,0,125,0,,,,,,,,,,,,,,,,,,,,,,997.7234781002626,None,,,,,,,,,,,,,,,,,,dispute,77,126,aloud,old,red,990.9911957997829,None,990.9911957997829,None,5,5.86094790045172,990.9911957997829,None,5.86094790045172,996.8788207005709,None,997.3918305002153,None,997.3918305002153,None,f,0.3082140004262328,997.3918305002153,None,0.3082140004262328,,,98Aloud,001,2022_Nov_28_1002,ProdSingRedoBetween,2021.2.3,59.97825170636562,
,,,,126,0,126,0,,,,,,,,,,,,,,,,,,,,,,1001.9277108004317,None,,,,,,,,,,,,,,,,,,growth,41,127,aloud,old,blue,998.2339177001268,None,998.2339177001268,None,6,3.0340278996154666,998.2339177001268,None,3.0340278996154666,1001.2958410996944,None,1001.8111207000911,None,1001.8111207000911,None,r,0.09689739998430014,1001.8111207000911,None,0.09689739998430014,,,98Aloud,001,2022_Nov_28_1002,ProdSingRedoBetween,2021.2.3,59.97825170636562,
,,,,127,0,127,0,,,,,,,,,,,,,,,,,,,,,,1004.6805475000292,None,,,,,,,,,,,,,,,,,,second,56,128,aloud,old,blue,1002.4374770997092,None,1002.4374770997092,None,2,1.4624841008335352,1002.4374770997092,None,1.4624841008335352,1003.9305643001571,None,1004.4341023005545,None,1004.4341023005545,None,n,0.21789340022951365,1004.4341023005545,None,0.21789340022951365,,,98Aloud,001,2022_Nov_28_1002,ProdSingRedoBetween,2021.2.3,59.97825170636562,
,,,,128,0,128,0,,,,,,,,,,,,,,,,,,,,,,1008.1672622999176,None,,,,,,,,,,,,,,,,,,production,11,129,aloud,old,yellow,1005.1914250003174,None,1005.1914250003174,None,5,2.2525702007114887,1005.1914250003174,None,2.2525702007114887,1007.4687315002084,None,1007.989527400583,None,1007.989527400583,None,f,0.15841019991785288,1007.989527400583,None,0.15841019991785288,,,98Aloud,001,2022_Nov_28_1002,ProdSingRedoBetween,2021.2.3,59.97825170636562,
,,,,129,0,129,0,,,,,,,,,,,,,,,,,,,,,,1010.7899382999167,None,,,,,,,,,,,,,,,,,,victory,153,130,aloud,new,null,1008.6836777003482,None,1008.6836777003482,None,1,1.3922816002741456,1008.6836777003482,None,1.3922816002741456,1010.1045944001526,None,1010.6199462004006,None,1010.6199462004006,None,n,0.1440459005534649,1010.6199462004006,None,0.1440459005534649,,,98Aloud,001,2022_Nov_28_1002,ProdSingRedoBetween,2021.2.3,59.97825170636562,
,,,,130,0,130,0,,,,,,,,,,,,,,,,,,,,,,1013.4402325004339,None,,,,,,,,,,,,,,,,,,finance,64,131,aloud,old,red,1011.3045877004042,None,1011.3045877004042,None,6,1.3075380995869637,1011.3045877004042,None,1.3075380995869637,1012.639573100023,None,1013.143029300496,None,1013.143029300496,None,r,0.26907670032233,1013.143029300496,None,0.26907670032233,,,98Aloud,001,2022_Nov_28_1002,ProdSingRedoBetween,2021.2.3,59.97825170636562,
,,,,131,0,131,0,,,,,,,,,,,,,,,,,,,,,,1015.975139000453,None,,,,,,,,,,,,,,,,,,broke,10,132,aloud,old,yellow,1013.9399477997795,None,1013.9399477997795,None,1,1.3201024001464248,1013.9399477997795,None,1.3201024001464248,1015.2920033996925,None,1015.7976553998888,None,1015.7976553998888,None,n,0.1504993997514248,1015.7976553998888,None,0.1504993997514248,,,98Aloud,001,2022_Nov_28_1002,ProdSingRedoBetween,2021.2.3,59.97825170636562,
,,,,132,0,132,0,,,,,,,,,,,,,,,,,,,,,,1019.128019399941,None,,,,,,,,,,,,,,,,,,native,88,133,aloud,old,red,1016.4811939997599,None,1016.4811939997599,None,5,1.906657999381423,1016.4811939997599,None,1.906657999381423,1018.4119143001735,None,1018.9112605005503,None,1018.9112605005503,None,f,0.18864039983600378,1018.9112605005503,None,0.18864039983600378,,,98Aloud,001,2022_Nov_28_1002,ProdSingRedoBetween,2021.2.3,59.97825170636562,
,,,,133,0,133,0,,,,,,,,,,,,,,,,,,,,,,1022.0984172001481,None,,,,,,,,,,,,,,,,,,poetry,70,134,aloud,old,red,1019.645727599971,None,1019.645727599971,None,6,1.5341756995767355,1019.645727599971,None,1.5341756995767355,1021.1983725000173,None,1021.697641200386,None,1021.697641200386,None,r,0.3703353004530072,1021.697641200386,None,0.3703353004530072,,,98Aloud,001,2022_Nov_28_1002,ProdSingRedoBetween,2021.2.3,59.97825170636562,
,,,,134,0,134,0,,,,,,,,,,,,,,,,,,,,,,1026.2686721999198,None,,,,,,,,,,,,,,,,,,passage,171,135,aloud,new,null,1022.6062409998849,None,1022.6062409998849,None,3,2.1977220000699162,1022.6062409998849,None,2.1977220000699162,1024.8360710004345,None,1025.355419700034,None,1025.355419700034,None,n,0.8885436002165079,1025.355419700034,None,0.8885436002165079,,,98Aloud,001,2022_Nov_28_1002,ProdSingRedoBetween,2021.2.3,59.97825170636562,
,,,,135,0,135,0,,,,,,,,,,,,,,,,,,,,,,1029.3549902001396,None,,,,,,,,,,,,,,,,,,education,177,136,aloud,new,null,1026.7723628999665,None,1026.7723628999665,None,1,1.8557031992822886,1026.7723628999665,None,1.8557031992822886,1028.6560473004356,None,1029.1596229998395,None,1029.1596229998395,None,n,0.17231359984725714,1029.1596229998395,None,0.17231359984725714,,,98Aloud,001,2022_Nov_28_1002,ProdSingRedoBetween,2021.2.3,59.97825170636562,
,,,,136,0,136,0,,,,,,,,,,,,,,,,,,,,,,1032.2079466003925,None,,,,,,,,,,,,,,,,,,review,32,137,aloud,old,blue,1029.8677625004202,None,1029.8677625004202,None,1,1.6082459995523095,1029.8677625004202,None,1.6082459995523095,1031.513606700115,None,1032.0245320005342,None,1032.0245320005342,None,n,0.1554045006632805,1032.0245320005342,None,0.1554045006632805,,,98Aloud,001,2022_Nov_28_1002,ProdSingRedoBetween,2021.2.3,59.97825170636562,
,,,,137,0,137,0,,,,,,,,,,,,,,,,,,,,,,1034.9272763002664,None,,,,,,,,,,,,,,,,,,mankind,128,138,aloud,new,null,1032.721391200088,None,1032.721391200088,None,1,1.54654430039227,1032.721391200088,None,1.54654430039227,1034.2944069001824,None,1034.7986653000116,None,1034.7986653000116,None,n,0.10931059997528791,1034.7986653000116,None,0.10931059997528791,,,98Aloud,001,2022_Nov_28_1002,ProdSingRedoBetween,2021.2.3,59.97825170636562,
,,,,138,0,138,0,,,,,,,,,,,,,,,,,,,,,,1038.063756399788,None,,,,,,,,,,,,,,,,,,split,36,139,aloud,old,blue,1035.4421148998663,None,1035.4421148998663,None,3,1.6976664997637272,1035.4421148998663,None,1.6976664997637272,1037.164076199755,None,1037.6679432000965,None,1037.6679432000965,None,n,0.3758777994662523,1037.6679432000965,None,0.3758777994662523,,,98Aloud,001,2022_Nov_28_1002,ProdSingRedoBetween,2021.2.3,59.97825170636562,
,,,,139,0,139,0,,,,,,,,,,,,,,,,,,,,,,1042.887155899778,None,,,,,,,,,,,,,,,,,,region,98,140,aloud,new,null,1038.5730793997645,None,1038.5730793997645,None,3,3.406898600049317,1038.5730793997645,None,3.406898600049317,1042.0078883999959,None,1042.5183242997155,None,1042.5183242997155,None,n,0.3497112998738885,1042.5183242997155,None,0.3497112998738885,,,98Aloud,001,2022_Nov_28_1002,ProdSingRedoBetween,2021.2.3,59.97825170636562,
,,,,140,0,140,0,,,,,,,,,,,,,,,,,,,,,,1046.9559935005382,None,,,,,,,,,,,,,,,,,,nature,100,141,aloud,new,null,1043.4061839003116,None,1043.4061839003116,None,2,2.8217096999287605,1043.4061839003116,None,2.8217096999287605,1046.2595485001802,None,1046.7724655997008,None,1046.7724655997008,None,n,0.15943950042128563,1046.7724655997008,None,0.15943950042128563,,,98Aloud,001,2022_Nov_28_1002,ProdSingRedoBetween,2021.2.3,59.97825170636562,
,,,,141,0,141,0,,,,,,,,,,,,,,,,,,,,,,1051.2769806999713,None,,,,,,,,,,,,,,,,,,majority,44,142,aloud,old,blue,1047.4637887999415,None,1047.4637887999415,None,5,3.0120598999783397,1047.4637887999415,None,3.0120598999783397,1050.4940667999908,None,1050.9971809005365,None,1050.9971809005365,None,f,0.26274019945412874,1050.9971809005365,None,0.26274019945412874,,,98Aloud,001,2022_Nov_28_1002,ProdSingRedoBetween,2021.2.3,59.97825170636562,
,,,,142,0,142,0,,,,,,,,,,,,,,,,,,,,,,1053.9477582005784,None,,,,,,,,,,,,,,,,,,vision,94,143,aloud,new,null,1051.7798506999388,None,1051.7798506999388,None,2,1.5201654992997646,1051.7798506999388,None,1.5201654992997646,1053.3366531999782,None,1053.84985730052,None,1053.84985730052,None,n,0.06612319964915514,1053.84985730052,None,0.06612319964915514,,,98Aloud,001,2022_Nov_28_1002,ProdSingRedoBetween,2021.2.3,59.97825170636562,
,,,,143,0,143,0,,,,,,,,,,,,,,,,,,,,,,1056.5991102997214,None,,,,,,,,,,,,,,,,,,voice,71,144,aloud,old,red,1054.4636586001143,None,1054.4636586001143,None,1,1.4203137001022696,1054.4636586001143,None,1.4203137001022696,1055.9196744998917,None,1056.4391478002071,None,1056.4391478002071,None,n,0.13278960064053535,1056.4391478002071,None,0.13278960064053535,,,98Aloud,001,2022_Nov_28_1002,ProdSingRedoBetween,2021.2.3,59.97825170636562,
,,,,144,0,144,0,,,,,,,,,,,,,,,,,,,,,,1061.2227912005037,None,,,,,,,,,,,,,,,,,,generation,43,145,aloud,old,blue,1057.1152758998796,None,1057.1152758998796,None,4,3.456566500477493,1057.1152758998796,None,3.456566500477493,1060.6035738997161,None,1061.1089540002868,None,1061.1089540002868,None,f,0.08697339985519648,1061.1089540002868,None,0.08697339985519648,,,98Aloud,001,2022_Nov_28_1002,ProdSingRedoBetween,2021.2.3,59.97825170636562,
,,,,145,0,145,0,,,,,,,,,,,,,,,,,,,,,,1066.0417081005871,None,,,,,,,,,,,,,,,,,,sound,16,146,aloud,old,yellow,1061.7464586999267,None,1061.7464586999267,None,4,3.6173465996980667,1061.7464586999267,None,3.6173465996980667,1065.39281710051,None,1065.908332400024,None,1065.908332400024,None,f,0.1035732002928853,1065.908332400024,None,0.1035732002928853,,,98Aloud,001,2022_Nov_28_1002,ProdSingRedoBetween,2021.2.3,59.97825170636562,
,,,,146,0,146,0,,,,,,,,,,,,,,,,,,,,,,1068.814908100292,None,,,,,,,,,,,,,,,,,,strain,37,147,aloud,old,blue,1066.5470404000953,None,1066.5470404000953,None,4,1.632824500091374,1066.5470404000953,None,1.632824500091374,1068.2145651997998,None,1068.7327351998538,None,1068.7327351998538,None,f,0.06334479991346598,1068.7327351998538,None,0.06334479991346598,,,98Aloud,001,2022_Nov_28_1002,ProdSingRedoBetween,2021.2.3,59.97825170636562,
,,,,147,0,147,0,,,,,,,,,,,,,,,,,,,,,,1074.418980400078,None,,,,,,,,,,,,,,,,,,account,102,148,aloud,new,null,1069.3327114004642,None,1069.3327114004642,None,3,4.367130500264466,1069.3327114004642,None,4.367130500264466,1073.7168664000928,None,1074.2166643003002,None,1074.2166643003002,None,n,0.1711122002452612,1074.2166643003002,None,0.1711122002452612,,,98Aloud,001,2022_Nov_28_1002,ProdSingRedoBetween,2021.2.3,59.97825170636562,
,,,,148,0,148,0,,,,,,,,,,,,,,,,,,,,,,1077.7721059005708,None,,,,,,,,,,,,,,,,,,commercial,103,149,aloud,new,null,1074.9343004999682,None,1074.9343004999682,None,2,2.1816266998648643,1074.9343004999682,None,2.1816266998648643,1077.1407369999215,None,1077.653445799835,None,1077.653445799835,None,n,0.09446119982749224,1077.653445799835,None,0.09446119982749224,,,98Aloud,001,2022_Nov_28_1002,ProdSingRedoBetween,2021.2.3,59.97825170636562,
,,,,149,0,149,0,,,,,,,,,,,,,,,,,,,,,,1081.144701300189,None,,,,,,,,,,,,,,,,,,rural,86,150,aloud,old,red,1078.3038512999192,None,1078.3038512999192,None,6,1.6599639998748899,1078.3038512999192,None,1.6599639998748899,1079.989089800045,None,1080.4928088001907,None,1080.4928088001907,None,r,0.6231925003230572,1080.4928088001907,None,0.6231925003230572,,,98Aloud,001,2022_Nov_28_1002,ProdSingRedoBetween,2021.2.3,59.97825170636562,
,,,,150,0,150,0,,,,,,,,,,,,,,,,,,,,,,1084.5305783003569,None,,,,,,,,,,,,,,,,,,ground,51,151,aloud,old,blue,1081.6632821001112,None,1081.6632821001112,None,1,1.5806614002212882,1081.6632821001112,None,1.5806614002212882,1083.2659394005314,None,1083.7789794998243,None,1083.7789794998243,None,n,0.7209159005433321,1083.7789794998243,None,0.7209159005433321,,,98Aloud,001,2022_Nov_28_1002,ProdSingRedoBetween,2021.2.3,59.97825170636562,
,,,,151,0,151,0,,,,,,,,,,,,,,,,,,,,,,1088.0135655999184,None,,,,,,,,,,,,,,,,,,hearing,158,152,aloud,new,null,1085.0459610000253,None,1085.0459610000253,None,1,2.30187280010432,1085.0459610000253,None,2.30187280010432,1087.3628420000896,None,1087.865497900173,None,1087.865497900173,None,n,0.13032120000571012,1087.865497900173,None,0.13032120000571012,,,98Aloud,001,2022_Nov_28_1002,ProdSingRedoBetween,2021.2.3,59.97825170636562,
,,,,152,0,152,0,,,,,,,,,,,,,,,,,,,,,,1092.267718899995,None,,,,,,,,,,,,,,,,,,reach,132,153,aloud,new,null,1088.5322334002703,None,1088.5322334002703,None,1,2.927569999359548,1088.5322334002703,None,2.927569999359548,1091.484617399983,None,1091.9844118999317,None,1091.9844118999317,None,n,0.25943899992853403,1091.9844118999317,None,0.25943899992853403,,,98Aloud,001,2022_Nov_28_1002,ProdSingRedoBetween,2021.2.3,59.97825170636562,
,,,,153,0,153,0,,,,,,,,,,,,,,,,,,,,,,1096.426554299891,None,,,,,,,,,,,,,,,,,,salary,23,154,aloud,old,yellow,1092.7843689005822,None,1092.7843689005822,None,5,2.8435153998434544,1092.7843689005822,None,2.8435153998434544,1095.660563500598,None,1096.1756271002814,None,1096.1756271002814,None,f,0.2281742999330163,1096.1756271002814,None,0.2281742999330163,,,98Aloud,001,2022_Nov_28_1002,ProdSingRedoBetween,2021.2.3,59.97825170636562,
,,,,154,0,154,0,,,,,,,,,,,,,,,,,,,,,,1100.1421405002475,None,,,,,,,,,,,,,,,,,,range,80,155,aloud,old,red,1096.948603699915,None,1096.948603699915,None,4,2.5752379996702075,1096.948603699915,None,2.5752379996702075,1099.5465580997989,None,1100.0628642998636,None,1100.0628642998636,None,f,0.060911500826478004,1100.0628642998636,None,0.060911500826478004,,,98Aloud,001,2022_Nov_28_1002,ProdSingRedoBetween,2021.2.3,59.97825170636562,
,,,,155,0,155,0,,,,,,,,,,,,,,,,,,,,,,1103.1787076005712,None,,,,,,,,,,,,,,,,,,curve,96,156,aloud,new,null,1100.6527872998267,None,1100.6527872998267,None,1,1.7510247994214296,1100.6527872998267,None,1.7510247994214296,1102.4293164005503,None,1102.9312299005687,None,1102.9312299005687,None,n,0.22456829994916916,1102.9312299005687,None,0.22456829994916916,,,98Aloud,001,2022_Nov_28_1002,ProdSingRedoBetween,2021.2.3,59.97825170636562,
,,,,156,0,156,0,,,,,,,,,,,,,,,,,,,,,,1106.4195325002074,None,,,,,,,,,,,,,,,,,,literature,82,157,aloud,old,red,1103.6876833001152,None,1103.6876833001152,None,6,1.9481328995898366,1103.6876833001152,None,1.9481328995898366,1105.6651530005038,None,1106.1679157000035,None,1106.1679157000035,None,r,0.22808939963579178,1106.1679157000035,None,0.22808939963579178,,,98Aloud,001,2022_Nov_28_1002,ProdSingRedoBetween,2021.2.3,59.97825170636562,
,,,,157,0,157,0,,,,,,,,,,,,,,,,,,,,,,1109.3528522998095,None,,,,,,,,,,,,,,,,,,staff,134,158,aloud,new,null,1106.9425705997273,None,1106.9425705997273,None,2,1.6851252000778913,1106.9425705997273,None,1.6851252000778913,1108.6580132003874,None,1109.167980399914,None,1109.167980399914,None,n,0.16386050079017878,1109.167980399914,None,0.16386050079017878,,,98Aloud,001,2022_Nov_28_1002,ProdSingRedoBetween,2021.2.3,59.97825170636562,
,,,,158,0,158,0,,,,,,,,,,,,,,,,,,,,,,1112.3045169003308,None,,,,,,,,,,,,,,,,,,track,63,159,aloud,old,red,1109.8600209001452,None,1109.8600209001452,None,3,1.7756952000781894,1109.8600209001452,None,1.7756952000781894,1111.6557991001755,None,1112.1778223998845,None,1112.1778223998845,None,n,0.09806760028004646,1112.1778223998845,None,0.09806760028004646,,,98Aloud,001,2022_Nov_28_1002,ProdSingRedoBetween,2021.2.3,59.97825170636562,
,,,,159,0,159,0,,,,,,,,,,,,,,,,,,,,,,1115.3575640004128,None,,,,,,,,,,,,,,,,,,comfort,93,160,aloud,new,null,1112.8105333000422,None,1112.8105333000422,None,3,1.929212899878621,1112.8105333000422,None,1.929212899878621,1114.758152000606,None,1115.2635019998997,None,1115.2635019998997,None,n,0.06830679997801781,1115.2635019998997,None,0.06830679997801781,,,98Aloud,001,2022_Nov_28_1002,ProdSingRedoBetween,2021.2.3,59.97825170636562,
,,,,160,0,160,0,,,,,,,,,,,,,,,,,,,,,,1118.2271167002618,None,,,,,,,,,,,,,,,,,,collection,148,161,aloud,new,null,1115.8667852999642,None,1115.8667852999642,None,1,1.6491312002763152,1115.8667852999642,None,1.6491312002763152,1117.5538757005706,None,1118.0603160997853,None,1118.0603160997853,None,n,0.1514617996290326,1118.0603160997853,None,0.1514617996290326,,,98Aloud,001,2022_Nov_28_1002,ProdSingRedoBetween,2021.2.3,59.97825170636562,
,,,,161,0,161,0,,,,,,,,,,,,,,,,,,,,,,1122.547991500236,None,,,,,,,,,,,,,,,,,,distance,162,162,aloud,new,null,1118.7376449005678,None,1118.7376449005678,None,2,3.2341438001021743,1118.7376449005678,None,3.2341438001021743,1121.9987118998542,None,1122.5032593002543,None,1122.5032593002543,None,n,0.0284877996891737,1122.5032593002543,None,0.0284877996891737,,,98Aloud,001,2022_Nov_28_1002,ProdSingRedoBetween,2021.2.3,59.97825170636562,
,,,,162,0,162,0,,,,,,,,,,,,,,,,,,,,,,1125.1172505998984,None,,,,,,,,,,,,,,,,,,pattern,53,163,aloud,old,blue,1123.0604904005304,None,1123.0604904005304,None,2,1.4472864996641874,1123.0604904005304,None,1.4472864996641874,1124.534695699811,None,1125.0405254997313,None,1125.0405254997313,None,n,0.05135810002684593,1125.0405254997313,None,0.05135810002684593,,,98Aloud,001,2022_Nov_28_1002,ProdSingRedoBetween,2021.2.3,59.97825170636562,
,,,,163,0,163,0,,,,,,,,,,,,,,,,,,,,,,1128.3871611999348,None,,,,,,,,,,,,,,,,,,discussion,176,164,aloud,new,null,1125.6282865004614,None,1125.6282865004614,None,3,2.1354737002402544,1125.6282865004614,None,2.1354737002402544,1127.7884849002585,None,1128.3079161997885,None,1128.3079161997885,None,n,0.04800119996070862,1128.3079161997885,None,0.04800119996070862,,,98Aloud,001,2022_Nov_28_1002,ProdSingRedoBetween,2021.2.3,59.97825170636562,
,,,,164,0,164,0,,,,,,,,,,,,,,,,,,,,,,1131.4588286001235,None,,,,,,,,,,,,,,,,,,death,130,165,aloud,new,null,1128.8892807001248,None,1128.8892807001248,None,1,1.826468799263239,1128.8892807001248,None,1.826468799263239,1130.7404525000602,None,1131.244608500041,None,1131.244608500041,None,n,0.19118699990212917,1131.244608500041,None,0.19118699990212917,,,98Aloud,001,2022_Nov_28_1002,ProdSingRedoBetween,2021.2.3,59.97825170636562,
,,,,165,0,165,0,,,,,,,,,,,,,,,,,,,,,,1134.1968940002844,None,,,,,,,,,,,,,,,,,,pretty,87,166,aloud,old,red,1131.976157899946,None,1131.976157899946,None,6,1.5476720994338393,1131.976157899946,None,1.5476720994338393,1133.5474685998634,None,1134.062695200555,None,1134.062695200555,None,r,0.1093161003664136,1134.062695200555,None,0.1093161003664136,,,98Aloud,001,2022_Nov_28_1002,ProdSingRedoBetween,2021.2.3,59.97825170636562,
,,,,166,0,166,0,,,,,,,,,,,,,,,,,,,,,,1136.9624581998214,None,,,,,,,,,,,,,,,,,,treatment,50,167,aloud,old,blue,1134.710246000439,None,1134.710246000439,None,3,1.621525600552559,1134.710246000439,None,1.621525600552559,1136.3722424004227,None,1136.879152700305,None,1136.879152700305,None,n,0.06052390020340681,1136.879152700305,None,0.06052390020340681,,,98Aloud,001,2022_Nov_28_1002,ProdSingRedoBetween,2021.2.3,59.97825170636562,
,,,,167,0,167,0,,,,,,,,,,,,,,,,,,,,,,1140.5992980003357,None,,,,,,,,,,,,,,,,,,figure,142,168,aloud,new,null,1137.4691687002778,None,1137.4691687002778,None,2,1.6864705998450518,1137.4691687002778,None,1.6864705998450518,1139.1813470004126,None,1139.690430100076,None,1139.690430100076,None,n,0.889308700338006,1139.690430100076,None,0.889308700338006,,,98Aloud,001,2022_Nov_28_1002,ProdSingRedoBetween,2021.2.3,59.97825170636562,
,,,,168,0,168,0,,,,,,,,,,,,,,,,,,,,,,1143.0852393005043,None,,,,,,,,,,,,,,,,,,trend,150,169,aloud,new,null,1141.1085582999513,None,1141.1085582999513,None,1,1.3751398995518684,1141.1085582999513,None,1.3751398995518684,1142.5012563001364,None,1143.005833500065,None,1143.005833500065,None,n,0.053854900412261486,1143.005833500065,None,0.053854900412261486,,,98Aloud,001,2022_Nov_28_1002,ProdSingRedoBetween,2021.2.3,59.97825170636562,
,,,,169,0,169,0,,,,,,,,,,,,,,,,,,,,,,1145.5707892002538,None,,,,,,,,,,,,,,,,,,partner,81,170,aloud,old,red,1143.58884590026,None,1143.58884590026,None,6,1.3669648002833128,1143.58884590026,None,1.3669648002833128,1144.9878348996863,None,1145.4934309003875,None,1145.4934309003875,None,r,0.04633700009435415,1145.4934309003875,None,0.04633700009435415,,,98Aloud,001,2022_Nov_28_1002,ProdSingRedoBetween,2021.2.3,59.97825170636562,
,,,,170,0,170,0,,,,,,,,,,,,,,,,,,,,,,1148.4905262002721,None,,,,,,,,,,,,,,,,,,error,45,171,aloud,old,blue,1146.0781485000625,None,1146.0781485000625,None,6,1.2855668999254704,1146.0781485000625,None,1.2855668999254704,1147.391746500507,None,1147.9067700998858,None,1147.9067700998858,None,r,0.5609714994207025,1147.9067700998858,None,0.5609714994207025,,,98Aloud,001,2022_Nov_28_1002,ProdSingRedoBetween,2021.2.3,59.97825170636562,
,,,,171,0,171,0,,,,,,,,,,,,,,,,,,,,,,1151.0597354006022,None,,,,,,,,,,,,,,,,,,breath,38,172,aloud,old,blue,1148.9960671002045,None,1148.9960671002045,None,4,1.4956649001687765,1148.9960671002045,None,1.4956649001687765,1150.5092855999246,None,1151.0102224005386,None,1151.0102224005386,None,f,0.03344529960304499,1151.0102224005386,None,0.03344529960304499,,,98Aloud,001,2022_Nov_28_1002,ProdSingRedoBetween,2021.2.3,59.97825170636562,
,,,,172,0,172,0,,,,,,,,,,,,,,,,,,,,,,1153.9460239000618,None,,,,,,,,,,,,,,,,,,debate,55,173,aloud,old,blue,1151.563083300367,None,1151.563083300367,None,6,1.3207903997972608,1151.563083300367,None,1.3207903997972608,1152.9157926002517,None,1153.428903600201,None,1153.428903600201,None,r,0.48681019991636276,1153.428903600201,None,0.48681019991636276,,,98Aloud,001,2022_Nov_28_1002,ProdSingRedoBetween,2021.2.3,59.97825170636562,
,,,,173,0,173,0,,,,,,,,,,,,,,,,,,,,,,1156.9489844003692,None,,,,,,,,,,,,,,,,,,judge,110,174,aloud,new,null,1154.457830999978,None,1154.457830999978,None,4,1.8420420000329614,1154.457830999978,None,1.8420420000329614,1156.324809600599,None,1156.83570769988,None,1156.83570769988,None,f,0.08796169981360435,1156.83570769988,None,0.08796169981360435,,,98Aloud,001,2022_Nov_28_1002,ProdSingRedoBetween,2021.2.3,59.97825170636562,
,,,,174,0,174,0,,,,,,,,,,,,,,,,,,,,,,1160.4357371004298,None,,,,,,,,,,,,,,,,,,course,85,175,aloud,old,red,1157.4596891999245,None,1157.4596891999245,None,5,2.264105800539255,1157.4596891999245,None,2.264105800539255,1159.7586395004764,None,1160.2734083998948,None,1160.2734083998948,None,f,0.13829629961401224,1160.2734083998948,None,0.13829629961401224,,,98Aloud,001,2022_Nov_28_1002,ProdSingRedoBetween,2021.2.3,59.97825170636562,
,,,,175,0,175,0,,,,,,,,,,,,,,,,,,,,,,1163.3918096004054,None,,,,,,,,,,,,,,,,,,government,160,176,aloud,new,null,1160.9467775998637,None,1160.9467775998637,None,3,1.880851499736309,1160.9467775998637,None,1.880851499736309,1162.856746500358,None,1163.3757321005687,None,1163.3757321005687,None,n,0.003977700136601925,1163.3757321005687,None,0.003977700136601925,,,98Aloud,001,2022_Nov_28_1002,ProdSingRedoBetween,2021.2.3,59.97825170636562,
,,,,176,0,176,0,,,,,,,,,,,,,,,,,,,,,,1166.3927087001503,None,,,,,,,,,,,,,,,,,,search,5,177,aloud,old,yellow,1163.915463800542,None,1163.915463800542,None,2,1.8241709005087614,1163.915463800542,None,1.8241709005087614,1165.7612087000161,None,1166.28615109995,None,1166.28615109995,None,n,0.07766239996999502,1166.28615109995,None,0.07766239996999502,,,98Aloud,001,2022_Nov_28_1002,ProdSingRedoBetween,2021.2.3,59.97825170636562,
