StudyLoop.thisRepN,StudyLoop.thisTrialN,StudyLoop.thisN,StudyLoop.thisIndex,TestLoop.thisRepN,TestLoop.thisTrialN,TestLoop.thisN,TestLoop.thisIndex,textCondition.started,textCondition.stopped,keyCondition.keys,keyCondition.rt,keyCondition.started,keyCondition.stopped,Condition,textWelcome.started,textWelcome.stopped,keyWelcome.keys,keyWelcome.rt,keyWelcome.started,keyWelcome.stopped,textAloud.started,textAloud.stopped,textSilent.started,textSilent.stopped,textSing.started,textSing.stopped,conditional_text.started,conditional_text.stopped,textBlank500.started,textBlank500.stopped,study_word,study_num,study_order,study_type,word_color,textStudy.started,textStudy.stopped,keyStudy.keys,keyStudy.started,keyStudy.stopped,textTestInstructions.started,textTestInstructions.stopped,key_resp_3.keys,key_resp_3.rt,key_resp_3.started,key_resp_3.stopped,test_word,test_num,test_order,test_condition,old_new_test,test_word_original_color,textConf.started,textConf.stopped,textConfScale.started,textConfScale.stopped,keyConf.keys,keyConf.rt,keyConf.started,keyConf.stopped,confidence response time,textTestBlank.started,textTestBlank.stopped,textRKN.started,textRKN.stopped,textRKNScale.started,textRKNScale.stopped,keyRKN.keys,keyRKN.rt,keyRKN.started,keyRKN.stopped,rkn response time,textEnd.started,textEnd.stopped,participant,session,date,expName,psychopyVersion,frameRate,
,,,,,,,,14.911192700266838,None,c,0.5601322008296847,14.911192700266838,None,,,,,,,,,,,,,,,,,,,,,,,,,,,,,,,,,,,,,,,,,,,,,,,,,,,,,,,,,,,,,,99Sing,001,2022_Nov_28_1024,ProdSingRedoBetween,2021.2.3,59.82431980442259,
,,,,,,,,,,,,,,SingTest,15.518041800707579,None,space,4185.025956699625,15.518041800707579,None,,,,,,,,,,,,,,,,,,,,,,,,,,,,,,,,,,,,,,,,,,,,,,,,,,,,,,,99Sing,001,2022_Nov_28_1024,ProdSingRedoBetween,2021.2.3,59.82431980442259,
0,0,0,0,,,,,,,,,,,,,,,,,,15.518041800707579,None,15.518041800707579,None,15.518041800707579,None,15.518041800707579,None,4203.090354500338,None,sound,31,1,sing,blue,4201.07742360048,None,None,4201.07742360048,None,,,,,,,,,,,,,,,,,,,,,,,,,,,,,,,,,,,99Sing,001,2022_Nov_28_1024,ProdSingRedoBetween,2021.2.3,59.82431980442259,
1,0,1,0,,,,,,,,,,,,,,,,,,,,,,,,,,4205.593169100583,None,household,35,2,sing,blue,4203.59102360066,None,None,4203.59102360066,None,,,,,,,,,,,,,,,,,,,,,,,,,,,,,,,,,,,99Sing,001,2022_Nov_28_1024,ProdSingRedoBetween,2021.2.3,59.82431980442259,
2,0,2,0,,,,,,,,,,,,,,,,,,,,,,,,,,4208.111942100339,None,nature,45,3,sing,blue,4206.100779900327,None,None,4206.100779900327,None,,,,,,,,,,,,,,,,,,,,,,,,,,,,,,,,,,,99Sing,001,2022_Nov_28_1024,ProdSingRedoBetween,2021.2.3,59.82431980442259,
3,0,3,0,,,,,,,,,,,,,,,,,,,,,,,,,,4210.614604500122,None,mechanical,25,4,sing,yellow,4208.612648400478,None,None,4208.612648400478,None,,,,,,,,,,,,,,,,,,,,,,,,,,,,,,,,,,,99Sing,001,2022_Nov_28_1024,ProdSingRedoBetween,2021.2.3,59.82431980442259,
4,0,4,0,,,,,,,,,,,,,,,,,,,,,,,,,,4213.133627700619,None,quantity,53,5,sing,blue,4211.123374200426,None,None,4211.123374200426,None,,,,,,,,,,,,,,,,,,,,,,,,,,,,,,,,,,,99Sing,001,2022_Nov_28_1024,ProdSingRedoBetween,2021.2.3,59.82431980442259,
5,0,5,0,,,,,,,,,,,,,,,,,,,,,,,,,,4215.652703300118,None,evidence,79,6,sing,red,4213.644305700436,None,None,4213.644305700436,None,,,,,,,,,,,,,,,,,,,,,,,,,,,,,,,,,,,99Sing,001,2022_Nov_28_1024,ProdSingRedoBetween,2021.2.3,59.82431980442259,
6,0,6,0,,,,,,,,,,,,,,,,,,,,,,,,,,4218.172186200507,None,engineer,22,7,sing,yellow,4216.157379000448,None,None,4216.157379000448,None,,,,,,,,,,,,,,,,,,,,,,,,,,,,,,,,,,,99Sing,001,2022_Nov_28_1024,ProdSingRedoBetween,2021.2.3,59.82431980442259,
7,0,7,0,,,,,,,,,,,,,,,,,,,,,,,,,,4220.691488400102,None,signal,63,8,sing,red,4218.682543700561,None,None,4218.682543700561,None,,,,,,,,,,,,,,,,,,,,,,,,,,,,,,,,,,,99Sing,001,2022_Nov_28_1024,ProdSingRedoBetween,2021.2.3,59.82431980442259,
8,0,8,0,,,,,,,,,,,,,,,,,,,,,,,,,,4223.210572700016,None,career,8,9,sing,yellow,4221.195685500279,None,None,4221.195685500279,None,,,,,,,,,,,,,,,,,,,,,,,,,,,,,,,,,,,99Sing,001,2022_Nov_28_1024,ProdSingRedoBetween,2021.2.3,59.82431980442259,
9,0,9,0,,,,,,,,,,,,,,,,,,,,,,,,,,4225.71305000037,None,colonel,44,10,sing,blue,4223.711887200363,None,None,4223.711887200363,None,,,,,,,,,,,,,,,,,,,,,,,,,,,,,,,,,,,99Sing,001,2022_Nov_28_1024,ProdSingRedoBetween,2021.2.3,59.82431980442259,
10,0,10,0,,,,,,,,,,,,,,,,,,,,,,,,,,4228.215379100293,None,length,54,11,sing,blue,4226.215354300104,None,None,4226.215354300104,None,,,,,,,,,,,,,,,,,,,,,,,,,,,,,,,,,,,99Sing,001,2022_Nov_28_1024,ProdSingRedoBetween,2021.2.3,59.82431980442259,
11,0,11,0,,,,,,,,,,,,,,,,,,,,,,,,,,4230.718078400008,None,guard,18,12,sing,yellow,4228.716955000535,None,None,4228.716955000535,None,,,,,,,,,,,,,,,,,,,,,,,,,,,,,,,,,,,99Sing,001,2022_Nov_28_1024,ProdSingRedoBetween,2021.2.3,59.82431980442259,
12,0,12,0,,,,,,,,,,,,,,,,,,,,,,,,,,4233.220500700176,None,contract,80,13,sing,red,4231.219987500459,None,None,4231.219987500459,None,,,,,,,,,,,,,,,,,,,,,,,,,,,,,,,,,,,99Sing,001,2022_Nov_28_1024,ProdSingRedoBetween,2021.2.3,59.82431980442259,
13,0,13,0,,,,,,,,,,,,,,,,,,,,,,,,,,4235.739741500467,None,strain,88,14,sing,red,4233.727892700583,None,None,4233.727892700583,None,,,,,,,,,,,,,,,,,,,,,,,,,,,,,,,,,,,99Sing,001,2022_Nov_28_1024,ProdSingRedoBetween,2021.2.3,59.82431980442259,
14,0,14,0,,,,,,,,,,,,,,,,,,,,,,,,,,4238.242299600504,None,sweet,16,15,sing,yellow,4236.242529400624,None,None,4236.242529400624,None,,,,,,,,,,,,,,,,,,,,,,,,,,,,,,,,,,,99Sing,001,2022_Nov_28_1024,ProdSingRedoBetween,2021.2.3,59.82431980442259,
15,0,15,0,,,,,,,,,,,,,,,,,,,,,,,,,,4240.744665800594,None,commercial,65,16,sing,red,4238.745063399896,None,None,4238.745063399896,None,,,,,,,,,,,,,,,,,,,,,,,,,,,,,,,,,,,99Sing,001,2022_Nov_28_1024,ProdSingRedoBetween,2021.2.3,59.82431980442259,
16,0,16,0,,,,,,,,,,,,,,,,,,,,,,,,,,4243.247276700102,None,bucket,86,17,sing,red,4241.2448539007455,None,None,4241.2448539007455,None,,,,,,,,,,,,,,,,,,,,,,,,,,,,,,,,,,,99Sing,001,2022_Nov_28_1024,ProdSingRedoBetween,2021.2.3,59.82431980442259,
17,0,17,0,,,,,,,,,,,,,,,,,,,,,,,,,,4245.7664470002055,None,thing,26,18,sing,yellow,4243.7519014002755,None,None,4243.7519014002755,None,,,,,,,,,,,,,,,,,,,,,,,,,,,,,,,,,,,99Sing,001,2022_Nov_28_1024,ProdSingRedoBetween,2021.2.3,59.82431980442259,
18,0,18,0,,,,,,,,,,,,,,,,,,,,,,,,,,4248.268904400058,None,voice,66,19,sing,red,4246.268433299847,None,None,4246.268433299847,None,,,,,,,,,,,,,,,,,,,,,,,,,,,,,,,,,,,99Sing,001,2022_Nov_28_1024,ProdSingRedoBetween,2021.2.3,59.82431980442259,
19,0,19,0,,,,,,,,,,,,,,,,,,,,,,,,,,4250.787852800451,None,income,12,20,sing,yellow,4248.77276000008,None,None,4248.77276000008,None,,,,,,,,,,,,,,,,,,,,,,,,,,,,,,,,,,,99Sing,001,2022_Nov_28_1024,ProdSingRedoBetween,2021.2.3,59.82431980442259,
20,0,20,0,,,,,,,,,,,,,,,,,,,,,,,,,,4253.290523500182,None,staff,14,21,sing,yellow,4251.2885123007,None,None,4251.2885123007,None,,,,,,,,,,,,,,,,,,,,,,,,,,,,,,,,,,,99Sing,001,2022_Nov_28_1024,ProdSingRedoBetween,2021.2.3,59.82431980442259,
21,0,21,0,,,,,,,,,,,,,,,,,,,,,,,,,,4255.809566100128,None,bureau,32,22,sing,blue,4253.795263600536,None,None,4253.795263600536,None,,,,,,,,,,,,,,,,,,,,,,,,,,,,,,,,,,,99Sing,001,2022_Nov_28_1024,ProdSingRedoBetween,2021.2.3,59.82431980442259,
22,0,22,0,,,,,,,,,,,,,,,,,,,,,,,,,,4258.312241200358,None,close,11,23,sing,yellow,4256.309898200445,None,None,4256.309898200445,None,,,,,,,,,,,,,,,,,,,,,,,,,,,,,,,,,,,99Sing,001,2022_Nov_28_1024,ProdSingRedoBetween,2021.2.3,59.82431980442259,
23,0,23,0,,,,,,,,,,,,,,,,,,,,,,,,,,4260.831214600243,None,salary,71,24,sing,red,4258.81584610045,None,None,4258.81584610045,None,,,,,,,,,,,,,,,,,,,,,,,,,,,,,,,,,,,99Sing,001,2022_Nov_28_1024,ProdSingRedoBetween,2021.2.3,59.82431980442259,
24,0,24,0,,,,,,,,,,,,,,,,,,,,,,,,,,4263.333969600499,None,universal,6,25,sing,yellow,4261.33189740032,None,None,4261.33189740032,None,,,,,,,,,,,,,,,,,,,,,,,,,,,,,,,,,,,99Sing,001,2022_Nov_28_1024,ProdSingRedoBetween,2021.2.3,59.82431980442259,
25,0,25,0,,,,,,,,,,,,,,,,,,,,,,,,,,4265.853106200695,None,suspect,17,26,sing,yellow,4263.839879999869,None,None,4263.839879999869,None,,,,,,,,,,,,,,,,,,,,,,,,,,,,,,,,,,,99Sing,001,2022_Nov_28_1024,ProdSingRedoBetween,2021.2.3,59.82431980442259,
26,0,26,0,,,,,,,,,,,,,,,,,,,,,,,,,,4268.355537299998,None,foundation,41,27,sing,blue,4266.35649040062,None,None,4266.35649040062,None,,,,,,,,,,,,,,,,,,,,,,,,,,,,,,,,,,,99Sing,001,2022_Nov_28_1024,ProdSingRedoBetween,2021.2.3,59.82431980442259,
27,0,27,0,,,,,,,,,,,,,,,,,,,,,,,,,,4270.858165600337,None,region,42,28,sing,blue,4268.8560658004135,None,None,4268.8560658004135,None,,,,,,,,,,,,,,,,,,,,,,,,,,,,,,,,,,,99Sing,001,2022_Nov_28_1024,ProdSingRedoBetween,2021.2.3,59.82431980442259,
28,0,28,0,,,,,,,,,,,,,,,,,,,,,,,,,,4273.377272999845,None,broke,55,29,sing,blue,4271.362861100584,None,None,4271.362861100584,None,,,,,,,,,,,,,,,,,,,,,,,,,,,,,,,,,,,99Sing,001,2022_Nov_28_1024,ProdSingRedoBetween,2021.2.3,59.82431980442259,
29,0,29,0,,,,,,,,,,,,,,,,,,,,,,,,,,4275.880074700341,None,trend,23,30,sing,yellow,4273.877707600594,None,None,4273.877707600594,None,,,,,,,,,,,,,,,,,,,,,,,,,,,,,,,,,,,99Sing,001,2022_Nov_28_1024,ProdSingRedoBetween,2021.2.3,59.82431980442259,
30,0,30,0,,,,,,,,,,,,,,,,,,,,,,,,,,4278.398984900676,None,swift,3,31,sing,yellow,4276.389090900309,None,None,4276.389090900309,None,,,,,,,,,,,,,,,,,,,,,,,,,,,,,,,,,,,99Sing,001,2022_Nov_28_1024,ProdSingRedoBetween,2021.2.3,59.82431980442259,
31,0,31,0,,,,,,,,,,,,,,,,,,,,,,,,,,4280.901298000477,None,mankind,37,32,sing,blue,4278.899471400306,None,None,4278.899471400306,None,,,,,,,,,,,,,,,,,,,,,,,,,,,,,,,,,,,99Sing,001,2022_Nov_28_1024,ProdSingRedoBetween,2021.2.3,59.82431980442259,
32,0,32,0,,,,,,,,,,,,,,,,,,,,,,,,,,4283.420352600515,None,health,81,33,sing,red,4281.406206999905,None,None,4281.406206999905,None,,,,,,,,,,,,,,,,,,,,,,,,,,,,,,,,,,,99Sing,001,2022_Nov_28_1024,ProdSingRedoBetween,2021.2.3,59.82431980442259,
33,0,33,0,,,,,,,,,,,,,,,,,,,,,,,,,,4285.923060700297,None,session,60,34,sing,red,4283.920949300751,None,None,4283.920949300751,None,,,,,,,,,,,,,,,,,,,,,,,,,,,,,,,,,,,99Sing,001,2022_Nov_28_1024,ProdSingRedoBetween,2021.2.3,59.82431980442259,
34,0,34,0,,,,,,,,,,,,,,,,,,,,,,,,,,4288.442291200161,None,gesture,28,35,sing,yellow,4286.435009700246,None,None,4286.435009700246,None,,,,,,,,,,,,,,,,,,,,,,,,,,,,,,,,,,,99Sing,001,2022_Nov_28_1024,ProdSingRedoBetween,2021.2.3,59.82431980442259,
35,0,35,0,,,,,,,,,,,,,,,,,,,,,,,,,,4290.961522799917,None,quarter,85,36,sing,red,4288.946099900641,None,None,4288.946099900641,None,,,,,,,,,,,,,,,,,,,,,,,,,,,,,,,,,,,99Sing,001,2022_Nov_28_1024,ProdSingRedoBetween,2021.2.3,59.82431980442259,
36,0,36,0,,,,,,,,,,,,,,,,,,,,,,,,,,4293.480302399956,None,payment,57,37,sing,blue,4291.465980600566,None,None,4291.465980600566,None,,,,,,,,,,,,,,,,,,,,,,,,,,,,,,,,,,,99Sing,001,2022_Nov_28_1024,ProdSingRedoBetween,2021.2.3,59.82431980442259,
37,0,37,0,,,,,,,,,,,,,,,,,,,,,,,,,,4295.999649900012,None,height,49,38,sing,blue,4293.984444799833,None,None,4293.984444799833,None,,,,,,,,,,,,,,,,,,,,,,,,,,,,,,,,,,,99Sing,001,2022_Nov_28_1024,ProdSingRedoBetween,2021.2.3,59.82431980442259,
38,0,38,0,,,,,,,,,,,,,,,,,,,,,,,,,,4298.502345399931,None,discussion,1,39,sing,yellow,4296.502736900002,None,None,4296.502736900002,None,,,,,,,,,,,,,,,,,,,,,,,,,,,,,,,,,,,99Sing,001,2022_Nov_28_1024,ProdSingRedoBetween,2021.2.3,59.82431980442259,
39,0,39,0,,,,,,,,,,,,,,,,,,,,,,,,,,4301.004763100296,None,alert,29,40,sing,blue,4299.004245100543,None,None,4299.004245100543,None,,,,,,,,,,,,,,,,,,,,,,,,,,,,,,,,,,,99Sing,001,2022_Nov_28_1024,ProdSingRedoBetween,2021.2.3,59.82431980442259,
40,0,40,0,,,,,,,,,,,,,,,,,,,,,,,,,,4303.523976800032,None,frank,2,41,sing,yellow,4301.515138200484,None,None,4301.515138200484,None,,,,,,,,,,,,,,,,,,,,,,,,,,,,,,,,,,,99Sing,001,2022_Nov_28_1024,ProdSingRedoBetween,2021.2.3,59.82431980442259,
41,0,41,0,,,,,,,,,,,,,,,,,,,,,,,,,,4306.026506000198,None,afternoon,15,42,sing,yellow,4304.024796300568,None,None,4304.024796300568,None,,,,,,,,,,,,,,,,,,,,,,,,,,,,,,,,,,,99Sing,001,2022_Nov_28_1024,ProdSingRedoBetween,2021.2.3,59.82431980442259,
42,0,42,0,,,,,,,,,,,,,,,,,,,,,,,,,,4308.529026400298,None,device,58,43,sing,blue,4306.528719300404,None,None,4306.528719300404,None,,,,,,,,,,,,,,,,,,,,,,,,,,,,,,,,,,,99Sing,001,2022_Nov_28_1024,ProdSingRedoBetween,2021.2.3,59.82431980442259,
43,0,43,0,,,,,,,,,,,,,,,,,,,,,,,,,,4311.0316339004785,None,brilliant,7,44,sing,yellow,4309.032092100009,None,None,4309.032092100009,None,,,,,,,,,,,,,,,,,,,,,,,,,,,,,,,,,,,99Sing,001,2022_Nov_28_1024,ProdSingRedoBetween,2021.2.3,59.82431980442259,
44,0,44,0,,,,,,,,,,,,,,,,,,,,,,,,,,4313.550314300694,None,chief,74,45,sing,red,4311.536615500227,None,None,4311.536615500227,None,,,,,,,,,,,,,,,,,,,,,,,,,,,,,,,,,,,99Sing,001,2022_Nov_28_1024,ProdSingRedoBetween,2021.2.3,59.82431980442259,
45,0,45,0,,,,,,,,,,,,,,,,,,,,,,,,,,4316.069869400002,None,safety,68,46,sing,red,4314.055739800446,None,None,4314.055739800446,None,,,,,,,,,,,,,,,,,,,,,,,,,,,,,,,,,,,99Sing,001,2022_Nov_28_1024,ProdSingRedoBetween,2021.2.3,59.82431980442259,
46,0,46,0,,,,,,,,,,,,,,,,,,,,,,,,,,4318.5890068002045,None,spoke,36,47,sing,blue,4316.58119460009,None,None,4316.58119460009,None,,,,,,,,,,,,,,,,,,,,,,,,,,,,,,,,,,,99Sing,001,2022_Nov_28_1024,ProdSingRedoBetween,2021.2.3,59.82431980442259,
47,0,47,0,,,,,,,,,,,,,,,,,,,,,,,,,,4321.091545600444,None,agreement,84,48,sing,red,4319.091212400235,None,None,4319.091212400235,None,,,,,,,,,,,,,,,,,,,,,,,,,,,,,,,,,,,99Sing,001,2022_Nov_28_1024,ProdSingRedoBetween,2021.2.3,59.82431980442259,
48,0,48,0,,,,,,,,,,,,,,,,,,,,,,,,,,4323.610715299845,None,still,40,49,sing,blue,4321.601064200513,None,None,4321.601064200513,None,,,,,,,,,,,,,,,,,,,,,,,,,,,,,,,,,,,99Sing,001,2022_Nov_28_1024,ProdSingRedoBetween,2021.2.3,59.82431980442259,
49,0,49,0,,,,,,,,,,,,,,,,,,,,,,,,,,4326.113255000673,None,sleep,59,50,sing,yellow,4324.113308399916,None,None,4324.113308399916,None,,,,,,,,,,,,,,,,,,,,,,,,,,,,,,,,,,,99Sing,001,2022_Nov_28_1024,ProdSingRedoBetween,2021.2.3,59.82431980442259,
50,0,50,0,,,,,,,,,,,,,,,,,,,,,,,,,,4328.632102300413,None,husband,72,51,sing,red,4326.6263572005555,None,None,4326.6263572005555,None,,,,,,,,,,,,,,,,,,,,,,,,,,,,,,,,,,,99Sing,001,2022_Nov_28_1024,ProdSingRedoBetween,2021.2.3,59.82431980442259,
51,0,51,0,,,,,,,,,,,,,,,,,,,,,,,,,,4331.134893400595,None,enemy,33,52,sing,blue,4329.1325304005295,None,None,4329.1325304005295,None,,,,,,,,,,,,,,,,,,,,,,,,,,,,,,,,,,,99Sing,001,2022_Nov_28_1024,ProdSingRedoBetween,2021.2.3,59.82431980442259,
52,0,52,0,,,,,,,,,,,,,,,,,,,,,,,,,,4333.654000500217,None,split,78,53,sing,red,4331.638310200535,None,None,4331.638310200535,None,,,,,,,,,,,,,,,,,,,,,,,,,,,,,,,,,,,99Sing,001,2022_Nov_28_1024,ProdSingRedoBetween,2021.2.3,59.82431980442259,
53,0,53,0,,,,,,,,,,,,,,,,,,,,,,,,,,4336.156346900389,None,fashion,9,54,sing,yellow,4334.154373500496,None,None,4334.154373500496,None,,,,,,,,,,,,,,,,,,,,,,,,,,,,,,,,,,,99Sing,001,2022_Nov_28_1024,ProdSingRedoBetween,2021.2.3,59.82431980442259,
54,0,54,0,,,,,,,,,,,,,,,,,,,,,,,,,,4338.675886800513,None,report,70,55,sing,red,4336.660424700007,None,None,4336.660424700007,None,,,,,,,,,,,,,,,,,,,,,,,,,,,,,,,,,,,99Sing,001,2022_Nov_28_1024,ProdSingRedoBetween,2021.2.3,59.82431980442259,
55,0,55,0,,,,,,,,,,,,,,,,,,,,,,,,,,4341.178217200562,None,provision,10,56,sing,yellow,4339.176037200727,None,None,4339.176037200727,None,,,,,,,,,,,,,,,,,,,,,,,,,,,,,,,,,,,99Sing,001,2022_Nov_28_1024,ProdSingRedoBetween,2021.2.3,59.82431980442259,
56,0,56,0,,,,,,,,,,,,,,,,,,,,,,,,,,4343.697385100648,None,pressure,13,57,sing,yellow,4341.6850778004155,None,None,4341.6850778004155,None,,,,,,,,,,,,,,,,,,,,,,,,,,,,,,,,,,,99Sing,001,2022_Nov_28_1024,ProdSingRedoBetween,2021.2.3,59.82431980442259,
57,0,57,0,,,,,,,,,,,,,,,,,,,,,,,,,,4346.199853600003,None,match,39,58,sing,blue,4344.1987591004,None,None,4344.1987591004,None,,,,,,,,,,,,,,,,,,,,,,,,,,,,,,,,,,,99Sing,001,2022_Nov_28_1024,ProdSingRedoBetween,2021.2.3,59.82431980442259,
58,0,58,0,,,,,,,,,,,,,,,,,,,,,,,,,,4348.70234500058,None,pattern,51,59,sing,blue,4346.701790000312,None,None,4346.701790000312,None,,,,,,,,,,,,,,,,,,,,,,,,,,,,,,,,,,,99Sing,001,2022_Nov_28_1024,ProdSingRedoBetween,2021.2.3,59.82431980442259,
59,0,59,0,,,,,,,,,,,,,,,,,,,,,,,,,,4351.204823600128,None,threat,83,60,sing,red,4349.202630400658,None,None,4349.202630400658,None,,,,,,,,,,,,,,,,,,,,,,,,,,,,,,,,,,,99Sing,001,2022_Nov_28_1024,ProdSingRedoBetween,2021.2.3,59.82431980442259,
60,0,60,0,,,,,,,,,,,,,,,,,,,,,,,,,,4353.724182900041,None,childhood,89,61,sing,red,4351.714174900204,None,None,4351.714174900204,None,,,,,,,,,,,,,,,,,,,,,,,,,,,,,,,,,,,99Sing,001,2022_Nov_28_1024,ProdSingRedoBetween,2021.2.3,59.82431980442259,
61,0,61,0,,,,,,,,,,,,,,,,,,,,,,,,,,4356.243193300441,None,order,73,62,sing,red,4354.233447000384,None,None,4354.233447000384,None,,,,,,,,,,,,,,,,,,,,,,,,,,,,,,,,,,,99Sing,001,2022_Nov_28_1024,ProdSingRedoBetween,2021.2.3,59.82431980442259,
62,0,62,0,,,,,,,,,,,,,,,,,,,,,,,,,,4358.745825400576,None,attack,62,63,sing,red,4356.743682200089,None,None,4356.743682200089,None,,,,,,,,,,,,,,,,,,,,,,,,,,,,,,,,,,,99Sing,001,2022_Nov_28_1024,ProdSingRedoBetween,2021.2.3,59.82431980442259,
63,0,63,0,,,,,,,,,,,,,,,,,,,,,,,,,,4361.2649836000055,None,public,76,64,sing,red,4359.251164000481,None,None,4359.251164000481,None,,,,,,,,,,,,,,,,,,,,,,,,,,,,,,,,,,,99Sing,001,2022_Nov_28_1024,ProdSingRedoBetween,2021.2.3,59.82431980442259,
64,0,64,0,,,,,,,,,,,,,,,,,,,,,,,,,,4363.783820900135,None,heavy,38,65,sing,blue,4361.768469300121,None,None,4361.768469300121,None,,,,,,,,,,,,,,,,,,,,,,,,,,,,,,,,,,,99Sing,001,2022_Nov_28_1024,ProdSingRedoBetween,2021.2.3,59.82431980442259,
65,0,65,0,,,,,,,,,,,,,,,,,,,,,,,,,,4366.286638600752,None,bitter,34,66,sing,blue,4364.284571000375,None,None,4364.284571000375,None,,,,,,,,,,,,,,,,,,,,,,,,,,,,,,,,,,,99Sing,001,2022_Nov_28_1024,ProdSingRedoBetween,2021.2.3,59.82431980442259,
66,0,66,0,,,,,,,,,,,,,,,,,,,,,,,,,,4368.805738700554,None,tennis,5,67,sing,yellow,4366.791547900066,None,None,4366.791547900066,None,,,,,,,,,,,,,,,,,,,,,,,,,,,,,,,,,,,99Sing,001,2022_Nov_28_1024,ProdSingRedoBetween,2021.2.3,59.82431980442259,
67,0,67,0,,,,,,,,,,,,,,,,,,,,,,,,,,4371.308217400685,None,working,56,68,sing,blue,4369.307721300051,None,None,4369.307721300051,None,,,,,,,,,,,,,,,,,,,,,,,,,,,,,,,,,,,99Sing,001,2022_Nov_28_1024,ProdSingRedoBetween,2021.2.3,59.82431980442259,
68,0,68,0,,,,,,,,,,,,,,,,,,,,,,,,,,4373.810946600512,None,detective,27,69,sing,yellow,4371.8109344998375,None,None,4371.8109344998375,None,,,,,,,,,,,,,,,,,,,,,,,,,,,,,,,,,,,99Sing,001,2022_Nov_28_1024,ProdSingRedoBetween,2021.2.3,59.82431980442259,
69,0,69,0,,,,,,,,,,,,,,,,,,,,,,,,,,4376.329852799885,None,emergency,75,70,sing,red,4374.321589500643,None,None,4374.321589500643,None,,,,,,,,,,,,,,,,,,,,,,,,,,,,,,,,,,,99Sing,001,2022_Nov_28_1024,ProdSingRedoBetween,2021.2.3,59.82431980442259,
70,0,70,0,,,,,,,,,,,,,,,,,,,,,,,,,,4378.832482799888,None,graduate,67,71,sing,red,4376.8304449999705,None,None,4376.8304449999705,None,,,,,,,,,,,,,,,,,,,,,,,,,,,,,,,,,,,99Sing,001,2022_Nov_28_1024,ProdSingRedoBetween,2021.2.3,59.82431980442259,
71,0,71,0,,,,,,,,,,,,,,,,,,,,,,,,,,4381.3516075005755,None,department,61,72,sing,red,4379.344050699845,None,None,4379.344050699845,None,,,,,,,,,,,,,,,,,,,,,,,,,,,,,,,,,,,99Sing,001,2022_Nov_28_1024,ProdSingRedoBetween,2021.2.3,59.82431980442259,
72,0,72,0,,,,,,,,,,,,,,,,,,,,,,,,,,4383.854170000181,None,member,50,73,sing,blue,4381.851911700331,None,None,4381.851911700331,None,,,,,,,,,,,,,,,,,,,,,,,,,,,,,,,,,,,99Sing,001,2022_Nov_28_1024,ProdSingRedoBetween,2021.2.3,59.82431980442259,
73,0,73,0,,,,,,,,,,,,,,,,,,,,,,,,,,4386.35659390036,None,trial,82,74,sing,red,4384.355527200736,None,None,4384.355527200736,None,,,,,,,,,,,,,,,,,,,,,,,,,,,,,,,,,,,99Sing,001,2022_Nov_28_1024,ProdSingRedoBetween,2021.2.3,59.82431980442259,
74,0,74,0,,,,,,,,,,,,,,,,,,,,,,,,,,4388.859099300578,None,platform,24,75,sing,yellow,4386.859255200252,None,None,4386.859255200252,None,,,,,,,,,,,,,,,,,,,,,,,,,,,,,,,,,,,99Sing,001,2022_Nov_28_1024,ProdSingRedoBetween,2021.2.3,59.82431980442259,
75,0,75,0,,,,,,,,,,,,,,,,,,,,,,,,,,4391.378226600587,None,travel,48,76,sing,blue,4389.363034800626,None,None,4389.363034800626,None,,,,,,,,,,,,,,,,,,,,,,,,,,,,,,,,,,,99Sing,001,2022_Nov_28_1024,ProdSingRedoBetween,2021.2.3,59.82431980442259,
76,0,76,0,,,,,,,,,,,,,,,,,,,,,,,,,,4393.880770000629,None,weather,64,77,sing,red,4391.8787471000105,None,None,4391.8787471000105,None,,,,,,,,,,,,,,,,,,,,,,,,,,,,,,,,,,,99Sing,001,2022_Nov_28_1024,ProdSingRedoBetween,2021.2.3,59.82431980442259,
77,0,77,0,,,,,,,,,,,,,,,,,,,,,,,,,,4396.382983400486,None,oxygen,47,78,sing,blue,4394.381398100406,None,None,4394.381398100406,None,,,,,,,,,,,,,,,,,,,,,,,,,,,,,,,,,,,99Sing,001,2022_Nov_28_1024,ProdSingRedoBetween,2021.2.3,59.82431980442259,
78,0,78,0,,,,,,,,,,,,,,,,,,,,,,,,,,4398.902480900288,None,comfort,77,79,sing,red,4396.89092740044,None,None,4396.89092740044,None,,,,,,,,,,,,,,,,,,,,,,,,,,,,,,,,,,,99Sing,001,2022_Nov_28_1024,ProdSingRedoBetween,2021.2.3,59.82431980442259,
79,0,79,0,,,,,,,,,,,,,,,,,,,,,,,,,,4401.40499250032,None,business,20,80,sing,yellow,4399.405881199986,None,None,4399.405881199986,None,,,,,,,,,,,,,,,,,,,,,,,,,,,,,,,,,,,99Sing,001,2022_Nov_28_1024,ProdSingRedoBetween,2021.2.3,59.82431980442259,
80,0,80,0,,,,,,,,,,,,,,,,,,,,,,,,,,4403.924064900726,None,recall,52,81,sing,blue,4401.909206000157,None,None,4401.909206000157,None,,,,,,,,,,,,,,,,,,,,,,,,,,,,,,,,,,,99Sing,001,2022_Nov_28_1024,ProdSingRedoBetween,2021.2.3,59.82431980442259,
81,0,81,0,,,,,,,,,,,,,,,,,,,,,,,,,,4406.426622800529,None,research,21,82,sing,yellow,4404.4271750999615,None,None,4404.4271750999615,None,,,,,,,,,,,,,,,,,,,,,,,,,,,,,,,,,,,99Sing,001,2022_Nov_28_1024,ProdSingRedoBetween,2021.2.3,59.82431980442259,
82,0,82,0,,,,,,,,,,,,,,,,,,,,,,,,,,4408.929146099836,None,audience,30,83,sing,blue,4406.9271058999,None,None,4406.9271058999,None,,,,,,,,,,,,,,,,,,,,,,,,,,,,,,,,,,,99Sing,001,2022_Nov_28_1024,ProdSingRedoBetween,2021.2.3,59.82431980442259,
83,0,83,0,,,,,,,,,,,,,,,,,,,,,,,,,,4411.431674100459,None,pretty,0,84,sing,yellow,4409.432482900098,None,None,4409.432482900098,None,,,,,,,,,,,,,,,,,,,,,,,,,,,,,,,,,,,99Sing,001,2022_Nov_28_1024,ProdSingRedoBetween,2021.2.3,59.82431980442259,
84,0,84,0,,,,,,,,,,,,,,,,,,,,,,,,,,4413.934163000435,None,education,87,85,sing,red,4411.934093700722,None,None,4411.934093700722,None,,,,,,,,,,,,,,,,,,,,,,,,,,,,,,,,,,,99Sing,001,2022_Nov_28_1024,ProdSingRedoBetween,2021.2.3,59.82431980442259,
85,0,85,0,,,,,,,,,,,,,,,,,,,,,,,,,,4416.452938199975,None,appeal,69,86,sing,red,4414.44206230063,None,None,4414.44206230063,None,,,,,,,,,,,,,,,,,,,,,,,,,,,,,,,,,,,99Sing,001,2022_Nov_28_1024,ProdSingRedoBetween,2021.2.3,59.82431980442259,
86,0,86,0,,,,,,,,,,,,,,,,,,,,,,,,,,4418.9724155003205,None,shear,4,87,sing,yellow,4416.96361410059,None,None,4416.96361410059,None,,,,,,,,,,,,,,,,,,,,,,,,,,,,,,,,,,,99Sing,001,2022_Nov_28_1024,ProdSingRedoBetween,2021.2.3,59.82431980442259,
87,0,87,0,,,,,,,,,,,,,,,,,,,,,,,,,,4421.474849500693,None,institute,46,88,sing,blue,4419.475497400388,None,None,4419.475497400388,None,,,,,,,,,,,,,,,,,,,,,,,,,,,,,,,,,,,99Sing,001,2022_Nov_28_1024,ProdSingRedoBetween,2021.2.3,59.82431980442259,
88,0,88,0,,,,,,,,,,,,,,,,,,,,,,,,,,4423.993787500076,None,brief,19,89,sing,yellow,4421.979305100627,None,None,4421.979305100627,None,,,,,,,,,,,,,,,,,,,,,,,,,,,,,,,,,,,99Sing,001,2022_Nov_28_1024,ProdSingRedoBetween,2021.2.3,59.82431980442259,
89,0,89,0,,,,,,,,,,,,,,,,,,,,,,,,,,4426.4967911001295,None,position,43,90,sing,blue,4424.494505899958,None,None,4424.494505899958,None,,,,,,,,,,,,,,,,,,,,,,,,,,,,,,,,,,,99Sing,001,2022_Nov_28_1024,ProdSingRedoBetween,2021.2.3,59.82431980442259,
,,,,,,,,,,,,,,,,,,,,,,,,,,,,,,,,,,,,,,,,,4426.99748750031,None,k,53.98640580009669,4426.99748750031,None,,,,,,,,,,,,,,,,,,,,,,,,,,,,,99Sing,001,2022_Nov_28_1024,ProdSingRedoBetween,2021.2.3,59.82431980442259,
,,,,0,0,0,0,,,,,,,,,,,,,,,,,,,,,,4496.683884800412,None,,,,,,,,,,,,,,,,,bitter,34,1,sing,old,blue,4481.508196600713,None,4481.508196600713,None,6,6.611409899778664,4481.508196600713,None,6.611409899778664,4488.142385000363,None,4488.6419998006895,None,4488.6419998006895,None,r,8.021631999872625,4488.6419998006895,None,8.021631999872625,,,99Sing,001,2022_Nov_28_1024,ProdSingRedoBetween,2021.2.3,59.82431980442259,
,,,,1,0,1,0,,,,,,,,,,,,,,,,,,,,,,4503.022764500231,None,,,,,,,,,,,,,,,,,chief,74,2,sing,old,red,4497.194963000715,None,4497.194963000715,None,6,4.124606499448419,4497.194963000715,None,4.124606499448419,4501.3385354001075,None,4501.839669300243,None,4501.839669300243,None,r,1.1518729999661446,4501.839669300243,None,1.1518729999661446,,,99Sing,001,2022_Nov_28_1024,ProdSingRedoBetween,2021.2.3,59.82431980442259,
,,,,2,0,2,0,,,,,,,,,,,,,,,,,,,,,,4506.728254000656,None,,,,,,,,,,,,,,,,,evidence,79,3,sing,old,red,4503.523669800721,None,4503.523669800721,None,6,1.8118749000132084,4503.523669800721,None,1.8118749000132084,4505.361725600436,None,4505.880926400423,None,4505.880926400423,None,r,0.8147705998271704,4505.880926400423,None,0.8147705998271704,,,99Sing,001,2022_Nov_28_1024,ProdSingRedoBetween,2021.2.3,59.82431980442259,
,,,,3,0,3,0,,,,,,,,,,,,,,,,,,,,,,4509.529406100512,None,,,,,,,,,,,,,,,,,brief,19,4,sing,old,yellow,4507.239684100263,None,4507.239684100263,None,6,1.2798837004229426,4507.239684100263,None,1.2798837004229426,4508.54609750025,None,4509.050088000484,None,4509.050088000484,None,r,0.46143610030412674,4509.050088000484,None,0.46143610030412674,,,99Sing,001,2022_Nov_28_1024,ProdSingRedoBetween,2021.2.3,59.82431980442259,
,,,,4,0,4,0,,,,,,,,,,,,,,,,,,,,,,4515.435284799896,None,,,,,,,,,,,,,,,,,device,58,5,sing,old,blue,4510.039027700201,None,4510.039027700201,None,4,3.712512600235641,4510.039027700201,None,3.712512600235641,4513.775411100127,None,4514.284234200604,None,4514.284234200604,None,f,1.1312833996489644,4514.284234200604,None,1.1312833996489644,,,99Sing,001,2022_Nov_28_1024,ProdSingRedoBetween,2021.2.3,59.82431980442259,
,,,,5,0,5,0,,,,,,,,,,,,,,,,,,,,,,4520.89068219997,None,,,,,,,,,,,,,,,,,turkey,168,6,sing,new,null,4515.947921800427,None,4515.947921800427,None,4,3.851594800129533,4515.947921800427,None,3.851594800129533,4519.824566500261,None,4520.332657900639,None,4520.332657900639,None,f,0.5308405999094248,4520.332657900639,None,0.5308405999094248,,,99Sing,001,2022_Nov_28_1024,ProdSingRedoBetween,2021.2.3,59.82431980442259,
,,,,6,0,6,0,,,,,,,,,,,,,,,,,,,,,,4525.462177900597,None,,,,,,,,,,,,,,,,,engineer,22,7,sing,old,yellow,4521.397447800264,None,4521.397447800264,None,6,2.7540610004216433,4521.397447800264,None,2.7540610004216433,4524.179164400324,None,4524.698952700011,None,4524.698952700011,None,r,0.7327637998387218,4524.698952700011,None,0.7327637998387218,,,99Sing,001,2022_Nov_28_1024,ProdSingRedoBetween,2021.2.3,59.82431980442259,
,,,,7,0,7,0,,,,,,,,,,,,,,,,,,,,,,4531.200991600752,None,,,,,,,,,,,,,,,,,collection,90,8,sing,new,null,4525.96737110056,None,4525.96737110056,None,3,3.2241256004199386,4525.96737110056,None,3.2241256004199386,4529.216651299968,None,4529.721729100682,None,4529.721729100682,None,n,1.4617798998951912,4529.721729100682,None,1.4617798998951912,,,99Sing,001,2022_Nov_28_1024,ProdSingRedoBetween,2021.2.3,59.82431980442259,
,,,,8,0,8,0,,,,,,,,,,,,,,,,,,,,,,4536.172623299994,None,,,,,,,,,,,,,,,,,scale,91,9,sing,new,null,4531.714263800532,None,4531.714263800532,None,4,3.005162499845028,4531.714263800532,None,3.005162499845028,4534.739268600009,None,4535.2416727999225,None,4535.2416727999225,None,f,0.9018187001347542,4535.2416727999225,None,0.9018187001347542,,,99Sing,001,2022_Nov_28_1024,ProdSingRedoBetween,2021.2.3,59.82431980442259,
,,,,9,0,9,0,,,,,,,,,,,,,,,,,,,,,,4541.928472200409,None,,,,,,,,,,,,,,,,,staff,14,10,sing,old,yellow,4536.676687200554,None,4536.676687200554,None,5,3.9069849997758865,4536.676687200554,None,3.9069849997758865,4540.6235618004575,None,4541.130921900272,None,4541.130921900272,None,f,0.78059639967978,4541.130921900272,None,0.78059639967978,,,99Sing,001,2022_Nov_28_1024,ProdSingRedoBetween,2021.2.3,59.82431980442259,
,,,,10,0,10,0,,,,,,,,,,,,,,,,,,,,,,4544.948213499971,None,,,,,,,,,,,,,,,,,tennis,5,11,sing,old,yellow,4542.429072299972,None,4542.429072299972,None,6,1.5862817000597715,4542.429072299972,None,1.5862817000597715,4544.050272200257,None,4544.56440560054,None,4544.56440560054,None,r,0.36315259989351034,4544.56440560054,None,0.36315259989351034,,,99Sing,001,2022_Nov_28_1024,ProdSingRedoBetween,2021.2.3,59.82431980442259,
,,,,11,0,11,0,,,,,,,,,,,,,,,,,,,,,,4548.117875399999,None,,,,,,,,,,,,,,,,,salary,71,12,sing,old,red,4545.454791400582,None,4545.454791400582,None,6,1.6966860005632043,4545.454791400582,None,1.6966860005632043,4547.169078200124,None,4547.688272500411,None,4547.688272500411,None,r,0.4072253992781043,4547.688272500411,None,0.4072253992781043,,,99Sing,001,2022_Nov_28_1024,ProdSingRedoBetween,2021.2.3,59.82431980442259,
,,,,12,0,12,0,,,,,,,,,,,,,,,,,,,,,,4556.643090800382,None,,,,,,,,,,,,,,,,,phrase,153,13,sing,new,null,4548.622853400186,None,4548.622853400186,None,1,6.3446076000109315,4548.622853400186,None,6.3446076000109315,4554.992503200658,None,4555.497008600272,None,4555.497008600272,None,n,1.1264690002426505,4555.497008600272,None,1.1264690002426505,,,99Sing,001,2022_Nov_28_1024,ProdSingRedoBetween,2021.2.3,59.82431980442259,
,,,,13,0,13,0,,,,,,,,,,,,,,,,,,,,,,4562.2319267001,None,,,,,,,,,,,,,,,,,month,154,14,sing,new,null,4557.153884200379,None,4557.153884200379,None,2,3.325501300394535,4557.153884200379,None,3.325501300394535,4560.499784300104,None,4561.017168099992,None,4561.017168099992,None,n,1.1983032999560237,4561.017168099992,None,1.1983032999560237,,,99Sing,001,2022_Nov_28_1024,ProdSingRedoBetween,2021.2.3,59.82431980442259,
,,,,14,0,14,0,,,,,,,,,,,,,,,,,,,,,,4573.7101799007505,None,,,,,,,,,,,,,,,,,medicine,95,15,sing,new,null,4562.740576200187,None,4562.740576200187,None,4,9.170993000268936,4562.740576200187,None,9.170993000268936,4571.943189900368,None,4572.446198999882,None,4572.446198999882,None,f,1.2412208998575807,4572.446198999882,None,1.2412208998575807,,,99Sing,001,2022_Nov_28_1024,ProdSingRedoBetween,2021.2.3,59.82431980442259,
,,,,15,0,15,0,,,,,,,,,,,,,,,,,,,,,,4578.783240900375,None,,,,,,,,,,,,,,,,,enemy,33,16,sing,old,blue,4574.210740800016,None,4574.210740800016,None,6,2.70861619990319,4574.210740800016,None,2.70861619990319,4576.94857210014,None,4577.469217500649,None,4577.469217500649,None,r,1.282176200300455,4577.469217500649,None,1.282176200300455,,,99Sing,001,2022_Nov_28_1024,ProdSingRedoBetween,2021.2.3,59.82431980442259,
,,,,16,0,16,0,,,,,,,,,,,,,,,,,,,,,,4582.452182300389,None,,,,,,,,,,,,,,,,,trial,82,17,sing,old,red,4579.302996500395,None,4579.302996500395,None,5,2.2564065996557474,4579.302996500395,None,2.2564065996557474,4581.5844729002565,None,4582.0881061004475,None,4582.0881061004475,None,f,0.33532040007412434,4582.0881061004475,None,0.33532040007412434,,,99Sing,001,2022_Nov_28_1024,ProdSingRedoBetween,2021.2.3,59.82431980442259,
,,,,17,0,17,0,,,,,,,,,,,,,,,,,,,,,,4586.673061200418,None,,,,,,,,,,,,,,,,,mechanical,25,18,sing,old,yellow,4582.954931099899,None,4582.954931099899,None,6,2.7884959997609258,4582.954931099899,None,2.7884959997609258,4585.773711800575,None,4586.276654500514,None,4586.276654500514,None,f,0.3707531997933984,4586.276654500514,None,0.3707531997933984,,,99Sing,001,2022_Nov_28_1024,ProdSingRedoBetween,2021.2.3,59.82431980442259,
,,,,18,0,18,0,,,,,,,,,,,,,,,,,,,,,,4592.295277600177,None,,,,,,,,,,,,,,,,,income,12,19,sing,old,yellow,4587.183887800202,None,4587.183887800202,None,6,4.215578299947083,4587.183887800202,None,4.215578299947083,4591.437132500112,None,4591.945123299956,None,4591.945123299956,None,r,0.3342742994427681,4591.945123299956,None,0.3342742994427681,,,99Sing,001,2022_Nov_28_1024,ProdSingRedoBetween,2021.2.3,59.82431980442259,
,,,,19,0,19,0,,,,,,,,,,,,,,,,,,,,,,4596.049842700362,None,,,,,,,,,,,,,,,,,alert,29,20,sing,old,blue,4592.804484699853,None,4592.804484699853,None,6,2.4508606996387243,4592.804484699853,None,2.4508606996387243,4595.283478599973,None,4595.799773400649,None,4595.799773400649,None,r,0.2236875994130969,4595.799773400649,None,0.2236875994130969,,,99Sing,001,2022_Nov_28_1024,ProdSingRedoBetween,2021.2.3,59.82431980442259,
,,,,20,0,20,0,,,,,,,,,,,,,,,,,,,,,,4599.640492500737,None,,,,,,,,,,,,,,,,,member,50,21,sing,old,blue,4596.55279779993,None,4596.55279779993,None,4,2.2544895000755787,4596.55279779993,None,2.2544895000755787,4598.83689550031,None,4599.353643500246,None,4599.353643500246,None,f,0.26189880073070526,4599.353643500246,None,0.26189880073070526,,,99Sing,001,2022_Nov_28_1024,ProdSingRedoBetween,2021.2.3,59.82431980442259,
,,,,21,0,21,0,,,,,,,,,,,,,,,,,,,,,,4602.960071500391,None,,,,,,,,,,,,,,,,,pretty,0,22,sing,old,yellow,4600.153119999915,None,4600.153119999915,None,6,2.134269100613892,4600.153119999915,None,2.134269100613892,4602.31260590069,None,4602.822439299896,None,4602.822439299896,None,r,0.11302000004798174,4602.822439299896,None,0.11302000004798174,,,99Sing,001,2022_Nov_28_1024,ProdSingRedoBetween,2021.2.3,59.82431980442259,
,,,,22,0,22,0,,,,,,,,,,,,,,,,,,,,,,4607.743988499977,None,,,,,,,,,,,,,,,,,mayor,179,23,sing,new,null,4603.4732522005215,None,4603.4732522005215,None,1,3.0221028001978993,4603.4732522005215,None,3.0221028001978993,4606.526391400024,None,4607.032949800603,None,4607.032949800603,None,n,0.6943731997162104,4607.032949800603,None,0.6943731997162104,,,99Sing,001,2022_Nov_28_1024,ProdSingRedoBetween,2021.2.3,59.82431980442259,
,,,,23,0,23,0,,,,,,,,,,,,,,,,,,,,,,4613.31782389991,None,,,,,,,,,,,,,,,,,close,11,24,sing,old,yellow,4608.257342000492,None,4608.257342000492,None,2,3.8540024999529123,4608.257342000492,None,3.8540024999529123,4612.133630000055,None,4612.653502900153,None,4612.653502900153,None,n,0.6339157996699214,4612.653502900153,None,0.6339157996699214,,,99Sing,001,2022_Nov_28_1024,ProdSingRedoBetween,2021.2.3,59.82431980442259,
,,,,24,0,24,0,,,,,,,,,,,,,,,,,,,,,,4618.537975400686,None,,,,,,,,,,,,,,,,,comfort,77,25,sing,old,red,4613.825266900472,None,4613.825266900472,None,4,3.9580916995182633,4613.825266900472,None,3.9580916995182633,4617.805067400448,None,4618.312498300336,None,4618.312498300336,None,f,0.20687139965593815,4618.312498300336,None,0.20687139965593815,,,99Sing,001,2022_Nov_28_1024,ProdSingRedoBetween,2021.2.3,59.82431980442259,
,,,,25,0,25,0,,,,,,,,,,,,,,,,,,,,,,4622.325204499997,None,,,,,,,,,,,,,,,,,bicycle,101,26,sing,new,null,4619.046211300418,None,4619.046211300418,None,1,2.297320599667728,4619.046211300418,None,2.297320599667728,4621.383889200166,None,4621.891413200647,None,4621.891413200647,None,n,0.41197120025753975,4621.891413200647,None,0.41197120025753975,,,99Sing,001,2022_Nov_28_1024,ProdSingRedoBetween,2021.2.3,59.82431980442259,
,,,,26,0,26,0,,,,,,,,,,,,,,,,,,,,,,4628.5704842004925,None,,,,,,,,,,,,,,,,,defeat,145,27,sing,new,null,4622.828704900108,None,4622.828704900108,None,4,4.9946037996560335,4622.828704900108,None,4.9946037996560335,4627.855597999878,None,4628.364709500223,None,4628.364709500223,None,f,0.1785347005352378,4628.364709500223,None,0.1785347005352378,,,99Sing,001,2022_Nov_28_1024,ProdSingRedoBetween,2021.2.3,59.82431980442259,
,,,,27,0,27,0,,,,,,,,,,,,,,,,,,,,,,4643.897689300589,None,,,,,,,,,,,,,,,,,resistance,150,28,sing,new,null,4629.082062500529,None,4629.082062500529,None,5,13.71732119936496,4629.082062500529,None,13.71732119936496,4642.835634000599,None,4643.3482464002445,None,4643.3482464002445,None,f,0.5231295991688967,4643.3482464002445,None,0.5231295991688967,,,99Sing,001,2022_Nov_28_1024,ProdSingRedoBetween,2021.2.3,59.82431980442259,
,,,,28,0,28,0,,,,,,,,,,,,,,,,,,,,,,4648.601391900331,None,,,,,,,,,,,,,,,,,position,43,29,sing,old,blue,4644.401537500322,None,4644.401537500322,None,3,2.9496933994814754,4644.401537500322,None,2.9496933994814754,4647.370264099911,None,4647.884159500711,None,4647.884159500711,None,n,0.6910902997478843,4647.884159500711,None,0.6910902997478843,,,99Sing,001,2022_Nov_28_1024,ProdSingRedoBetween,2021.2.3,59.82431980442259,
,,,,29,0,29,0,,,,,,,,,,,,,,,,,,,,,,4652.054871100001,None,,,,,,,,,,,,,,,,,balance,124,30,sing,new,null,4649.108632500283,None,4649.108632500283,None,4,2.2346823001280427,4649.108632500283,None,2.2346823001280427,4651.3738184999675,None,4651.88807570003,None,4651.88807570003,None,f,0.14333470072597265,4651.88807570003,None,0.14333470072597265,,,99Sing,001,2022_Nov_28_1024,ProdSingRedoBetween,2021.2.3,59.82431980442259,
,,,,30,0,30,0,,,,,,,,,,,,,,,,,,,,,,4656.65944540035,None,,,,,,,,,,,,,,,,,recall,52,31,sing,old,blue,4652.574757000431,None,4652.574757000431,None,6,3.1844252003356814,4652.574757000431,None,3.1844252003356814,4655.780887700617,None,4656.292517499998,None,4656.292517499998,None,r,0.34679710026830435,4656.292517499998,None,0.34679710026830435,,,99Sing,001,2022_Nov_28_1024,ProdSingRedoBetween,2021.2.3,59.82431980442259,
,,,,31,0,31,0,,,,,,,,,,,,,,,,,,,,,,4660.646647300571,None,,,,,,,,,,,,,,,,,fellow,120,32,sing,new,null,4657.178828299977,None,4657.178828299977,None,1,2.076450999826193,4657.178828299977,None,2.076450999826193,4659.279969000258,None,4659.779348900542,None,4659.779348900542,None,n,0.8520059995353222,4659.779348900542,None,0.8520059995353222,,,99Sing,001,2022_Nov_28_1024,ProdSingRedoBetween,2021.2.3,59.82431980442259,
,,,,32,0,32,0,,,,,,,,,,,,,,,,,,,,,,4681.100533099845,None,,,,,,,,,,,,,,,,,height,49,33,sing,old,blue,4661.162260900252,None,4661.162260900252,None,4,14.124924200586975,4661.162260900252,None,14.124924200586975,4675.3113702004775,None,4675.817656300031,None,4675.817656300031,None,f,5.261584099382162,4675.817656300031,None,5.261584099382162,,,99Sing,001,2022_Nov_28_1024,ProdSingRedoBetween,2021.2.3,59.82431980442259,
,,,,33,0,33,0,,,,,,,,,,,,,,,,,,,,,,4684.807217500173,None,,,,,,,,,,,,,,,,,beauty,134,34,sing,new,null,4681.611208700575,None,4681.611208700575,None,3,2.300022500567138,4681.611208700575,None,2.300022500567138,4683.939823900349,None,4684.453733799979,None,4684.453733799979,None,n,0.3216057997196913,4684.453733799979,None,0.3216057997196913,,,99Sing,001,2022_Nov_28_1024,ProdSingRedoBetween,2021.2.3,59.82431980442259,
,,,,34,0,34,0,,,,,,,,,,,,,,,,,,,,,,4688.976282800548,None,,,,,,,,,,,,,,,,,husband,72,35,sing,old,red,4685.32264290005,None,4685.32264290005,None,6,2.132507300004363,4685.32264290005,None,2.132507300004363,4687.47871880047,None,4687.99652050063,None,4687.99652050063,None,r,0.9549465999007225,4687.99652050063,None,0.9549465999007225,,,99Sing,001,2022_Nov_28_1024,ProdSingRedoBetween,2021.2.3,59.82431980442259,
,,,,35,0,35,0,,,,,,,,,,,,,,,,,,,,,,4694.196924900636,None,,,,,,,,,,,,,,,,,oxygen,47,36,sing,old,blue,4689.480549899861,None,4689.480549899861,None,4,3.7105722995474935,4689.480549899861,None,3.7105722995474935,4693.214856000617,None,4693.733726300299,None,4693.733726300299,None,f,0.44143000058829784,4693.733726300299,None,0.44143000058829784,,,99Sing,001,2022_Nov_28_1024,ProdSingRedoBetween,2021.2.3,59.82431980442259,
,,,,36,0,36,0,,,,,,,,,,,,,,,,,,,,,,4698.919106800109,None,,,,,,,,,,,,,,,,,provision,10,37,sing,old,yellow,4694.697538600303,None,4694.697538600303,None,6,2.517648199573159,4694.697538600303,None,2.517648199573159,4697.23516440019,None,4697.752272000536,None,4697.752272000536,None,r,1.135063599795103,4697.752272000536,None,1.135063599795103,,,99Sing,001,2022_Nov_28_1024,ProdSingRedoBetween,2021.2.3,59.82431980442259,
,,,,37,0,37,0,,,,,,,,,,,,,,,,,,,,,,4703.289082700387,None,,,,,,,,,,,,,,,,,sleep,59,38,sing,old,yellow,4699.422287000343,None,4699.422287000343,None,2,2.7129173995926976,4699.422287000343,None,2.7129173995926976,4702.156123099849,None,4702.656516800635,None,4702.656516800635,None,n,0.6146421004086733,4702.656516800635,None,0.6146421004086733,,,99Sing,001,2022_Nov_28_1024,ProdSingRedoBetween,2021.2.3,59.82431980442259,
,,,,38,0,38,0,,,,,,,,,,,,,,,,,,,,,,4712.4822601005435,None,,,,,,,,,,,,,,,,,gesture,28,39,sing,old,yellow,4703.792972899973,None,4703.792972899973,None,3,7.2301332000643015,4703.792972899973,None,7.2301332000643015,4711.048136699945,None,4711.55352600012,None,4711.55352600012,None,n,0.901626999489963,4711.55352600012,None,0.901626999489963,,,99Sing,001,2022_Nov_28_1024,ProdSingRedoBetween,2021.2.3,59.82431980442259,
,,,,39,0,39,0,,,,,,,,,,,,,,,,,,,,,,4718.956235100515,None,,,,,,,,,,,,,,,,,poetry,133,40,sing,new,null,4712.996111500077,None,4712.996111500077,None,1,2.547152300365269,4712.996111500077,None,2.547152300365269,4715.57655310072,None,4716.088919499889,None,4716.088919499889,None,n,2.8383567994460464,4716.088919499889,None,2.8383567994460464,,,99Sing,001,2022_Nov_28_1024,ProdSingRedoBetween,2021.2.3,59.82431980442259,
,,,,40,0,40,0,,,,,,,,,,,,,,,,,,,,,,4723.392721200362,None,,,,,,,,,,,,,,,,,emergency,75,41,sing,old,red,4719.461292600259,None,4719.461292600259,None,6,2.705874099396169,4719.461292600259,None,2.705874099396169,4722.193714400753,None,4722.713158600032,None,4722.713158600032,None,r,0.6540013998746872,4722.713158600032,None,0.6540013998746872,,,99Sing,001,2022_Nov_28_1024,ProdSingRedoBetween,2021.2.3,59.82431980442259,
,,,,41,0,41,0,,,,,,,,,,,,,,,,,,,,,,4726.329209100455,None,,,,,,,,,,,,,,,,,universal,6,42,sing,old,yellow,4723.917640199885,None,4723.917640199885,None,6,1.4735198998823762,4723.917640199885,None,1.4735198998823762,4725.413615600206,None,4725.9341737004,None,4725.9341737004,None,r,0.3769825007766485,4725.9341737004,None,0.3769825007766485,,,99Sing,001,2022_Nov_28_1024,ProdSingRedoBetween,2021.2.3,59.82431980442259,
,,,,42,0,42,0,,,,,,,,,,,,,,,,,,,,,,4730.065981999971,None,,,,,,,,,,,,,,,,,touch,159,43,sing,new,null,4726.829520500265,None,4726.829520500265,None,5,2.3696276005357504,4726.829520500265,None,2.3696276005357504,4729.217405000702,None,4729.737249500118,None,4729.737249500118,None,f,0.3099511004984379,4729.737249500118,None,0.3099511004984379,,,99Sing,001,2022_Nov_28_1024,ProdSingRedoBetween,2021.2.3,59.82431980442259,
,,,,43,0,43,0,,,,,,,,,,,,,,,,,,,,,,4734.605394400656,None,,,,,,,,,,,,,,,,,attack,62,44,sing,old,red,4730.578507500701,None,4730.578507500701,None,6,3.1566000999882817,4730.578507500701,None,3.1566000999882817,4733.756010500714,None,4734.275025499985,None,4734.275025499985,None,r,0.3001976003870368,4734.275025499985,None,0.3001976003870368,,,99Sing,001,2022_Nov_28_1024,ProdSingRedoBetween,2021.2.3,59.82431980442259,
,,,,44,0,44,0,,,,,,,,,,,,,,,,,,,,,,4738.425665200688,None,,,,,,,,,,,,,,,,,literature,125,45,sing,new,null,4735.105892300606,None,4735.105892300606,None,4,2.5655248006805778,4735.105892300606,None,2.5655248006805778,4737.698823500425,None,4738.214764100499,None,4738.214764100499,None,f,0.18448210041970015,4738.214764100499,None,0.18448210041970015,,,99Sing,001,2022_Nov_28_1024,ProdSingRedoBetween,2021.2.3,59.82431980442259,
,,,,45,0,45,0,,,,,,,,,,,,,,,,,,,,,,4764.066525700502,None,,,,,,,,,,,,,,,,,debate,94,46,sing,new,null,4738.929263800383,None,4738.929263800383,None,2,24.445841199718416,4738.929263800383,None,24.445841199718416,4763.399674400687,None,4763.907058900222,None,4763.907058900222,None,n,0.13197149988263845,4763.907058900222,None,0.13197149988263845,,,99Sing,001,2022_Nov_28_1024,ProdSingRedoBetween,2021.2.3,59.82431980442259,
,,,,46,0,46,0,,,,,,,,,,,,,,,,,,,,,,4767.136062900536,None,,,,,,,,,,,,,,,,,curve,164,47,sing,new,null,4764.575427000411,None,4764.575427000411,None,1,1.5996147999539971,4764.575427000411,None,1.5996147999539971,4766.20395669993,None,4766.723785799928,None,4766.723785799928,None,n,0.38731110002845526,4766.723785799928,None,0.38731110002845526,,,99Sing,001,2022_Nov_28_1024,ProdSingRedoBetween,2021.2.3,59.82431980442259,
,,,,47,0,47,0,,,,,,,,,,,,,,,,,,,,,,4770.990192600526,None,,,,,,,,,,,,,,,,,childhood,89,48,sing,old,red,4767.649505999871,None,4767.649505999871,None,4,2.685596600174904,4767.649505999871,None,2.685596600174904,4770.359295800328,None,4770.875992599875,None,4770.875992599875,None,f,0.09909840021282434,4770.875992599875,None,0.09909840021282434,,,99Sing,001,2022_Nov_28_1024,ProdSingRedoBetween,2021.2.3,59.82431980442259,
,,,,48,0,48,0,,,,,,,,,,,,,,,,,,,,,,4774.428211400285,None,,,,,,,,,,,,,,,,,bureau,32,49,sing,old,blue,4771.496955499984,None,4771.496955499984,None,6,2.0620681000873446,4771.496955499984,None,2.0620681000873446,4773.57643770054,None,4774.0840614000335,None,4774.0840614000335,None,r,0.3151054000481963,4774.0840614000335,None,0.3151054000481963,,,99Sing,001,2022_Nov_28_1024,ProdSingRedoBetween,2021.2.3,59.82431980442259,
,,,,49,0,49,0,,,,,,,,,,,,,,,,,,,,,,4778.099152000621,None,,,,,,,,,,,,,,,,,sound,31,50,sing,old,blue,4774.931960800663,None,4774.931960800663,None,3,2.2911105006933212,4774.931960800663,None,2.2911105006933212,4777.246387000196,None,4777.757378600538,None,4777.757378600538,None,n,0.3216825993731618,4777.757378600538,None,0.3216825993731618,,,99Sing,001,2022_Nov_28_1024,ProdSingRedoBetween,2021.2.3,59.82431980442259,
,,,,50,0,50,0,,,,,,,,,,,,,,,,,,,,,,4781.116926500574,None,,,,,,,,,,,,,,,,,background,131,51,sing,new,null,4778.616361900233,None,4778.616361900233,None,6,1.7268853997811675,4778.616361900233,None,1.7268853997811675,4780.36604140047,None,4780.870641000569,None,4780.870641000569,None,r,0.2164070000872016,4780.870641000569,None,0.2164070000872016,,,99Sing,001,2022_Nov_28_1024,ProdSingRedoBetween,2021.2.3,59.82431980442259,
,,,,51,0,51,0,,,,,,,,,,,,,,,,,,,,,,4784.403868299909,None,,,,,,,,,,,,,,,,,object,97,52,sing,new,null,4781.6338800005615,None,4781.6338800005615,None,3,1.853218600153923,4781.6338800005615,None,1.853218600153923,4783.505909300409,None,4784.0196048999205,None,4784.0196048999205,None,n,0.3553831996396184,4784.0196048999205,None,0.3553831996396184,,,99Sing,001,2022_Nov_28_1024,ProdSingRedoBetween,2021.2.3,59.82431980442259,
,,,,52,0,52,0,,,,,,,,,,,,,,,,,,,,,,4787.477978699841,None,,,,,,,,,,,,,,,,,plane,162,53,sing,new,null,4784.913203700446,None,4784.913203700446,None,1,1.6538615003228188,4784.913203700446,None,1.6538615003228188,4786.595304700546,None,4787.1145208003,None,4787.1145208003,None,n,0.3326916005462408,4787.1145208003,None,0.3326916005462408,,,99Sing,001,2022_Nov_28_1024,ProdSingRedoBetween,2021.2.3,59.82431980442259,
,,,,53,0,53,0,,,,,,,,,,,,,,,,,,,,,,4791.028338000178,None,,,,,,,,,,,,,,,,,judge,178,54,sing,new,null,4787.990610300563,None,4787.990610300563,None,2,2.08857879973948,4787.990610300563,None,2.08857879973948,4790.110140200704,None,4790.616447499953,None,4790.616447499953,None,n,0.3826242992654443,4790.616447499953,None,0.3826242992654443,,,99Sing,001,2022_Nov_28_1024,ProdSingRedoBetween,2021.2.3,59.82431980442259,
,,,,54,0,54,0,,,,,,,,,,,,,,,,,,,,,,4795.0814868006855,None,,,,,,,,,,,,,,,,,testimony,141,55,sing,new,null,4791.546192600392,None,4791.546192600392,None,1,2.6448730006814003,4791.546192600392,None,2.6448730006814003,4794.213689000346,None,4794.721210100688,None,4794.721210100688,None,n,0.3419304993003607,4794.721210100688,None,0.3419304993003607,,,99Sing,001,2022_Nov_28_1024,ProdSingRedoBetween,2021.2.3,59.82431980442259,
,,,,55,0,55,0,,,,,,,,,,,,,,,,,,,,,,4798.651059000753,None,,,,,,,,,,,,,,,,,match,39,56,sing,old,blue,4795.583163499832,None,4795.583163499832,None,4,2.2879559006541967,4795.583163499832,None,2.2879559006541967,4797.900315000676,None,4798.401025600731,None,4798.401025600731,None,f,0.23007609974592924,4798.401025600731,None,0.23007609974592924,,,99Sing,001,2022_Nov_28_1024,ProdSingRedoBetween,2021.2.3,59.82431980442259,
,,,,56,0,56,0,,,,,,,,,,,,,,,,,,,,,,4801.720781000331,None,,,,,,,,,,,,,,,,,accident,142,57,sing,new,null,4799.15185130015,None,4799.15185130015,None,6,1.9352042004466057,4799.15185130015,None,1.9352042004466057,4801.1044423999265,None,4801.60607710015,None,4801.60607710015,None,r,0.08895619958639145,4801.60607710015,None,0.08895619958639145,,,99Sing,001,2022_Nov_28_1024,ProdSingRedoBetween,2021.2.3,59.82431980442259,
,,,,57,0,57,0,,,,,,,,,,,,,,,,,,,,,,4804.857183700427,None,,,,,,,,,,,,,,,,,education,87,58,sing,old,red,4802.227375800721,None,4802.227375800721,None,6,1.9477474000304937,4802.227375800721,None,1.9477474000304937,4804.211631200276,None,4804.725711100735,None,4804.725711100735,None,r,0.10537790041416883,4804.725711100735,None,0.10537790041416883,,,99Sing,001,2022_Nov_28_1024,ProdSingRedoBetween,2021.2.3,59.82431980442259,
,,,,58,0,58,0,,,,,,,,,,,,,,,,,,,,,,4808.16060990002,None,,,,,,,,,,,,,,,,,swift,3,59,sing,old,yellow,4805.363071599975,None,4805.363071599975,None,2,1.8919496005401015,4805.363071599975,None,1.8919496005401015,4807.2799641005695,None,4807.796725800261,None,4807.796725800261,None,n,0.3463113000616431,4807.796725800261,None,0.3463113000616431,,,99Sing,001,2022_Nov_28_1024,ProdSingRedoBetween,2021.2.3,59.82431980442259,
,,,,59,0,59,0,,,,,,,,,,,,,,,,,,,,,,4815.4845527000725,None,,,,,,,,,,,,,,,,,region,42,60,sing,old,blue,4808.669740800746,None,4808.669740800746,None,2,5.321211500093341,4808.669740800746,None,5.321211500093341,4814.020302900113,None,4814.533727500588,None,4814.533727500588,None,n,0.929262200370431,4814.533727500588,None,0.929262200370431,,,99Sing,001,2022_Nov_28_1024,ProdSingRedoBetween,2021.2.3,59.82431980442259,
,,,,60,0,60,0,,,,,,,,,,,,,,,,,,,,,,4819.40497510042,None,,,,,,,,,,,,,,,,,threat,83,61,sing,old,red,4815.988030300476,None,4815.988030300476,None,6,2.85090159997344,4815.988030300476,None,2.85090159997344,4818.864063800313,None,4819.371554500423,None,4819.371554500423,None,r,0.011454899795353413,4819.371554500423,None,0.011454899795353413,,,99Sing,001,2022_Nov_28_1024,ProdSingRedoBetween,2021.2.3,59.82431980442259,
,,,,61,0,61,0,,,,,,,,,,,,,,,,,,,,,,4824.460107699968,None,,,,,,,,,,,,,,,,,stand,149,62,sing,new,null,4819.909648600034,None,4819.909648600034,None,2,3.761598899960518,4819.909648600034,None,3.761598899960518,4823.701425200328,None,4824.212072900496,None,4824.212072900496,None,n,0.22695939987897873,4824.212072900496,None,0.22695939987897873,,,99Sing,001,2022_Nov_28_1024,ProdSingRedoBetween,2021.2.3,59.82431980442259,
,,,,62,0,62,0,,,,,,,,,,,,,,,,,,,,,,4828.180459700525,None,,,,,,,,,,,,,,,,,working,56,63,sing,old,blue,4824.9637136003,None,4824.9637136003,None,2,2.307405199855566,4824.9637136003,None,2.307405199855566,4827.301295400597,None,4827.813636300154,None,4827.813636300154,None,n,0.34542660042643547,4827.813636300154,None,0.34542660042643547,,,99Sing,001,2022_Nov_28_1024,ProdSingRedoBetween,2021.2.3,59.82431980442259,
,,,,63,0,63,0,,,,,,,,,,,,,,,,,,,,,,4831.517254600301,None,,,,,,,,,,,,,,,,,group,103,64,sing,new,null,4828.684233699925,None,4828.684233699925,None,3,1.7388484999537468,4828.684233699925,None,1.7388484999537468,4830.451716599986,None,4830.9683934003115,None,4830.9683934003115,None,n,0.526587599888444,4830.9683934003115,None,0.526587599888444,,,99Sing,001,2022_Nov_28_1024,ProdSingRedoBetween,2021.2.3,59.82431980442259,
,,,,64,0,64,0,,,,,,,,,,,,,,,,,,,,,,4834.9037786005065,None,,,,,,,,,,,,,,,,,department,61,65,sing,old,red,4832.031461100094,None,4832.031461100094,None,6,2.1755389999598265,4832.031461100094,None,2.1755389999598265,4834.241442000493,None,4834.7537569999695,None,4834.7537569999695,None,r,0.13321620039641857,4834.7537569999695,None,0.13321620039641857,,,99Sing,001,2022_Nov_28_1024,ProdSingRedoBetween,2021.2.3,59.82431980442259,
,,,,65,0,65,0,,,,,,,,,,,,,,,,,,,,,,4837.877466999926,None,,,,,,,,,,,,,,,,,mankind,37,66,sing,old,blue,4835.414495199919,None,4835.414495199919,None,1,1.5924903005361557,4835.414495199919,None,1.5924903005361557,4837.02579820063,None,4837.54307120014,None,4837.54307120014,None,n,0.31196069996804,4837.54307120014,None,0.31196069996804,,,99Sing,001,2022_Nov_28_1024,ProdSingRedoBetween,2021.2.3,59.82431980442259,
,,,,66,0,66,0,,,,,,,,,,,,,,,,,,,,,,4842.679806199856,None,,,,,,,,,,,,,,,,,crime,155,67,sing,new,null,4838.399684100412,None,4838.399684100412,None,6,2.4952715998515487,4838.399684100412,None,2.4952715998515487,4840.926392800175,None,4841.426940199919,None,4841.426940199919,None,r,1.2361872997134924,4841.426940199919,None,1.2361872997134924,,,99Sing,001,2022_Nov_28_1024,ProdSingRedoBetween,2021.2.3,59.82431980442259,
,,,,67,0,67,0,,,,,,,,,,,,,,,,,,,,,,4845.814710699953,None,,,,,,,,,,,,,,,,,murder,109,68,sing,new,null,4843.194131500088,None,4843.194131500088,None,1,1.7327756006270647,4843.194131500088,None,1.7327756006270647,4844.948145600036,None,4845.447929300368,None,4845.447929300368,None,n,0.3430744996294379,4845.447929300368,None,0.3430744996294379,,,99Sing,001,2022_Nov_28_1024,ProdSingRedoBetween,2021.2.3,59.82431980442259,
,,,,68,0,68,0,,,,,,,,,,,,,,,,,,,,,,4849.601640700363,None,,,,,,,,,,,,,,,,,edition,100,69,sing,new,null,4846.316529500298,None,4846.316529500298,None,1,2.146679099649191,4846.316529500298,None,2.146679099649191,4848.490474699996,None,4849.001201700419,None,4849.001201700419,None,n,0.5818478995934129,4849.001201700419,None,0.5818478995934129,,,99Sing,001,2022_Nov_28_1024,ProdSingRedoBetween,2021.2.3,59.82431980442259,
,,,,69,0,69,0,,,,,,,,,,,,,,,,,,,,,,4855.624345200136,None,,,,,,,,,,,,,,,,,business,20,70,sing,old,yellow,4850.108244299889,None,4850.108244299889,None,4,3.9147314997389913,4850.108244299889,None,3.9147314997389913,4854.040616000071,None,4854.544645500369,None,4854.544645500369,None,f,1.0622961996123195,4854.544645500369,None,1.0622961996123195,,,99Sing,001,2022_Nov_28_1024,ProdSingRedoBetween,2021.2.3,59.82431980442259,
,,,,70,0,70,0,,,,,,,,,,,,,,,,,,,,,,4860.729630700313,None,,,,,,,,,,,,,,,,,revolution,138,71,sing,new,null,4856.129587099887,None,4856.129587099887,None,2,3.82956360001117,4856.129587099887,None,3.82956360001117,4859.990226900205,None,4860.49610619992,None,4860.49610619992,None,n,0.20678920019418,4860.49610619992,None,0.20678920019418,,,99Sing,001,2022_Nov_28_1024,ProdSingRedoBetween,2021.2.3,59.82431980442259,
,,,,71,0,71,0,,,,,,,,,,,,,,,,,,,,,,4864.51670040004,None,,,,,,,,,,,,,,,,,scene,129,72,sing,new,null,4861.23722220026,None,4861.23722220026,None,2,1.6897064000368118,4861.23722220026,None,1.6897064000368118,4862.950725500472,None,4863.470688600093,None,4863.470688600093,None,n,1.016296099871397,4863.470688600093,None,1.016296099871397,,,99Sing,001,2022_Nov_28_1024,ProdSingRedoBetween,2021.2.3,59.82431980442259,
,,,,72,0,72,0,,,,,,,,,,,,,,,,,,,,,,4868.353907700628,None,,,,,,,,,,,,,,,,,agreement,84,73,sing,old,red,4865.031478300691,None,4865.031478300691,None,6,2.503325699828565,4865.031478300691,None,2.503325699828565,4867.5531286001205,None,4868.058967300691,None,4868.058967300691,None,r,0.27593859937042,4868.058967300691,None,0.27593859937042,,,99Sing,001,2022_Nov_28_1024,ProdSingRedoBetween,2021.2.3,59.82431980442259,
,,,,73,0,73,0,,,,,,,,,,,,,,,,,,,,,,4871.640329100192,None,,,,,,,,,,,,,,,,,block,104,74,sing,new,null,4868.862539799884,None,4868.862539799884,None,3,1.7523106997832656,4868.862539799884,None,1.7523106997832656,4870.640831599943,None,4871.1483940007165,None,4871.1483940007165,None,n,0.47437340021133423,4871.1483940007165,None,0.47437340021133423,,,99Sing,001,2022_Nov_28_1024,ProdSingRedoBetween,2021.2.3,59.82431980442259,
,,,,74,0,74,0,,,,,,,,,,,,,,,,,,,,,,4876.678872900084,None,,,,,,,,,,,,,,,,,suspect,17,75,sing,old,yellow,4872.148748700507,None,4872.148748700507,None,6,3.7222599992528558,4872.148748700507,None,3.7222599992528558,4875.902143000625,None,4876.41311640013,None,4876.41311640013,None,r,0.249732899479568,4876.41311640013,None,0.249732899479568,,,99Sing,001,2022_Nov_28_1024,ProdSingRedoBetween,2021.2.3,59.82431980442259,
,,,,75,0,75,0,,,,,,,,,,,,,,,,,,,,,,4879.4479907006025,None,,,,,,,,,,,,,,,,,cover,174,76,sing,new,null,4877.18738210015,None,4877.18738210015,None,2,1.4354166993871331,4877.18738210015,None,1.4354166993871331,4878.6507534002885,None,4879.167096300051,None,4879.167096300051,None,n,0.2558204997330904,4879.167096300051,None,0.2558204997330904,,,99Sing,001,2022_Nov_28_1024,ProdSingRedoBetween,2021.2.3,59.82431980442259,
,,,,76,0,76,0,,,,,,,,,,,,,,,,,,,,,,4882.751594800502,None,,,,,,,,,,,,,,,,,travel,48,77,sing,old,blue,4879.948778800666,None,4879.948778800666,None,1,2.0820453008636832,4879.948778800666,None,2.0820453008636832,4882.057267700322,None,4882.568210599944,None,4882.568210599944,None,n,0.1587030002847314,4882.568210599944,None,0.1587030002847314,,,99Sing,001,2022_Nov_28_1024,ProdSingRedoBetween,2021.2.3,59.82431980442259,
,,,,77,0,77,0,,,,,,,,,,,,,,,,,,,,,,4886.922469200566,None,,,,,,,,,,,,,,,,,nature,45,78,sing,old,blue,4883.257501500659,None,4883.257501500659,None,4,2.4215369997546077,4883.257501500659,None,2.4215369997546077,4885.708624700084,None,4886.221839300357,None,4886.221839300357,None,f,0.672948700375855,4886.221839300357,None,0.672948700375855,,,99Sing,001,2022_Nov_28_1024,ProdSingRedoBetween,2021.2.3,59.82431980442259,
,,,,78,0,78,0,,,,,,,,,,,,,,,,,,,,,,4898.767550400458,None,,,,,,,,,,,,,,,,,pressure,13,79,sing,old,yellow,4887.43433140032,None,4887.43433140032,None,5,10.20449069980532,4887.43433140032,None,10.20449069980532,4897.667374700308,None,4898.1671347999945,None,4898.1671347999945,None,f,0.5757996002212167,4898.1671347999945,None,0.5757996002212167,,,99Sing,001,2022_Nov_28_1024,ProdSingRedoBetween,2021.2.3,59.82431980442259,
,,,,79,0,79,0,,,,,,,,,,,,,,,,,,,,,,4901.772232000716,None,,,,,,,,,,,,,,,,,charter,157,80,sing,new,null,4899.26959390007,None,4899.26959390007,None,1,1.7772186994552612,4899.26959390007,None,1.7772186994552612,4901.070733400062,None,4901.572877400555,None,4901.572877400555,None,n,0.178099500015378,4901.572877400555,None,0.178099500015378,,,99Sing,001,2022_Nov_28_1024,ProdSingRedoBetween,2021.2.3,59.82431980442259,
,,,,80,0,80,0,,,,,,,,,,,,,,,,,,,,,,4904.723295800388,None,,,,,,,,,,,,,,,,,safety,68,81,sing,old,red,4902.294782199897,None,4902.294782199897,None,6,1.7919487999752164,4902.294782199897,None,1.7919487999752164,4904.111928000115,None,4904.623508100398,None,4904.623508100398,None,r,0.07123379968106747,4904.623508100398,None,0.07123379968106747,,,99Sing,001,2022_Nov_28_1024,ProdSingRedoBetween,2021.2.3,59.82431980442259,
,,,,81,0,81,0,,,,,,,,,,,,,,,,,,,,,,4908.610734400339,None,,,,,,,,,,,,,,,,,dream,116,82,sing,new,null,4905.227527900599,None,4905.227527900599,None,1,2.7392804995179176,4905.227527900599,None,2.7392804995179176,4907.994033300318,None,4908.498172100633,None,4908.498172100633,None,n,0.08469259925186634,4908.498172100633,None,0.08469259925186634,,,99Sing,001,2022_Nov_28_1024,ProdSingRedoBetween,2021.2.3,59.82431980442259,
,,,,82,0,82,0,,,,,,,,,,,,,,,,,,,,,,4915.367457800545,None,,,,,,,,,,,,,,,,,store,96,83,sing,new,null,4909.113396900706,None,4909.113396900706,None,1,5.4534279005602,4909.113396900706,None,5.4534279005602,4914.584616600536,None,4915.088936000131,None,4915.088936000131,None,n,0.2619139002636075,4915.088936000131,None,0.2619139002636075,,,99Sing,001,2022_Nov_28_1024,ProdSingRedoBetween,2021.2.3,59.82431980442259,
,,,,83,0,83,0,,,,,,,,,,,,,,,,,,,,,,4918.874421000481,None,,,,,,,,,,,,,,,,,employment,112,84,sing,new,null,4915.867895500734,None,4915.867895500734,None,6,2.3229316007345915,4915.867895500734,None,2.3229316007345915,4918.22128089983,None,4918.725618599914,None,4918.725618599914,None,r,0.12154100090265274,4918.725618599914,None,0.12154100090265274,,,99Sing,001,2022_Nov_28_1024,ProdSingRedoBetween,2021.2.3,59.82431980442259,
,,,,84,0,84,0,,,,,,,,,,,,,,,,,,,,,,4922.040560699999,None,,,,,,,,,,,,,,,,,material,143,85,sing,new,null,4919.39422330074,None,4919.39422330074,None,1,1.9646453000605106,4919.39422330074,None,1.9646453000605106,4921.38992660027,None,4921.893674500287,None,4921.893674500287,None,n,0.12111239973455667,4921.893674500287,None,0.12111239973455667,,,99Sing,001,2022_Nov_28_1024,ProdSingRedoBetween,2021.2.3,59.82431980442259,
,,,,85,0,85,0,,,,,,,,,,,,,,,,,,,,,,4924.79581100028,None,,,,,,,,,,,,,,,,,broke,55,86,sing,old,blue,4922.5565595002845,None,4922.5565595002845,None,6,1.6023642998188734,4922.5565595002845,None,1.6023642998188734,4924.1800862001255,None,4924.6935513000935,None,4924.6935513000935,None,r,0.08136839978396893,4924.6935513000935,None,0.08136839978396893,,,99Sing,001,2022_Nov_28_1024,ProdSingRedoBetween,2021.2.3,59.82431980442259,
,,,,86,0,86,0,,,,,,,,,,,,,,,,,,,,,,4927.846389700659,None,,,,,,,,,,,,,,,,,order,73,87,sing,old,red,4925.313800000586,None,4925.313800000586,None,2,1.7891826005652547,4925.313800000586,None,1.7891826005652547,4927.129185399972,None,4927.62968569994,None,4927.62968569994,None,n,0.19305629935115576,4927.62968569994,None,0.19305629935115576,,,99Sing,001,2022_Nov_28_1024,ProdSingRedoBetween,2021.2.3,59.82431980442259,
,,,,87,0,87,0,,,,,,,,,,,,,,,,,,,,,,4930.74938370008,None,,,,,,,,,,,,,,,,,colonel,44,88,sing,old,blue,4928.35590399988,None,4928.35590399988,None,1,1.7548936000093818,4928.35590399988,None,1.7548936000093818,4930.1321328999475,None,4930.6418662006035,None,4930.6418662006035,None,n,0.07697100006043911,4930.6418662006035,None,0.07697100006043911,,,99Sing,001,2022_Nov_28_1024,ProdSingRedoBetween,2021.2.3,59.82431980442259,
,,,,88,0,88,0,,,,,,,,,,,,,,,,,,,,,,4934.753372600302,None,,,,,,,,,,,,,,,,,afternoon,15,89,sing,old,yellow,4931.253991900012,None,4931.253991900012,None,1,2.376843400299549,4931.253991900012,None,2.376843400299549,4933.655211499892,None,4934.169589400291,None,4934.169589400291,None,n,0.5571376997977495,4934.169589400291,None,0.5571376997977495,,,99Sing,001,2022_Nov_28_1024,ProdSingRedoBetween,2021.2.3,59.82431980442259,
,,,,89,0,89,0,,,,,,,,,,,,,,,,,,,,,,4939.261528000236,None,,,,,,,,,,,,,,,,,private,92,90,sing,new,null,4935.272733599879,None,4935.272733599879,None,1,2.1181461000815034,4935.272733599879,None,2.1181461000815034,4937.41616309993,None,4937.934154100716,None,4937.934154100716,None,n,1.296819499693811,4937.934154100716,None,1.296819499693811,,,99Sing,001,2022_Nov_28_1024,ProdSingRedoBetween,2021.2.3,59.82431980442259,
,,,,90,0,90,0,,,,,,,,,,,,,,,,,,,,,,4943.417400400154,None,,,,,,,,,,,,,,,,,drove,115,91,sing,new,null,4939.781473500654,None,4939.781473500654,None,3,2.7132095005363226,4939.781473500654,None,2.7132095005363226,4942.512173000723,None,4943.011720499955,None,4943.011720499955,None,n,0.37901979964226484,4943.011720499955,None,0.37901979964226484,,,99Sing,001,2022_Nov_28_1024,ProdSingRedoBetween,2021.2.3,59.82431980442259,
,,,,91,0,91,0,,,,,,,,,,,,,,,,,,,,,,4946.549990400672,None,,,,,,,,,,,,,,,,,health,81,92,sing,old,red,4943.9305516006425,None,4943.9305516006425,None,5,1.4921380998566747,4943.9305516006425,None,1.4921380998566747,4945.454596200027,None,4945.964717100374,None,4945.964717100374,None,f,0.5621913997456431,4945.964717100374,None,0.5621913997456431,,,99Sing,001,2022_Nov_28_1024,ProdSingRedoBetween,2021.2.3,59.82431980442259,
,,,,92,0,92,0,,,,,,,,,,,,,,,,,,,,,,4949.901866000146,None,,,,,,,,,,,,,,,,,household,35,93,sing,old,blue,4947.052827300504,None,4947.052827300504,None,6,1.8262187000364065,4947.052827300504,None,1.8262187000364065,4948.912778600119,None,4949.421086200513,None,4949.421086200513,None,r,0.4577010003849864,4949.421086200513,None,0.4577010003849864,,,99Sing,001,2022_Nov_28_1024,ProdSingRedoBetween,2021.2.3,59.82431980442259,
,,,,93,0,93,0,,,,,,,,,,,,,,,,,,,,,,4953.42400940042,None,,,,,,,,,,,,,,,,,contract,80,94,sing,old,red,4950.40507460013,None,4950.40507460013,None,3,2.0657117003574967,4950.40507460013,None,2.0657117003574967,4952.4939957000315,None,4953.005452500656,None,4953.005452500656,None,n,0.3933814000338316,4953.005452500656,None,0.3933814000338316,,,99Sing,001,2022_Nov_28_1024,ProdSingRedoBetween,2021.2.3,59.82431980442259,
,,,,94,0,94,0,,,,,,,,,,,,,,,,,,,,,,4956.925596300513,None,,,,,,,,,,,,,,,,,center,117,95,sing,new,null,4953.9393632002175,None,4953.9393632002175,None,3,2.0514274006709456,4953.9393632002175,None,2.0514274006709456,4956.010347899981,None,4956.531074300408,None,4956.531074300408,None,n,0.36371290031820536,4956.531074300408,None,0.36371290031820536,,,99Sing,001,2022_Nov_28_1024,ProdSingRedoBetween,2021.2.3,59.82431980442259,
,,,,95,0,95,0,,,,,,,,,,,,,,,,,,,,,,4960.32896860037,None,,,,,,,,,,,,,,,,,appeal,69,96,sing,old,red,4957.431290600449,None,4957.431290600449,None,1,1.7914590006694198,4957.431290600449,None,1.7914590006694198,4959.245738500729,None,4959.748903400265,None,4959.748903400265,None,n,0.5617585005238652,4959.748903400265,None,0.5617585005238652,,,99Sing,001,2022_Nov_28_1024,ProdSingRedoBetween,2021.2.3,59.82431980442259,
,,,,96,0,96,0,,,,,,,,,,,,,,,,,,,,,,4964.099305900745,None,,,,,,,,,,,,,,,,,broad,110,97,sing,new,null,4960.838027800433,None,4960.838027800433,None,2,2.344704699702561,4960.838027800433,None,2.344704699702561,4963.200370100327,None,4963.7169957002625,None,4963.7169957002625,None,n,0.3536450006067753,4963.7169957002625,None,0.3536450006067753,,,99Sing,001,2022_Nov_28_1024,ProdSingRedoBetween,2021.2.3,59.82431980442259,
,,,,97,0,97,0,,,,,,,,,,,,,,,,,,,,,,4967.803084600717,None,,,,,,,,,,,,,,,,,fashion,9,98,sing,old,yellow,4964.600539800711,None,4964.600539800711,None,2,2.1822114000096917,4964.600539800711,None,2.1822114000096917,4966.803259300068,None,4967.308033999987,None,4967.308033999987,None,n,0.47470569983124733,4967.308033999987,None,0.47470569983124733,,,99Sing,001,2022_Nov_28_1024,ProdSingRedoBetween,2021.2.3,59.82431980442259,
,,,,98,0,98,0,,,,,,,,,,,,,,,,,,,,,,4975.864330600016,None,,,,,,,,,,,,,,,,,pattern,51,99,sing,old,blue,4968.319899300113,None,4968.319899300113,None,4,6.814866799861193,4968.319899300113,None,6.814866799861193,4975.164011700079,None,4975.682456900366,None,4975.682456900366,None,f,0.1485205003991723,4975.682456900366,None,0.1485205003991723,,,99Sing,001,2022_Nov_28_1024,ProdSingRedoBetween,2021.2.3,59.82431980442259,
,,,,99,0,99,0,,,,,,,,,,,,,,,,,,,,,,4979.365784500726,None,,,,,,,,,,,,,,,,,citizen,121,100,sing,new,null,4976.402571900748,None,4976.402571900748,None,3,1.9241540003567934,4976.402571900748,None,1.9241540003567934,4978.3476990005,None,4978.853400300257,None,4978.853400300257,None,n,0.4817386996001005,4978.853400300257,None,0.4817386996001005,,,99Sing,001,2022_Nov_28_1024,ProdSingRedoBetween,2021.2.3,59.82431980442259,
,,,,100,0,100,0,,,,,,,,,,,,,,,,,,,,,,4984.319573400542,None,,,,,,,,,,,,,,,,,title,113,101,sing,new,null,4979.869601100683,None,4979.869601100683,None,4,3.601187700405717,4979.869601100683,None,3.601187700405717,4983.506142700091,None,4984.01938650012,None,4984.01938650012,None,f,0.28332529962062836,4984.01938650012,None,0.28332529962062836,,,99Sing,001,2022_Nov_28_1024,ProdSingRedoBetween,2021.2.3,59.82431980442259,
,,,,101,0,101,0,,,,,,,,,,,,,,,,,,,,,,4987.623790300451,None,,,,,,,,,,,,,,,,,taste,166,102,sing,new,null,4984.83312850073,None,4984.83312850073,None,5,1.9175968999043107,4984.83312850073,None,1.9175968999043107,4986.772008200176,None,4987.279911800288,None,4987.279911800288,None,f,0.3268139995634556,4987.279911800288,None,0.3268139995634556,,,99Sing,001,2022_Nov_28_1024,ProdSingRedoBetween,2021.2.3,59.82431980442259,
,,,,102,0,102,0,,,,,,,,,,,,,,,,,,,,,,4990.727514100261,None,,,,,,,,,,,,,,,,,weight,161,103,sing,new,null,4988.134903800674,None,4988.134903800674,None,3,1.6638274993747473,4988.134903800674,None,1.6638274993747473,4989.831577000208,None,4990.3514505000785,None,4990.3514505000785,None,n,0.34344250056892633,4990.3514505000785,None,0.34344250056892633,,,99Sing,001,2022_Nov_28_1024,ProdSingRedoBetween,2021.2.3,59.82431980442259,
,,,,103,0,103,0,,,,,,,,,,,,,,,,,,,,,,4994.446166500449,None,,,,,,,,,,,,,,,,,produce,137,104,sing,new,null,4991.239916000515,None,4991.239916000515,None,5,2.3347148001194,4991.239916000515,None,2.3347148001194,4993.598135900684,None,4994.112671700306,None,4994.112671700306,None,f,0.3179083000868559,4994.112671700306,None,0.3179083000868559,,,99Sing,001,2022_Nov_28_1024,ProdSingRedoBetween,2021.2.3,59.82431980442259,
,,,,104,0,104,0,,,,,,,,,,,,,,,,,,,,,,4998.4837551005185,None,,,,,,,,,,,,,,,,,budget,99,105,sing,new,null,4994.946942700073,None,4994.946942700073,None,3,2.587763600051403,4994.946942700073,None,2.587763600051403,4997.551068300381,None,4998.055544100702,None,4998.055544100702,None,n,0.39928590040653944,4998.055544100702,None,0.39928590040653944,,,99Sing,001,2022_Nov_28_1024,ProdSingRedoBetween,2021.2.3,59.82431980442259,
,,,,105,0,105,0,,,,,,,,,,,,,,,,,,,,,,5006.975584200583,None,,,,,,,,,,,,,,,,,candidate,122,106,sing,new,null,4998.990345099941,None,4998.990345099941,None,3,6.768202300183475,4998.990345099941,None,6.768202300183475,5005.7741996003315,None,5006.274950300343,None,5006.274950300343,None,n,0.675764599815011,5006.274950300343,None,0.675764599815011,,,99Sing,001,2022_Nov_28_1024,ProdSingRedoBetween,2021.2.3,59.82431980442259,
,,,,106,0,106,0,,,,,,,,,,,,,,,,,,,,,,5010.178768500686,None,,,,,,,,,,,,,,,,,trend,23,107,sing,old,yellow,5007.476103000343,None,5007.476103000343,None,5,1.9065519999712706,5007.476103000343,None,1.9065519999712706,5009.411947200075,None,5009.913634000346,None,5009.913634000346,None,f,0.23707679938524961,5009.913634000346,None,0.23707679938524961,,,99Sing,001,2022_Nov_28_1024,ProdSingRedoBetween,2021.2.3,59.82431980442259,
,,,,107,0,107,0,,,,,,,,,,,,,,,,,,,,,,5013.481991699897,None,,,,,,,,,,,,,,,,,platform,24,108,sing,old,yellow,5010.699535000138,None,5010.699535000138,None,3,1.883187299594283,5010.699535000138,None,1.883187299594283,5012.60569010023,None,5013.1162669006735,None,5013.1162669006735,None,n,0.34640560019761324,5013.1162669006735,None,0.34640560019761324,,,99Sing,001,2022_Nov_28_1024,ProdSingRedoBetween,2021.2.3,59.82431980442259,
,,,,108,0,108,0,,,,,,,,,,,,,,,,,,,,,,5019.206518500112,None,,,,,,,,,,,,,,,,,period,102,109,sing,new,null,5013.992271600291,None,5013.992271600291,None,3,4.29436460044235,5013.992271600291,None,4.29436460044235,5018.304433899932,None,5018.8038830999285,None,5018.8038830999285,None,n,0.378833900205791,5018.8038830999285,None,0.378833900205791,,,99Sing,001,2022_Nov_28_1024,ProdSingRedoBetween,2021.2.3,59.82431980442259,
,,,,109,0,109,0,,,,,,,,,,,,,,,,,,,,,,5022.5909380000085,None,,,,,,,,,,,,,,,,,union,173,110,sing,new,null,5019.725057099946,None,5019.725057099946,None,2,1.7617170000448823,5019.725057099946,None,1.7617170000448823,5021.507457500324,None,5022.012087600306,None,5022.012087600306,None,n,0.5545854000374675,5022.012087600306,None,0.5545854000374675,,,99Sing,001,2022_Nov_28_1024,ProdSingRedoBetween,2021.2.3,59.82431980442259,
,,,,110,0,110,0,,,,,,,,,,,,,,,,,,,,,,5025.710821799934,None,,,,,,,,,,,,,,,,,vision,114,111,sing,new,null,5023.109633600339,None,5023.109633600339,None,2,1.7129400996491313,5023.109633600339,None,1.7129400996491313,5024.843262299895,None,5025.349586999975,None,5025.349586999975,None,n,0.3370439000427723,5025.349586999975,None,0.3370439000427723,,,99Sing,001,2022_Nov_28_1024,ProdSingRedoBetween,2021.2.3,59.82431980442259,
,,,,111,0,111,0,,,,,,,,,,,,,,,,,,,,,,5029.047454500571,None,,,,,,,,,,,,,,,,,weather,64,112,sing,old,red,5026.215956800617,None,5026.215956800617,None,2,1.6547079998999834,5026.215956800617,None,1.6547079998999834,5027.897546200082,None,5028.402508799918,None,5028.402508799918,None,n,0.6281182998791337,5028.402508799918,None,0.6281182998791337,,,99Sing,001,2022_Nov_28_1024,ProdSingRedoBetween,2021.2.3,59.82431980442259,
,,,,112,0,112,0,,,,,,,,,,,,,,,,,,,,,,5032.667838700116,None,,,,,,,,,,,,,,,,,equipment,98,113,sing,new,null,5029.560087900609,None,5029.560087900609,None,4,2.3506446005776525,5029.560087900609,None,2.3506446005776525,5031.940023700707,None,5032.45186949987,None,5032.45186949987,None,f,0.18685259949415922,5032.45186949987,None,0.18685259949415922,,,99Sing,001,2022_Nov_28_1024,ProdSingRedoBetween,2021.2.3,59.82431980442259,
,,,,113,0,113,0,,,,,,,,,,,,,,,,,,,,,,5035.654072300531,None,,,,,,,,,,,,,,,,,guard,18,114,sing,old,yellow,5033.1802995000035,None,5033.1802995000035,None,2,1.5706714000552893,5033.1802995000035,None,1.5706714000552893,5034.776759000495,None,5035.293001100421,None,5035.293001100421,None,n,0.34561620000749826,5035.293001100421,None,0.34561620000749826,,,99Sing,001,2022_Nov_28_1024,ProdSingRedoBetween,2021.2.3,59.82431980442259,
,,,,114,0,114,0,,,,,,,,,,,,,,,,,,,,,,5038.748385600746,None,,,,,,,,,,,,,,,,,session,60,115,sing,old,red,5036.157540000044,None,5036.157540000044,None,2,1.7051608003675938,5036.157540000044,None,1.7051608003675938,5037.896601300687,None,5038.406918699853,None,5038.406918699853,None,n,0.3039773004129529,5038.406918699853,None,0.3039773004129529,,,99Sing,001,2022_Nov_28_1024,ProdSingRedoBetween,2021.2.3,59.82431980442259,
,,,,115,0,115,0,,,,,,,,,,,,,,,,,,,,,,5042.6611216003075,None,,,,,,,,,,,,,,,,,suggestion,148,116,sing,new,null,5039.262466800399,None,5039.262466800399,None,2,2.0401373002678156,5039.262466800399,None,2.0401373002678156,5041.327517000027,None,5041.832834800705,None,5041.832834800705,None,n,0.8058265000581741,5041.832834800705,None,0.8058265000581741,,,99Sing,001,2022_Nov_28_1024,ProdSingRedoBetween,2021.2.3,59.82431980442259,
,,,,116,0,116,0,,,,,,,,,,,,,,,,,,,,,,5046.0030083004385,None,,,,,,,,,,,,,,,,,column,128,117,sing,new,null,5043.168738000095,None,5043.168738000095,None,1,1.9661286994814873,5043.168738000095,None,1.9661286994814873,5045.169056300074,None,5045.684202699922,None,5045.684202699922,None,n,0.29084020014852285,5045.684202699922,None,0.29084020014852285,,,99Sing,001,2022_Nov_28_1024,ProdSingRedoBetween,2021.2.3,59.82431980442259,
,,,,117,0,117,0,,,,,,,,,,,,,,,,,,,,,,5051.827900500037,None,,,,,,,,,,,,,,,,,foundation,41,118,sing,old,blue,5046.5264920005575,None,5046.5264920005575,None,4,4.696187300607562,5046.5264920005575,None,4.696187300607562,5051.259764100425,None,5051.777607100084,None,5051.777607100084,None,f,0.021213199943304062,5051.777607100084,None,0.021213199943304062,,,99Sing,001,2022_Nov_28_1024,ProdSingRedoBetween,2021.2.3,59.82431980442259,
,,,,118,0,118,0,,,,,,,,,,,,,,,,,,,,,,5056.959545300342,None,,,,,,,,,,,,,,,,,treatment,169,119,sing,new,null,5052.342542000115,None,5052.342542000115,None,5,3.2319697998464108,5052.342542000115,None,3.2319697998464108,5055.591601700522,None,5056.095086300746,None,5056.095086300746,None,f,0.8395578004419804,5056.095086300746,None,0.8395578004419804,,,99Sing,001,2022_Nov_28_1024,ProdSingRedoBetween,2021.2.3,59.82431980442259,
,,,,119,0,119,0,,,,,,,,,,,,,,,,,,,,,,5060.54901640024,None,,,,,,,,,,,,,,,,,captain,130,120,sing,new,null,5057.462994600646,None,5057.462994600646,None,1,2.2396160000935197,5057.462994600646,None,2.2396160000935197,5059.729280800559,None,5060.2327092001215,None,5060.2327092001215,None,n,0.2860073000192642,5060.2327092001215,None,0.2860073000192642,,,99Sing,001,2022_Nov_28_1024,ProdSingRedoBetween,2021.2.3,59.82431980442259,
,,,,120,0,120,0,,,,,,,,,,,,,,,,,,,,,,5068.703426100314,None,,,,,,,,,,,,,,,,,atmosphere,127,121,sing,new,null,5061.0638278005645,None,5061.0638278005645,None,1,5.878648299723864,5061.0638278005645,None,5.878648299723864,5066.969902900048,None,5067.474728399888,None,5067.474728399888,None,n,1.2037301994860172,5067.474728399888,None,1.2037301994860172,,,99Sing,001,2022_Nov_28_1024,ProdSingRedoBetween,2021.2.3,59.82431980442259,
,,,,121,0,121,0,,,,,,,,,,,,,,,,,,,,,,5072.057087300345,None,,,,,,,,,,,,,,,,,escape,172,122,sing,new,null,5069.20408650022,None,5069.20408650022,None,2,1.5384871000424027,5069.20408650022,None,1.5384871000424027,5070.783304899931,None,5071.289478099905,None,5071.289478099905,None,n,0.741046299226582,5071.289478099905,None,0.741046299226582,,,99Sing,001,2022_Nov_28_1024,ProdSingRedoBetween,2021.2.3,59.82431980442259,
,,,,122,0,122,0,,,,,,,,,,,,,,,,,,,,,,5083.118298499845,None,,,,,,,,,,,,,,,,,brilliant,7,123,sing,old,yellow,5072.566207100637,None,5072.566207100637,None,2,9.096433299593627,5072.566207100637,None,9.096433299593627,5081.692282500677,None,5082.2005692003295,None,5082.2005692003295,None,n,0.8939731996506453,5082.2005692003295,None,0.8939731996506453,,,99Sing,001,2022_Nov_28_1024,ProdSingRedoBetween,2021.2.3,59.82431980442259,
,,,,123,0,123,0,,,,,,,,,,,,,,,,,,,,,,5085.970662199892,None,,,,,,,,,,,,,,,,,length,54,124,sing,old,blue,5083.626628800295,None,5083.626628800295,None,6,1.7239864002913237,5083.626628800295,None,1.7239864002913237,5085.37918779999,None,5085.891024200246,None,5085.891024200246,None,r,0.059543500654399395,5085.891024200246,None,0.059543500654399395,,,99Sing,001,2022_Nov_28_1024,ProdSingRedoBetween,2021.2.3,59.82431980442259,
,,,,124,0,124,0,,,,,,,,,,,,,,,,,,,,,,5088.773650600575,None,,,,,,,,,,,,,,,,,congress,93,125,sing,new,null,5086.482067599893,None,5086.482067599893,None,1,1.4926738999783993,5086.482067599893,None,1.4926738999783993,5087.996942900121,None,5088.506882800721,None,5088.506882800721,None,n,0.24368369951844215,5088.506882800721,None,0.24368369951844215,,,99Sing,001,2022_Nov_28_1024,ProdSingRedoBetween,2021.2.3,59.82431980442259,
,,,,125,0,125,0,,,,,,,,,,,,,,,,,,,,,,5091.763310099952,None,,,,,,,,,,,,,,,,,passage,106,126,sing,new,null,5089.28461850062,None,5089.28461850062,None,1,1.641813199967146,5089.28461850062,None,1.641813199967146,5090.943830400705,None,5091.448383800685,None,5091.448383800685,None,n,0.2861657002940774,5091.448383800685,None,0.2861657002940774,,,99Sing,001,2022_Nov_28_1024,ProdSingRedoBetween,2021.2.3,59.82431980442259,
,,,,126,0,126,0,,,,,,,,,,,,,,,,,,,,,,5095.030056100339,None,,,,,,,,,,,,,,,,,concern,158,127,sing,new,null,5092.293687200174,None,5092.293687200174,None,1,1.7129660993814468,5092.293687200174,None,1.7129660993814468,5094.037746500224,None,5094.546357600018,None,5094.546357600018,None,n,0.45225990004837513,5094.546357600018,None,0.45225990004837513,,,99Sing,001,2022_Nov_28_1024,ProdSingRedoBetween,2021.2.3,59.82431980442259,
,,,,127,0,127,0,,,,,,,,,,,,,,,,,,,,,,5097.615884399973,None,,,,,,,,,,,,,,,,,institute,46,128,sing,old,blue,5095.5419335998595,None,5095.5419335998595,None,6,1.3686747001484036,5095.5419335998595,None,1.3686747001484036,5096.942216300406,None,5097.453449999914,None,5097.453449999914,None,r,0.14504550024867058,5097.453449999914,None,0.14504550024867058,,,99Sing,001,2022_Nov_28_1024,ProdSingRedoBetween,2021.2.3,59.82431980442259,
,,,,128,0,128,0,,,,,,,,,,,,,,,,,,,,,,5100.619896800257,None,,,,,,,,,,,,,,,,,committee,140,129,sing,new,null,5098.117946300656,None,5098.117946300656,None,3,1.6646883003413677,5098.117946300656,None,1.6646883003413677,5099.804792100564,None,5100.3221697006375,None,5100.3221697006375,None,n,0.2683899998664856,5100.3221697006375,None,0.2683899998664856,,,99Sing,001,2022_Nov_28_1024,ProdSingRedoBetween,2021.2.3,59.82431980442259,
,,,,129,0,129,0,,,,,,,,,,,,,,,,,,,,,,5104.756330200471,None,,,,,,,,,,,,,,,,,detective,27,130,sing,old,yellow,5101.129854700528,None,5101.129854700528,None,4,2.900708899833262,5101.129854700528,None,2.900708899833262,5104.056783299893,None,5104.556232100353,None,5104.556232100353,None,f,0.17027909960597754,5104.556232100353,None,0.17027909960597754,,,99Sing,001,2022_Nov_28_1024,ProdSingRedoBetween,2021.2.3,59.82431980442259,
,,,,130,0,130,0,,,,,,,,,,,,,,,,,,,,,,5113.614952200092,None,,,,,,,,,,,,,,,,,strength,132,131,sing,new,null,5105.2648980999365,None,5105.2648980999365,None,4,7.429815400391817,5105.2648980999365,None,7.429815400391817,5112.723033100367,None,5113.236862800084,None,5113.236862800084,None,f,0.3616228001192212,5113.236862800084,None,0.3616228001192212,,,99Sing,001,2022_Nov_28_1024,ProdSingRedoBetween,2021.2.3,59.82431980442259,
,,,,131,0,131,0,,,,,,,,,,,,,,,,,,,,,,5117.352308000438,None,,,,,,,,,,,,,,,,,meeting,176,132,sing,new,null,5114.118866700679,None,5114.118866700679,None,2,1.7596270004287362,5114.118866700679,None,1.7596270004287362,5115.900569600053,None,5116.405803600326,None,5116.405803600326,None,n,0.920685600489378,5116.405803600326,None,0.920685600489378,,,99Sing,001,2022_Nov_28_1024,ProdSingRedoBetween,2021.2.3,59.82431980442259,
,,,,132,0,132,0,,,,,,,,,,,,,,,,,,,,,,5126.511329300702,None,,,,,,,,,,,,,,,,,growth,152,133,sing,new,null,5117.859533100389,None,5117.859533100389,None,3,7.795115900225937,5117.859533100389,None,7.795115900225937,5125.680683200248,None,5126.1944848001,None,5126.1944848001,None,n,0.2999777998775244,5126.1944848001,None,0.2999777998775244,,,99Sing,001,2022_Nov_28_1024,ProdSingRedoBetween,2021.2.3,59.82431980442259,
,,,,133,0,133,0,,,,,,,,,,,,,,,,,,,,,,5129.430932099931,None,,,,,,,,,,,,,,,,,still,40,134,sing,old,blue,5127.014697200619,None,5127.014697200619,None,2,1.5517751006409526,5127.014697200619,None,1.5517751006409526,5128.596876900643,None,5129.103547500446,None,5129.103547500446,None,n,0.3029239000752568,5129.103547500446,None,0.3029239000752568,,,99Sing,001,2022_Nov_28_1024,ProdSingRedoBetween,2021.2.3,59.82431980442259,
,,,,134,0,134,0,,,,,,,,,,,,,,,,,,,,,,5132.450559800491,None,,,,,,,,,,,,,,,,,crowd,175,135,sing,new,null,5129.940877600573,None,5129.940877600573,None,1,1.5375656997784972,5129.940877600573,None,1.5375656997784972,5131.507552000694,None,5132.016693400219,None,5132.016693400219,None,n,0.4057037001475692,5132.016693400219,None,0.4057037001475692,,,99Sing,001,2022_Nov_28_1024,ProdSingRedoBetween,2021.2.3,59.82431980442259,
,,,,135,0,135,0,,,,,,,,,,,,,,,,,,,,,,5135.420016800053,None,,,,,,,,,,,,,,,,,production,170,136,sing,new,null,5132.952720699832,None,5132.952720699832,None,6,1.6297445995733142,5132.952720699832,None,1.6297445995733142,5134.603905400261,None,5135.107789900154,None,5135.107789900154,None,r,0.28283089958131313,5135.107789900154,None,0.28283089958131313,,,99Sing,001,2022_Nov_28_1024,ProdSingRedoBetween,2021.2.3,59.82431980442259,
,,,,136,0,136,0,,,,,,,,,,,,,,,,,,,,,,5138.640646700747,None,,,,,,,,,,,,,,,,,drink,151,137,sing,new,null,5135.935221100226,None,5135.935221100226,None,2,1.7592785004526377,5135.935221100226,None,1.7592785004526377,5137.730795700103,None,5138.249477299862,None,5138.249477299862,None,n,0.3729662001132965,5138.249477299862,None,0.3729662001132965,,,99Sing,001,2022_Nov_28_1024,ProdSingRedoBetween,2021.2.3,59.82431980442259,
,,,,137,0,137,0,,,,,,,,,,,,,,,,,,,,,,5148.249694400467,None,,,,,,,,,,,,,,,,,audience,30,138,sing,old,blue,5139.144409600645,None,5139.144409600645,None,2,7.606211599893868,5139.144409600645,None,7.606211599893868,5146.785867600702,None,5147.3083225004375,None,5147.3083225004375,None,n,0.9140395000576973,5147.3083225004375,None,0.9140395000576973,,,99Sing,001,2022_Nov_28_1024,ProdSingRedoBetween,2021.2.3,59.82431980442259,
,,,,138,0,138,0,,,,,,,,,,,,,,,,,,,,,,5151.035830300301,None,,,,,,,,,,,,,,,,,estate,136,139,sing,new,null,5148.757282299921,None,5148.757282299921,None,1,1.4411859000101686,5148.757282299921,None,1.4411859000101686,5150.2219400005415,None,5150.736738100648,None,5150.736738100648,None,n,0.27776109986007214,5150.736738100648,None,0.27776109986007214,,,99Sing,001,2022_Nov_28_1024,ProdSingRedoBetween,2021.2.3,59.82431980442259,
,,,,139,0,139,0,,,,,,,,,,,,,,,,,,,,,,5156.407608900219,None,,,,,,,,,,,,,,,,,heavy,38,140,sing,old,blue,5151.554890300147,None,5151.554890300147,None,6,2.9234784999862313,5151.554890300147,None,2.9234784999862313,5154.508945100009,None,5155.0260560000315,None,5155.0260560000315,None,r,1.3643450997769833,5155.0260560000315,None,1.3643450997769833,,,99Sing,001,2022_Nov_28_1024,ProdSingRedoBetween,2021.2.3,59.82431980442259,
,,,,140,0,140,0,,,,,,,,,,,,,,,,,,,,,,5162.747277900577,None,,,,,,,,,,,,,,,,,shape,147,141,sing,new,null,5156.921652399935,None,5156.921652399935,None,3,3.532765000127256,5156.921652399935,None,3.532765000127256,5160.481470600702,None,5161.000540500507,None,5161.000540500507,None,n,1.7180436998605728,5161.000540500507,None,1.7180436998605728,,,99Sing,001,2022_Nov_28_1024,ProdSingRedoBetween,2021.2.3,59.82431980442259,
,,,,141,0,141,0,,,,,,,,,,,,,,,,,,,,,,5166.135471600108,None,,,,,,,,,,,,,,,,,whole,126,142,sing,new,null,5163.261884500273,None,5163.261884500273,None,1,1.7445332994684577,5163.261884500273,None,1.7445332994684577,5165.038390100002,None,5165.555502300151,None,5165.555502300151,None,n,0.5629881005734205,5165.555502300151,None,0.5629881005734205,,,99Sing,001,2022_Nov_28_1024,ProdSingRedoBetween,2021.2.3,59.82431980442259,
,,,,142,0,142,0,,,,,,,,,,,,,,,,,,,,,,5169.422151400708,None,,,,,,,,,,,,,,,,,disease,107,143,sing,new,null,5166.6385810002685,None,5166.6385810002685,None,1,1.615836700424552,5166.6385810002685,None,1.615836700424552,5168.273177600466,None,5168.794364000671,None,5168.794364000671,None,n,0.6041215993463993,5168.794364000671,None,0.6041215993463993,,,99Sing,001,2022_Nov_28_1024,ProdSingRedoBetween,2021.2.3,59.82431980442259,
,,,,143,0,143,0,,,,,,,,,,,,,,,,,,,,,,5172.925121800043,None,,,,,,,,,,,,,,,,,goose,160,144,sing,new,null,5169.921466500498,None,5169.921466500498,None,1,2.0371707007288933,5169.921466500498,None,2.0371707007288933,5171.979962500744,None,5172.490617300384,None,5172.490617300384,None,n,0.4040107000619173,5172.490617300384,None,0.4040107000619173,,,99Sing,001,2022_Nov_28_1024,ProdSingRedoBetween,2021.2.3,59.82431980442259,
,,,,144,0,144,0,,,,,,,,,,,,,,,,,,,,,,5176.3833102006465,None,,,,,,,,,,,,,,,,,sweet,16,145,sing,old,yellow,5173.429719500244,None,5173.429719500244,None,1,1.8166605001315475,5173.429719500244,None,1.8166605001315475,5175.277657900006,None,5175.781632700004,None,5175.781632700004,None,n,0.5689276996999979,5175.781632700004,None,0.5689276996999979,,,99Sing,001,2022_Nov_28_1024,ProdSingRedoBetween,2021.2.3,59.82431980442259,
,,,,145,0,145,0,,,,,,,,,,,,,,,,,,,,,,5179.697506899945,None,,,,,,,,,,,,,,,,,frank,2,146,sing,old,yellow,5176.903115999885,None,5176.903115999885,None,1,1.783330800011754,5176.903115999885,None,1.783330800011754,5178.735447800718,None,5179.253989300691,None,5179.253989300691,None,n,0.4163194000720978,5179.253989300691,None,0.4163194000720978,,,99Sing,001,2022_Nov_28_1024,ProdSingRedoBetween,2021.2.3,59.82431980442259,
,,,,146,0,146,0,,,,,,,,,,,,,,,,,,,,,,5185.23665119987,None,,,,,,,,,,,,,,,,,research,21,147,sing,old,yellow,5180.203408299945,None,5180.203408299945,None,4,4.298950299620628,5180.203408299945,None,4.298950299620628,5184.521184700541,None,5185.036455800757,None,5185.036455800757,None,f,0.17794759944081306,5185.036455800757,None,0.17794759944081306,,,99Sing,001,2022_Nov_28_1024,ProdSingRedoBetween,2021.2.3,59.82431980442259,
,,,,147,0,147,0,,,,,,,,,,,,,,,,,,,,,,5188.573619999923,None,,,,,,,,,,,,,,,,,career,8,148,sing,old,yellow,5185.748732700013,None,5185.748732700013,None,1,1.889618399553001,5185.748732700013,None,1.889618399553001,5187.65549340006,None,5188.162209200673,None,5188.162209200673,None,n,0.38825830072164536,5188.162209200673,None,0.38825830072164536,,,99Sing,001,2022_Nov_28_1024,ProdSingRedoBetween,2021.2.3,59.82431980442259,
,,,,148,0,148,0,,,,,,,,,,,,,,,,,,,,,,5191.628203300759,None,,,,,,,,,,,,,,,,,rapid,118,149,sing,new,null,5189.077760700136,None,5189.077760700136,None,2,1.7526187999173999,5189.077760700136,None,1.7526187999173999,5190.859889400192,None,5191.366619300097,None,5191.366619300097,None,n,0.23977450001984835,5191.366619300097,None,0.23977450001984835,,,99Sing,001,2022_Nov_28_1024,ProdSingRedoBetween,2021.2.3,59.82431980442259,
,,,,149,0,149,0,,,,,,,,,,,,,,,,,,,,,,5198.016013400629,None,,,,,,,,,,,,,,,,,spoke,36,150,sing,old,blue,5192.146525800228,None,5192.146525800228,None,4,5.011808999814093,5192.146525800228,None,5.011808999814093,5197.192882900126,None,5197.704264700413,None,5197.704264700413,None,f,0.29406649991869926,5197.704264700413,None,0.29406649991869926,,,99Sing,001,2022_Nov_28_1024,ProdSingRedoBetween,2021.2.3,59.82431980442259,
,,,,150,0,150,0,,,,,,,,,,,,,,,,,,,,,,5200.854457700625,None,,,,,,,,,,,,,,,,,commercial,65,151,sing,old,red,5198.524349600077,None,5198.524349600077,None,6,1.5060545997694135,5198.524349600077,None,1.5060545997694135,5200.054493600503,None,5200.5782673005015,None,5200.5782673005015,None,r,0.24430790077894926,5200.5782673005015,None,0.24430790077894926,,,99Sing,001,2022_Nov_28_1024,ProdSingRedoBetween,2021.2.3,59.82431980442259,
,,,,151,0,151,0,,,,,,,,,,,,,,,,,,,,,,5204.855995200574,None,,,,,,,,,,,,,,,,,level,108,152,sing,new,null,5201.384864900261,None,5201.384864900261,None,3,2.3815414998680353,5201.384864900261,None,2.3815414998680353,5203.795886700042,None,5204.305779100396,None,5204.305779100396,None,n,0.5326464995741844,5204.305779100396,None,0.5326464995741844,,,99Sing,001,2022_Nov_28_1024,ProdSingRedoBetween,2021.2.3,59.82431980442259,
,,,,152,0,152,0,,,,,,,,,,,,,,,,,,,,,,5208.426332800649,None,,,,,,,,,,,,,,,,,novel,144,153,sing,new,null,5205.365852899849,None,5205.365852899849,None,3,1.768529700115323,5205.365852899849,None,1.768529700115323,5207.164271499962,None,5207.675739100203,None,5207.675739100203,None,n,0.7305875001475215,5207.675739100203,None,0.7305875001475215,,,99Sing,001,2022_Nov_28_1024,ProdSingRedoBetween,2021.2.3,59.82431980442259,
,,,,153,0,153,0,,,,,,,,,,,,,,,,,,,,,,5213.765039100312,None,,,,,,,,,,,,,,,,,thing,26,154,sing,old,yellow,5208.935097100213,None,5208.935097100213,None,5,4.095235199667513,5208.935097100213,None,4.095235199667513,5213.051238800399,None,5213.570467100479,None,5213.570467100479,None,f,0.17188460007309914,5213.570467100479,None,0.17188460007309914,,,99Sing,001,2022_Nov_28_1024,ProdSingRedoBetween,2021.2.3,59.82431980442259,
,,,,154,0,154,0,,,,,,,,,,,,,,,,,,,,,,5218.137154300697,None,,,,,,,,,,,,,,,,,quarter,85,155,sing,old,red,5214.274021100253,None,5214.274021100253,None,3,2.172345199622214,5214.274021100253,None,2.172345199622214,5216.471567200497,None,5216.98503109999,None,5216.98503109999,None,n,1.1254131998866796,5216.98503109999,None,1.1254131998866796,,,99Sing,001,2022_Nov_28_1024,ProdSingRedoBetween,2021.2.3,59.82431980442259,
,,,,155,0,155,0,,,,,,,,,,,,,,,,,,,,,,5223.441381100565,None,,,,,,,,,,,,,,,,,discussion,1,156,sing,old,yellow,5218.652305500582,None,5218.652305500582,None,4,3.657970600761473,5218.652305500582,None,3.657970600761473,5222.343107100576,None,5222.862136900425,None,5222.862136900425,None,f,0.5602718992158771,5222.862136900425,None,0.5602718992158771,,,99Sing,001,2022_Nov_28_1024,ProdSingRedoBetween,2021.2.3,59.82431980442259,
,,,,156,0,156,0,,,,,,,,,,,,,,,,,,,,,,5235.736916700378,None,,,,,,,,,,,,,,,,,signal,63,157,sing,old,red,5223.944954900071,None,5223.944954900071,None,6,11.045330399647355,5223.944954900071,None,11.045330399647355,5235.020433400758,None,5235.525771699846,None,5235.525771699846,None,r,0.18453820049762726,5235.525771699846,None,0.18453820049762726,,,99Sing,001,2022_Nov_28_1024,ProdSingRedoBetween,2021.2.3,59.82431980442259,
,,,,157,0,157,0,,,,,,,,,,,,,,,,,,,,,,5239.440730900504,None,,,,,,,,,,,,,,,,,report,70,158,sing,old,red,5236.24034950044,None,5236.24034950044,None,2,1.5340513000264764,5236.24034950044,None,1.5340513000264764,5237.81019890029,None,5238.327326900326,None,5238.327326900326,None,n,1.0949371997267008,5238.327326900326,None,1.0949371997267008,,,99Sing,001,2022_Nov_28_1024,ProdSingRedoBetween,2021.2.3,59.82431980442259,
,,,,158,0,158,0,,,,,,,,,,,,,,,,,,,,,,5242.4133835006505,None,,,,,,,,,,,,,,,,,split,78,159,sing,old,red,5239.94690570049,None,5239.94690570049,None,2,1.5952846994623542,5239.94690570049,None,1.5952846994623542,5241.56094850041,None,5242.064328700304,None,5242.064328700304,None,n,0.31810030061751604,5242.064328700304,None,0.31810030061751604,,,99Sing,001,2022_Nov_28_1024,ProdSingRedoBetween,2021.2.3,59.82431980442259,
,,,,159,0,159,0,,,,,,,,,,,,,,,,,,,,,,5246.4142980007455,None,,,,,,,,,,,,,,,,,public,76,160,sing,old,red,5242.940124699846,None,5242.940124699846,None,2,2.650136699900031,5242.940124699846,None,2.650136699900031,5245.614663200453,None,5246.118140400387,None,5246.118140400387,None,n,0.2800843995064497,5246.118140400387,None,0.2800843995064497,,,99Sing,001,2022_Nov_28_1024,ProdSingRedoBetween,2021.2.3,59.82431980442259,
,,,,160,0,160,0,,,,,,,,,,,,,,,,,,,,,,5249.537658500485,None,,,,,,,,,,,,,,,,,music,165,161,sing,new,null,5246.923851599917,None,5246.923851599917,None,1,1.5464618997648358,5246.923851599917,None,1.5464618997648358,5248.4997690003365,None,5249.00076700002,None,5249.00076700002,None,n,0.5094681000337005,5249.00076700002,None,0.5094681000337005,,,99Sing,001,2022_Nov_28_1024,ProdSingRedoBetween,2021.2.3,59.82431980442259,
,,,,161,0,161,0,,,,,,,,,,,,,,,,,,,,,,5252.820638700388,None,,,,,,,,,,,,,,,,,strain,88,162,sing,old,red,5250.065806200728,None,5250.065806200728,None,1,1.564538000151515,5250.065806200728,None,1.564538000151515,5251.657707800157,None,5252.174060900696,None,5252.174060900696,None,n,0.6242193998768926,5252.174060900696,None,0.6242193998768926,,,99Sing,001,2022_Nov_28_1024,ProdSingRedoBetween,2021.2.3,59.82431980442259,
,,,,162,0,162,0,,,,,,,,,,,,,,,,,,,,,,5256.808025300503,None,,,,,,,,,,,,,,,,,cross,146,163,sing,new,null,5253.330549300648,None,5253.330549300648,None,1,2.6197044998407364,5253.330549300648,None,2.6197044998407364,5255.975421000272,None,5256.479239500128,None,5256.479239500128,None,n,0.30290389992296696,5256.479239500128,None,0.30290389992296696,,,99Sing,001,2022_Nov_28_1024,ProdSingRedoBetween,2021.2.3,59.82431980442259,
,,,,163,0,163,0,,,,,,,,,,,,,,,,,,,,,,5259.944386800751,None,,,,,,,,,,,,,,,,,article,171,164,sing,new,null,5257.318791800179,None,5257.318791800179,None,1,1.8313678000122309,5257.318791800179,None,1.8313678000122309,5259.177022300661,None,5259.677594900131,None,5259.677594900131,None,n,0.24858529958873987,5259.677594900131,None,0.24858529958873987,,,99Sing,001,2022_Nov_28_1024,ProdSingRedoBetween,2021.2.3,59.82431980442259,
,,,,164,0,164,0,,,,,,,,,,,,,,,,,,,,,,5263.5980364000425,None,,,,,,,,,,,,,,,,,running,177,165,sing,new,null,5260.460696100257,None,5260.460696100257,None,1,2.433510899543762,5260.460696100257,None,2.433510899543762,5262.916758600622,None,5263.433224800043,None,5263.433224800043,None,n,0.14099839981645346,5263.433224800043,None,0.14099839981645346,,,99Sing,001,2022_Nov_28_1024,ProdSingRedoBetween,2021.2.3,59.82431980442259,
,,,,165,0,165,0,,,,,,,,,,,,,,,,,,,,,,5266.635249200277,None,,,,,,,,,,,,,,,,,bright,156,166,sing,new,null,5264.100232800469,None,5264.100232800469,None,1,1.6979851992800832,5264.100232800469,None,1.6979851992800832,5265.817937600426,None,5266.321612100117,None,5266.321612100117,None,n,0.2846240997314453,5266.321612100117,None,0.2846240997314453,,,99Sing,001,2022_Nov_28_1024,ProdSingRedoBetween,2021.2.3,59.82431980442259,
,,,,166,0,166,0,,,,,,,,,,,,,,,,,,,,,,5269.737544500269,None,,,,,,,,,,,,,,,,,right,123,167,sing,new,null,5267.142349500209,None,5267.142349500209,None,2,1.7598679000511765,5267.142349500209,None,1.7598679000511765,5268.920954000205,None,5269.423294899985,None,5269.423294899985,None,n,0.28693610057234764,5269.423294899985,None,0.28693610057234764,,,99Sing,001,2022_Nov_28_1024,ProdSingRedoBetween,2021.2.3,59.82431980442259,
,,,,167,0,167,0,,,,,,,,,,,,,,,,,,,,,,5272.657051700167,None,,,,,,,,,,,,,,,,,graduate,67,168,sing,old,red,5270.240602600388,None,5270.240602600388,None,6,1.7096192007884383,5270.240602600388,None,1.7096192007884383,5271.9740647003055,None,5272.478746499866,None,5272.478746499866,None,r,0.15139380004256964,5272.478746499866,None,0.15139380004256964,,,99Sing,001,2022_Nov_28_1024,ProdSingRedoBetween,2021.2.3,59.82431980442259,
,,,,168,0,168,0,,,,,,,,,,,,,,,,,,,,,,5276.761217400432,None,,,,,,,,,,,,,,,,,executive,119,169,sing,new,null,5273.160723499954,None,5273.160723499954,None,2,2.573688399977982,5273.160723499954,None,2.573688399977982,5275.773646499962,None,5276.277282200754,None,5276.277282200754,None,n,0.45690450072288513,5276.277282200754,None,0.45690450072288513,,,99Sing,001,2022_Nov_28_1024,ProdSingRedoBetween,2021.2.3,59.82431980442259,
,,,,169,0,169,0,,,,,,,,,,,,,,,,,,,,,,5281.20037129987,None,,,,,,,,,,,,,,,,,quantity,53,170,sing,old,blue,5277.273095199838,None,5277.273095199838,None,6,2.5011158995330334,5277.273095199838,None,2.5011158995330334,5279.799111300148,None,5280.304512800649,None,5280.304512800649,None,r,0.869853600859642,5280.304512800649,None,0.869853600859642,,,99Sing,001,2022_Nov_28_1024,ProdSingRedoBetween,2021.2.3,59.82431980442259,
,,,,170,0,170,0,,,,,,,,,,,,,,,,,,,,,,5284.635773300193,None,,,,,,,,,,,,,,,,,voice,66,171,sing,old,red,5281.713001700118,None,5281.713001700118,None,4,2.0451866006478667,5281.713001700118,None,2.0451866006478667,5283.785590200685,None,5284.285305400379,None,5284.285305400379,None,f,0.32087699975818396,5284.285305400379,None,0.32087699975818396,,,99Sing,001,2022_Nov_28_1024,ProdSingRedoBetween,2021.2.3,59.82431980442259,
,,,,171,0,171,0,,,,,,,,,,,,,,,,,,,,,,5288.67304890044,None,,,,,,,,,,,,,,,,,payment,57,172,sing,old,blue,5285.14801960066,None,5285.14801960066,None,5,2.4182013999670744,5285.14801960066,None,2.4182013999670744,5287.595874700695,None,5288.108879700303,None,5288.108879700303,None,f,0.5373355997726321,5288.108879700303,None,0.5373355997726321,,,99Sing,001,2022_Nov_28_1024,ProdSingRedoBetween,2021.2.3,59.82431980442259,
,,,,172,0,172,0,,,,,,,,,,,,,,,,,,,,,,5291.359087900259,None,,,,,,,,,,,,,,,,,thick,111,173,sing,new,null,5289.184907800518,None,5289.184907800518,None,1,1.4613169999793172,5289.184907800518,None,1.4613169999793172,5290.676250100136,None,5291.1815073005855,None,5291.1815073005855,None,n,0.1606157999485731,5291.1815073005855,None,0.1606157999485731,,,99Sing,001,2022_Nov_28_1024,ProdSingRedoBetween,2021.2.3,59.82431980442259,
,,,,173,0,173,0,,,,,,,,,,,,,,,,,,,,,,5296.163830299862,None,,,,,,,,,,,,,,,,,shear,4,174,sing,old,yellow,5291.872513200156,None,5291.872513200156,None,6,3.413595600053668,5291.872513200156,None,3.413595600053668,5295.315116200596,None,5295.832476099953,None,5295.832476099953,None,r,0.3097241995856166,5295.832476099953,None,0.3097241995856166,,,99Sing,001,2022_Nov_28_1024,ProdSingRedoBetween,2021.2.3,59.82431980442259,
,,,,174,0,174,0,,,,,,,,,,,,,,,,,,,,,,5299.116919000633,None,,,,,,,,,,,,,,,,,bucket,86,175,sing,old,red,5296.674644400366,None,5296.674644400366,None,1,1.5715247001498938,5296.674644400366,None,1.5715247001498938,5298.267162400298,None,5298.766583899967,None,5298.766583899967,None,n,0.31964110024273396,5298.766583899967,None,0.31964110024273396,,,99Sing,001,2022_Nov_28_1024,ProdSingRedoBetween,2021.2.3,59.82431980442259,
,,,,175,0,175,0,,,,,,,,,,,,,,,,,,,,,,5313.4642495000735,None,,,,,,,,,,,,,,,,,motion,105,176,sing,new,null,5299.623373200186,None,5299.623373200186,None,3,11.630782599560916,5299.623373200186,None,11.630782599560916,5311.279056600295,None,5311.784880400635,None,5311.784880400635,None,n,1.6532994005829096,5311.784880400635,None,1.6532994005829096,,,99Sing,001,2022_Nov_28_1024,ProdSingRedoBetween,2021.2.3,59.82431980442259,
,,,,176,0,176,0,,,,,,,,,,,,,,,,,,,,,,5316.350683500059,None,,,,,,,,,,,,,,,,,opening,135,177,sing,new,null,5313.968341500498,None,5313.968341500498,None,2,1.509800599887967,5313.968341500498,None,1.509800599887967,5315.500966900028,None,5316.009758200496,None,5316.009758200496,None,n,0.31643390003591776,5316.009758200496,None,0.31643390003591776,,,99Sing,001,2022_Nov_28_1024,ProdSingRedoBetween,2021.2.3,59.82431980442259,
,,,,177,0,177,0,,,,,,,,,,,,,,,,,,,,,,5319.120074300095,None,,,,,,,,,,,,,,,,,silence,167,178,sing,new,null,5316.856372999959,None,5316.856372999959,None,2,1.5498592993244529,5316.856372999959,None,1.5498592993244529,5318.437175100669,None,5318.940524600446,None,5318.940524600446,None,n,0.16158699989318848,5318.940524600446,None,0.16158699989318848,,,99Sing,001,2022_Nov_28_1024,ProdSingRedoBetween,2021.2.3,59.82431980442259,
,,,,178,0,178,0,,,,,,,,,,,,,,,,,,,,,,5322.8405570006,None,,,,,,,,,,,,,,,,,degree,163,179,sing,new,null,5319.63237670064,None,5319.63237670064,None,5,2.1576507007703185,5319.63237670064,None,2.1576507007703185,5321.807120900601,None,5322.306715300307,None,5322.306715300307,None,f,0.515421699732542,5322.306715300307,None,0.515421699732542,,,99Sing,001,2022_Nov_28_1024,ProdSingRedoBetween,2021.2.3,59.82431980442259,
,,,,179,0,179,0,,,,,,,,,,,,,,,,,,,,,,5325.778275700286,None,,,,,,,,,,,,,,,,,worker,139,180,sing,new,null,5323.341131200083,None,5323.341131200083,None,2,1.5850166995078325,5323.341131200083,None,1.5850166995078325,5324.945066800341,None,5325.461504899897,None,5325.461504899897,None,n,0.2887036995962262,5325.461504899897,None,0.2887036995962262,,,99Sing,001,2022_Nov_28_1024,ProdSingRedoBetween,2021.2.3,59.82431980442259,
,,,,,,,,,,,,,,,,,,,,,,,,,,,,,,,,,,,,,,,,,,,,,,,,,,,,,,,,,,,,,,,,,,,,,,,,,5326.277989900671,None,,,,,,,
