StudyLoop.thisRepN,StudyLoop.thisTrialN,StudyLoop.thisN,StudyLoop.thisIndex,TestLoop.thisRepN,TestLoop.thisTrialN,TestLoop.thisN,TestLoop.thisIndex,textCondition.started,textCondition.stopped,keyCondition.keys,keyCondition.rt,keyCondition.started,keyCondition.stopped,Condition,textWelcome.started,textWelcome.stopped,keyWelcome.keys,keyWelcome.rt,keyWelcome.started,keyWelcome.stopped,textAloud.started,textAloud.stopped,textSilent.started,textSilent.stopped,textSing.started,textSing.stopped,conditional_text.started,conditional_text.stopped,textBlank500.started,textBlank500.stopped,study_word,study_num,study_order,study_type,word_color,textStudy.started,textStudy.stopped,keyStudy.keys,keyStudy.started,keyStudy.stopped,textTestInstructions.started,textTestInstructions.stopped,key_resp_3.keys,key_resp_3.rt,key_resp_3.started,key_resp_3.stopped,test_word,test_num,test_order,test_condition,old_new_test,test_word_original_color,textConf.started,textConf.stopped,textConfScale.started,textConfScale.stopped,keyConf.keys,keyConf.rt,keyConf.started,keyConf.stopped,confidence response time,textTestBlank.started,textTestBlank.stopped,textRKN.started,textRKN.stopped,textRKNScale.started,textRKNScale.stopped,keyRKN.keys,keyRKN.rt,keyRKN.started,keyRKN.stopped,rkn response time,textEnd.started,textEnd.stopped,participant,session,date,expName,psychopyVersion,frameRate
,,,,,,,,261.6534191,None,b,185.4345157,261.6534191,None,,,,,,,,,,,,,,,,,,,,,,,,,,,,,,,,,,,,,,,,,,,,,,,,,,,,,,,,,,,,,,Oct31Aloud1,68,2022_Oct_31_1534,ProdSingRedoBetween,2021.2.3,59.87357087
,,,,,,,,,,,,,,AloudTest,447.1580815,None,space,15.593494,447.1580815,None,,,,,,,,,,,,,,,,,,,,,,,,,,,,,,,,,,,,,,,,,,,,,,,,,,,,,,,Oct31Aloud1,68,2022_Oct_31_1534,ProdSingRedoBetween,2021.2.3,59.87357087
0,0,0,0,,,,,,,,,,,,,,,,,,447.1580815,None,447.1580815,None,447.1580815,None,447.1580815,None,465.286329,None,provision,25,1,aloud,yellow,463.2742775,None,None,463.2742775,None,,,,,,,,,,,,,,,,,,,,,,,,,,,,,,,,,,,Oct31Aloud1,68,2022_Oct_31_1534,ProdSingRedoBetween,2021.2.3,59.87357087
1,0,1,0,,,,,,,,,,,,,,,,,,,,,,,,,,467.78862,None,sunset,84,2,aloud,red,465.7881451,None,None,465.7881451,None,,,,,,,,,,,,,,,,,,,,,,,,,,,,,,,,,,,Oct31Aloud1,68,2022_Oct_31_1534,ProdSingRedoBetween,2021.2.3,59.87357087
2,0,2,0,,,,,,,,,,,,,,,,,,,,,,,,,,470.2913631,None,route,62,3,aloud,red,468.2896469,None,None,468.2896469,None,,,,,,,,,,,,,,,,,,,,,,,,,,,,,,,,,,,Oct31Aloud1,68,2022_Oct_31_1534,ProdSingRedoBetween,2021.2.3,59.87357087
3,0,3,0,,,,,,,,,,,,,,,,,,,,,,,,,,472.7937067,None,contract,40,4,aloud,blue,470.7917082,None,None,470.7917082,None,,,,,,,,,,,,,,,,,,,,,,,,,,,,,,,,,,,Oct31Aloud1,68,2022_Oct_31_1534,ProdSingRedoBetween,2021.2.3,59.87357087
4,0,4,0,,,,,,,,,,,,,,,,,,,,,,,,,,475.3129609,None,threat,69,5,aloud,red,473.2997151,None,None,473.2997151,None,,,,,,,,,,,,,,,,,,,,,,,,,,,,,,,,,,,Oct31Aloud1,68,2022_Oct_31_1534,ProdSingRedoBetween,2021.2.3,59.87357087
5,0,5,0,,,,,,,,,,,,,,,,,,,,,,,,,,477.8154358,None,executive,9,6,aloud,yellow,475.8134311,None,None,475.8134311,None,,,,,,,,,,,,,,,,,,,,,,,,,,,,,,,,,,,Oct31Aloud1,68,2022_Oct_31_1534,ProdSingRedoBetween,2021.2.3,59.87357087
6,0,6,0,,,,,,,,,,,,,,,,,,,,,,,,,,480.334549,None,produce,89,7,aloud,red,478.3189676,None,None,478.3189676,None,,,,,,,,,,,,,,,,,,,,,,,,,,,,,,,,,,,Oct31Aloud1,68,2022_Oct_31_1534,ProdSingRedoBetween,2021.2.3,59.87357087
7,0,7,0,,,,,,,,,,,,,,,,,,,,,,,,,,482.836761,None,escape,50,8,aloud,blue,480.8363665,None,None,480.8363665,None,,,,,,,,,,,,,,,,,,,,,,,,,,,,,,,,,,,Oct31Aloud1,68,2022_Oct_31_1534,ProdSingRedoBetween,2021.2.3,59.87357087
8,0,8,0,,,,,,,,,,,,,,,,,,,,,,,,,,485.3396027,None,stand,76,9,aloud,red,483.3376714,None,None,483.3376714,None,,,,,,,,,,,,,,,,,,,,,,,,,,,,,,,,,,,Oct31Aloud1,68,2022_Oct_31_1534,ProdSingRedoBetween,2021.2.3,59.87357087
9,0,9,0,,,,,,,,,,,,,,,,,,,,,,,,,,487.8418413,None,cousin,3,10,aloud,yellow,485.8421199,None,None,485.8421199,None,,,,,,,,,,,,,,,,,,,,,,,,,,,,,,,,,,,Oct31Aloud1,68,2022_Oct_31_1534,ProdSingRedoBetween,2021.2.3,59.87357087
10,0,10,0,,,,,,,,,,,,,,,,,,,,,,,,,,490.3442885,None,damage,70,11,aloud,red,488.3423169,None,None,488.3423169,None,,,,,,,,,,,,,,,,,,,,,,,,,,,,,,,,,,,Oct31Aloud1,68,2022_Oct_31_1534,ProdSingRedoBetween,2021.2.3,59.87357087
11,0,11,0,,,,,,,,,,,,,,,,,,,,,,,,,,492.8470406,None,sound,64,12,aloud,red,490.8469399,None,None,490.8469399,None,,,,,,,,,,,,,,,,,,,,,,,,,,,,,,,,,,,Oct31Aloud1,68,2022_Oct_31_1534,ProdSingRedoBetween,2021.2.3,59.87357087
12,0,12,0,,,,,,,,,,,,,,,,,,,,,,,,,,495.3662776,None,listen,4,13,aloud,yellow,493.3521139,None,None,493.3521139,None,,,,,,,,,,,,,,,,,,,,,,,,,,,,,,,,,,,Oct31Aloud1,68,2022_Oct_31_1534,ProdSingRedoBetween,2021.2.3,59.87357087
13,0,13,0,,,,,,,,,,,,,,,,,,,,,,,,,,497.8685372,None,audience,77,14,aloud,red,495.8667555,None,None,495.8667555,None,,,,,,,,,,,,,,,,,,,,,,,,,,,,,,,,,,,Oct31Aloud1,68,2022_Oct_31_1534,ProdSingRedoBetween,2021.2.3,59.87357087
14,0,14,0,,,,,,,,,,,,,,,,,,,,,,,,,,500.3710417,None,theme,45,15,aloud,blue,498.3691682,None,None,498.3691682,None,,,,,,,,,,,,,,,,,,,,,,,,,,,,,,,,,,,Oct31Aloud1,68,2022_Oct_31_1534,ProdSingRedoBetween,2021.2.3,59.87357087
15,0,15,0,,,,,,,,,,,,,,,,,,,,,,,,,,502.8736427,None,service,57,16,aloud,blue,500.8717777,None,None,500.8717777,None,,,,,,,,,,,,,,,,,,,,,,,,,,,,,,,,,,,Oct31Aloud1,68,2022_Oct_31_1534,ProdSingRedoBetween,2021.2.3,59.87357087
16,0,16,0,,,,,,,,,,,,,,,,,,,,,,,,,,505.3761785,None,childhood,65,17,aloud,red,503.3740371,None,None,503.3740371,None,,,,,,,,,,,,,,,,,,,,,,,,,,,,,,,,,,,Oct31Aloud1,68,2022_Oct_31_1534,ProdSingRedoBetween,2021.2.3,59.87357087
17,0,17,0,,,,,,,,,,,,,,,,,,,,,,,,,,507.8951247,None,bicycle,34,18,aloud,blue,505.882757,None,None,505.882757,None,,,,,,,,,,,,,,,,,,,,,,,,,,,,,,,,,,,Oct31Aloud1,68,2022_Oct_31_1534,ProdSingRedoBetween,2021.2.3,59.87357087
18,0,18,0,,,,,,,,,,,,,,,,,,,,,,,,,,510.3978143,None,travel,41,19,aloud,blue,508.3958646,None,None,508.3958646,None,,,,,,,,,,,,,,,,,,,,,,,,,,,,,,,,,,,Oct31Aloud1,68,2022_Oct_31_1534,ProdSingRedoBetween,2021.2.3,59.87357087
19,0,19,0,,,,,,,,,,,,,,,,,,,,,,,,,,512.9170802,None,pressure,82,20,aloud,red,510.9021707,None,None,510.9021707,None,,,,,,,,,,,,,,,,,,,,,,,,,,,,,,,,,,,Oct31Aloud1,68,2022_Oct_31_1534,ProdSingRedoBetween,2021.2.3,59.87357087
20,0,20,0,,,,,,,,,,,,,,,,,,,,,,,,,,515.4194917,None,leader,0,21,aloud,yellow,513.4174701,None,None,513.4174701,None,,,,,,,,,,,,,,,,,,,,,,,,,,,,,,,,,,,Oct31Aloud1,68,2022_Oct_31_1534,ProdSingRedoBetween,2021.2.3,59.87357087
21,0,21,0,,,,,,,,,,,,,,,,,,,,,,,,,,517.9219462,None,colonel,42,22,aloud,blue,515.9201205,None,None,515.9201205,None,,,,,,,,,,,,,,,,,,,,,,,,,,,,,,,,,,,Oct31Aloud1,68,2022_Oct_31_1534,ProdSingRedoBetween,2021.2.3,59.87357087
22,0,22,0,,,,,,,,,,,,,,,,,,,,,,,,,,520.4246014,None,individual,88,23,aloud,red,518.4252295,None,None,518.4252295,None,,,,,,,,,,,,,,,,,,,,,,,,,,,,,,,,,,,Oct31Aloud1,68,2022_Oct_31_1534,ProdSingRedoBetween,2021.2.3,59.87357087
23,0,23,0,,,,,,,,,,,,,,,,,,,,,,,,,,522.9267463,None,brilliant,11,24,aloud,yellow,520.9247584,None,None,520.9247584,None,,,,,,,,,,,,,,,,,,,,,,,,,,,,,,,,,,,Oct31Aloud1,68,2022_Oct_31_1534,ProdSingRedoBetween,2021.2.3,59.87357087
24,0,24,0,,,,,,,,,,,,,,,,,,,,,,,,,,525.4296181,None,military,63,25,aloud,red,523.4273922,None,None,523.4273922,None,,,,,,,,,,,,,,,,,,,,,,,,,,,,,,,,,,,Oct31Aloud1,68,2022_Oct_31_1534,ProdSingRedoBetween,2021.2.3,59.87357087
25,0,25,0,,,,,,,,,,,,,,,,,,,,,,,,,,527.9320778,None,express,73,26,aloud,red,525.9307654,None,None,525.9307654,None,,,,,,,,,,,,,,,,,,,,,,,,,,,,,,,,,,,Oct31Aloud1,68,2022_Oct_31_1534,ProdSingRedoBetween,2021.2.3,59.87357087
26,0,26,0,,,,,,,,,,,,,,,,,,,,,,,,,,530.4344993,None,attack,21,27,aloud,yellow,528.432499,None,None,528.432499,None,,,,,,,,,,,,,,,,,,,,,,,,,,,,,,,,,,,Oct31Aloud1,68,2022_Oct_31_1534,ProdSingRedoBetween,2021.2.3,59.87357087
27,0,27,0,,,,,,,,,,,,,,,,,,,,,,,,,,532.9536879,None,chief,58,28,aloud,blue,530.9396343,None,None,530.9396343,None,,,,,,,,,,,,,,,,,,,,,,,,,,,,,,,,,,,Oct31Aloud1,68,2022_Oct_31_1534,ProdSingRedoBetween,2021.2.3,59.87357087
28,0,28,0,,,,,,,,,,,,,,,,,,,,,,,,,,535.4559596,None,broad,44,29,aloud,blue,533.4542234,None,None,533.4542234,None,,,,,,,,,,,,,,,,,,,,,,,,,,,,,,,,,,,Oct31Aloud1,68,2022_Oct_31_1534,ProdSingRedoBetween,2021.2.3,59.87357087
29,0,29,0,,,,,,,,,,,,,,,,,,,,,,,,,,537.9753837,None,edition,31,30,aloud,blue,535.9627463,None,None,535.9627463,None,,,,,,,,,,,,,,,,,,,,,,,,,,,,,,,,,,,Oct31Aloud1,68,2022_Oct_31_1534,ProdSingRedoBetween,2021.2.3,59.87357087
30,0,30,0,,,,,,,,,,,,,,,,,,,,,,,,,,540.4779306,None,orchestra,55,31,aloud,blue,538.4763734,None,None,538.4763734,None,,,,,,,,,,,,,,,,,,,,,,,,,,,,,,,,,,,Oct31Aloud1,68,2022_Oct_31_1534,ProdSingRedoBetween,2021.2.3,59.87357087
31,0,31,0,,,,,,,,,,,,,,,,,,,,,,,,,,542.9802999,None,reading,1,32,aloud,yellow,540.980464,None,None,540.980464,None,,,,,,,,,,,,,,,,,,,,,,,,,,,,,,,,,,,Oct31Aloud1,68,2022_Oct_31_1534,ProdSingRedoBetween,2021.2.3,59.87357087
32,0,32,0,,,,,,,,,,,,,,,,,,,,,,,,,,545.4828349,None,height,27,33,aloud,yellow,543.4807794,None,None,543.4807794,None,,,,,,,,,,,,,,,,,,,,,,,,,,,,,,,,,,,Oct31Aloud1,68,2022_Oct_31_1534,ProdSingRedoBetween,2021.2.3,59.87357087
33,0,33,0,,,,,,,,,,,,,,,,,,,,,,,,,,548.0020428,None,author,6,34,aloud,yellow,545.9870761,None,None,545.9870761,None,,,,,,,,,,,,,,,,,,,,,,,,,,,,,,,,,,,Oct31Aloud1,68,2022_Oct_31_1534,ProdSingRedoBetween,2021.2.3,59.87357087
34,0,34,0,,,,,,,,,,,,,,,,,,,,,,,,,,550.5209802,None,hunger,15,35,aloud,yellow,548.5077119,None,None,548.5077119,None,,,,,,,,,,,,,,,,,,,,,,,,,,,,,,,,,,,Oct31Aloud1,68,2022_Oct_31_1534,ProdSingRedoBetween,2021.2.3,59.87357087
35,0,35,0,,,,,,,,,,,,,,,,,,,,,,,,,,553.0237699,None,marriage,72,36,aloud,red,551.0228876,None,None,551.0228876,None,,,,,,,,,,,,,,,,,,,,,,,,,,,,,,,,,,,Oct31Aloud1,68,2022_Oct_31_1534,ProdSingRedoBetween,2021.2.3,59.87357087
36,0,36,0,,,,,,,,,,,,,,,,,,,,,,,,,,555.5426863,None,afternoon,68,37,aloud,red,553.5328047,None,None,553.5328047,None,,,,,,,,,,,,,,,,,,,,,,,,,,,,,,,,,,,Oct31Aloud1,68,2022_Oct_31_1534,ProdSingRedoBetween,2021.2.3,59.87357087
37,0,37,0,,,,,,,,,,,,,,,,,,,,,,,,,,558.0455605,None,write,29,38,aloud,blue,556.0434399,None,None,556.0434399,None,,,,,,,,,,,,,,,,,,,,,,,,,,,,,,,,,,,Oct31Aloud1,68,2022_Oct_31_1534,ProdSingRedoBetween,2021.2.3,59.87357087
38,0,38,0,,,,,,,,,,,,,,,,,,,,,,,,,,560.5478904,None,working,18,39,aloud,yellow,558.5456249,None,None,558.5456249,None,,,,,,,,,,,,,,,,,,,,,,,,,,,,,,,,,,,Oct31Aloud1,68,2022_Oct_31_1534,ProdSingRedoBetween,2021.2.3,59.87357087
39,0,39,0,,,,,,,,,,,,,,,,,,,,,,,,,,563.050228,None,bright,35,40,aloud,blue,561.0484088,None,None,561.0484088,None,,,,,,,,,,,,,,,,,,,,,,,,,,,,,,,,,,,Oct31Aloud1,68,2022_Oct_31_1534,ProdSingRedoBetween,2021.2.3,59.87357087
40,0,40,0,,,,,,,,,,,,,,,,,,,,,,,,,,565.5527903,None,reach,19,41,aloud,yellow,563.5506195,None,None,563.5506195,None,,,,,,,,,,,,,,,,,,,,,,,,,,,,,,,,,,,Oct31Aloud1,68,2022_Oct_31_1534,ProdSingRedoBetween,2021.2.3,59.87357087
41,0,41,0,,,,,,,,,,,,,,,,,,,,,,,,,,568.0554838,None,society,59,42,aloud,yellow,566.0531454,None,None,566.0531454,None,,,,,,,,,,,,,,,,,,,,,,,,,,,,,,,,,,,Oct31Aloud1,68,2022_Oct_31_1534,ProdSingRedoBetween,2021.2.3,59.87357087
42,0,42,0,,,,,,,,,,,,,,,,,,,,,,,,,,570.5578829,None,council,46,43,aloud,blue,568.5561441,None,None,568.5561441,None,,,,,,,,,,,,,,,,,,,,,,,,,,,,,,,,,,,Oct31Aloud1,68,2022_Oct_31_1534,ProdSingRedoBetween,2021.2.3,59.87357087
43,0,43,0,,,,,,,,,,,,,,,,,,,,,,,,,,573.060409,None,carry,30,44,aloud,blue,571.0601351,None,None,571.0601351,None,,,,,,,,,,,,,,,,,,,,,,,,,,,,,,,,,,,Oct31Aloud1,68,2022_Oct_31_1534,ProdSingRedoBetween,2021.2.3,59.87357087
44,0,44,0,,,,,,,,,,,,,,,,,,,,,,,,,,575.5629112,None,substance,81,45,aloud,red,573.561387,None,None,573.561387,None,,,,,,,,,,,,,,,,,,,,,,,,,,,,,,,,,,,Oct31Aloud1,68,2022_Oct_31_1534,ProdSingRedoBetween,2021.2.3,59.87357087
45,0,45,0,,,,,,,,,,,,,,,,,,,,,,,,,,578.0654387,None,instrument,83,46,aloud,red,576.063273,None,None,576.063273,None,,,,,,,,,,,,,,,,,,,,,,,,,,,,,,,,,,,Oct31Aloud1,68,2022_Oct_31_1534,ProdSingRedoBetween,2021.2.3,59.87357087
46,0,46,0,,,,,,,,,,,,,,,,,,,,,,,,,,580.5678151,None,length,74,47,aloud,red,578.5665407,None,None,578.5665407,None,,,,,,,,,,,,,,,,,,,,,,,,,,,,,,,,,,,Oct31Aloud1,68,2022_Oct_31_1534,ProdSingRedoBetween,2021.2.3,59.87357087
47,0,47,0,,,,,,,,,,,,,,,,,,,,,,,,,,583.086885,None,atmosphere,20,48,aloud,yellow,581.0741294,None,None,581.0741294,None,,,,,,,,,,,,,,,,,,,,,,,,,,,,,,,,,,,Oct31Aloud1,68,2022_Oct_31_1534,ProdSingRedoBetween,2021.2.3,59.87357087
48,0,48,0,,,,,,,,,,,,,,,,,,,,,,,,,,585.5892397,None,clean,60,49,aloud,red,583.5887044,None,None,583.5887044,None,,,,,,,,,,,,,,,,,,,,,,,,,,,,,,,,,,,Oct31Aloud1,68,2022_Oct_31_1534,ProdSingRedoBetween,2021.2.3,59.87357087
49,0,49,0,,,,,,,,,,,,,,,,,,,,,,,,,,588.1086323,None,throw,2,50,aloud,yellow,586.0943111,None,None,586.0943111,None,,,,,,,,,,,,,,,,,,,,,,,,,,,,,,,,,,,Oct31Aloud1,68,2022_Oct_31_1534,ProdSingRedoBetween,2021.2.3,59.87357087
50,0,50,0,,,,,,,,,,,,,,,,,,,,,,,,,,590.6111651,None,report,43,51,aloud,blue,588.6104333,None,None,588.6104333,None,,,,,,,,,,,,,,,,,,,,,,,,,,,,,,,,,,,Oct31Aloud1,68,2022_Oct_31_1534,ProdSingRedoBetween,2021.2.3,59.87357087
51,0,51,0,,,,,,,,,,,,,,,,,,,,,,,,,,593.1138816,None,universal,28,52,aloud,yellow,591.1121993,None,None,591.1121993,None,,,,,,,,,,,,,,,,,,,,,,,,,,,,,,,,,,,Oct31Aloud1,68,2022_Oct_31_1534,ProdSingRedoBetween,2021.2.3,59.87357087
52,0,52,0,,,,,,,,,,,,,,,,,,,,,,,,,,595.6329843,None,private,66,53,aloud,red,593.6193927,None,None,593.6193927,None,,,,,,,,,,,,,,,,,,,,,,,,,,,,,,,,,,,Oct31Aloud1,68,2022_Oct_31_1534,ProdSingRedoBetween,2021.2.3,59.87357087
53,0,53,0,,,,,,,,,,,,,,,,,,,,,,,,,,598.1357329,None,title,48,54,aloud,blue,596.1333619,None,None,596.1333619,None,,,,,,,,,,,,,,,,,,,,,,,,,,,,,,,,,,,Oct31Aloud1,68,2022_Oct_31_1534,ProdSingRedoBetween,2021.2.3,59.87357087
54,0,54,0,,,,,,,,,,,,,,,,,,,,,,,,,,600.6545402,None,finance,5,55,aloud,yellow,598.6402446,None,None,598.6402446,None,,,,,,,,,,,,,,,,,,,,,,,,,,,,,,,,,,,Oct31Aloud1,68,2022_Oct_31_1534,ProdSingRedoBetween,2021.2.3,59.87357087
55,0,55,0,,,,,,,,,,,,,,,,,,,,,,,,,,603.1573619,None,month,71,56,aloud,red,601.1548218,None,None,601.1548218,None,,,,,,,,,,,,,,,,,,,,,,,,,,,,,,,,,,,Oct31Aloud1,68,2022_Oct_31_1534,ProdSingRedoBetween,2021.2.3,59.87357087
56,0,56,0,,,,,,,,,,,,,,,,,,,,,,,,,,605.6596239,None,captain,87,57,aloud,red,603.6575975,None,None,603.6575975,None,,,,,,,,,,,,,,,,,,,,,,,,,,,,,,,,,,,Oct31Aloud1,68,2022_Oct_31_1534,ProdSingRedoBetween,2021.2.3,59.87357087
57,0,57,0,,,,,,,,,,,,,,,,,,,,,,,,,,608.1619091,None,measure,12,58,aloud,yellow,606.1601971,None,None,606.1601971,None,,,,,,,,,,,,,,,,,,,,,,,,,,,,,,,,,,,Oct31Aloud1,68,2022_Oct_31_1534,ProdSingRedoBetween,2021.2.3,59.87357087
58,0,58,0,,,,,,,,,,,,,,,,,,,,,,,,,,610.6813017,None,narrow,33,59,aloud,blue,608.6671608,None,None,608.6671608,None,,,,,,,,,,,,,,,,,,,,,,,,,,,,,,,,,,,Oct31Aloud1,68,2022_Oct_31_1534,ProdSingRedoBetween,2021.2.3,59.87357087
59,0,59,0,,,,,,,,,,,,,,,,,,,,,,,,,,613.1835298,None,distance,51,60,aloud,blue,611.1847198,None,None,611.1847198,None,,,,,,,,,,,,,,,,,,,,,,,,,,,,,,,,,,,Oct31Aloud1,68,2022_Oct_31_1534,ProdSingRedoBetween,2021.2.3,59.87357087
60,0,60,0,,,,,,,,,,,,,,,,,,,,,,,,,,615.7028801,None,turkey,38,61,aloud,blue,613.6919624,None,None,613.6919624,None,,,,,,,,,,,,,,,,,,,,,,,,,,,,,,,,,,,Oct31Aloud1,68,2022_Oct_31_1534,ProdSingRedoBetween,2021.2.3,59.87357087
61,0,61,0,,,,,,,,,,,,,,,,,,,,,,,,,,618.2052997,None,subject,8,62,aloud,yellow,616.2037549,None,None,616.2037549,None,,,,,,,,,,,,,,,,,,,,,,,,,,,,,,,,,,,Oct31Aloud1,68,2022_Oct_31_1534,ProdSingRedoBetween,2021.2.3,59.87357087
62,0,62,0,,,,,,,,,,,,,,,,,,,,,,,,,,620.7244692,None,school,14,63,aloud,yellow,618.7131062,None,None,618.7131062,None,,,,,,,,,,,,,,,,,,,,,,,,,,,,,,,,,,,Oct31Aloud1,68,2022_Oct_31_1534,ProdSingRedoBetween,2021.2.3,59.87357087
63,0,63,0,,,,,,,,,,,,,,,,,,,,,,,,,,623.2439177,None,household,52,64,aloud,blue,621.2315979,None,None,621.2315979,None,,,,,,,,,,,,,,,,,,,,,,,,,,,,,,,,,,,Oct31Aloud1,68,2022_Oct_31_1534,ProdSingRedoBetween,2021.2.3,59.87357087
64,0,64,0,,,,,,,,,,,,,,,,,,,,,,,,,,625.746282,None,speech,61,65,aloud,red,623.745523,None,None,623.745523,None,,,,,,,,,,,,,,,,,,,,,,,,,,,,,,,,,,,Oct31Aloud1,68,2022_Oct_31_1534,ProdSingRedoBetween,2021.2.3,59.87357087
65,0,65,0,,,,,,,,,,,,,,,,,,,,,,,,,,628.2486372,None,second,75,66,aloud,red,626.2488241,None,None,626.2488241,None,,,,,,,,,,,,,,,,,,,,,,,,,,,,,,,,,,,Oct31Aloud1,68,2022_Oct_31_1534,ProdSingRedoBetween,2021.2.3,59.87357087
66,0,66,0,,,,,,,,,,,,,,,,,,,,,,,,,,630.7677039,None,dance,39,67,aloud,blue,628.7524308,None,None,628.7524308,None,,,,,,,,,,,,,,,,,,,,,,,,,,,,,,,,,,,Oct31Aloud1,68,2022_Oct_31_1534,ProdSingRedoBetween,2021.2.3,59.87357087
67,0,67,0,,,,,,,,,,,,,,,,,,,,,,,,,,633.2703802,None,rough,79,68,aloud,red,631.2693935,None,None,631.2693935,None,,,,,,,,,,,,,,,,,,,,,,,,,,,,,,,,,,,Oct31Aloud1,68,2022_Oct_31_1534,ProdSingRedoBetween,2021.2.3,59.87357087
68,0,68,0,,,,,,,,,,,,,,,,,,,,,,,,,,635.7896232,None,recall,10,69,aloud,yellow,633.7802103,None,None,633.7802103,None,,,,,,,,,,,,,,,,,,,,,,,,,,,,,,,,,,,Oct31Aloud1,68,2022_Oct_31_1534,ProdSingRedoBetween,2021.2.3,59.87357087
69,0,69,0,,,,,,,,,,,,,,,,,,,,,,,,,,638.2922627,None,empty,80,70,aloud,red,636.2901111,None,None,636.2901111,None,,,,,,,,,,,,,,,,,,,,,,,,,,,,,,,,,,,Oct31Aloud1,68,2022_Oct_31_1534,ProdSingRedoBetween,2021.2.3,59.87357087
70,0,70,0,,,,,,,,,,,,,,,,,,,,,,,,,,640.7944257,None,trend,54,71,aloud,blue,638.7935288,None,None,638.7935288,None,,,,,,,,,,,,,,,,,,,,,,,,,,,,,,,,,,,Oct31Aloud1,68,2022_Oct_31_1534,ProdSingRedoBetween,2021.2.3,59.87357087
71,0,71,0,,,,,,,,,,,,,,,,,,,,,,,,,,643.3138988,None,committee,32,72,aloud,blue,641.3020501,None,None,641.3020501,None,,,,,,,,,,,,,,,,,,,,,,,,,,,,,,,,,,,Oct31Aloud1,68,2022_Oct_31_1534,ProdSingRedoBetween,2021.2.3,59.87357087
72,0,72,0,,,,,,,,,,,,,,,,,,,,,,,,,,645.8163263,None,victory,67,73,aloud,red,643.8141782,None,None,643.8141782,None,,,,,,,,,,,,,,,,,,,,,,,,,,,,,,,,,,,Oct31Aloud1,68,2022_Oct_31_1534,ProdSingRedoBetween,2021.2.3,59.87357087
73,0,73,0,,,,,,,,,,,,,,,,,,,,,,,,,,648.3187746,None,education,85,74,aloud,red,646.3170496,None,None,646.3170496,None,,,,,,,,,,,,,,,,,,,,,,,,,,,,,,,,,,,Oct31Aloud1,68,2022_Oct_31_1534,ProdSingRedoBetween,2021.2.3,59.87357087
74,0,74,0,,,,,,,,,,,,,,,,,,,,,,,,,,650.8211942,None,goose,26,75,aloud,yellow,648.822246,None,None,648.822246,None,,,,,,,,,,,,,,,,,,,,,,,,,,,,,,,,,,,Oct31Aloud1,68,2022_Oct_31_1534,ProdSingRedoBetween,2021.2.3,59.87357087
75,0,75,0,,,,,,,,,,,,,,,,,,,,,,,,,,653.3405189,None,present,78,76,aloud,red,651.3251263,None,None,651.3251263,None,,,,,,,,,,,,,,,,,,,,,,,,,,,,,,,,,,,Oct31Aloud1,68,2022_Oct_31_1534,ProdSingRedoBetween,2021.2.3,59.87357087
76,0,76,0,,,,,,,,,,,,,,,,,,,,,,,,,,655.8430702,None,equipment,17,77,aloud,yellow,653.840899,None,None,653.840899,None,,,,,,,,,,,,,,,,,,,,,,,,,,,,,,,,,,,Oct31Aloud1,68,2022_Oct_31_1534,ProdSingRedoBetween,2021.2.3,59.87357087
77,0,77,0,,,,,,,,,,,,,,,,,,,,,,,,,,658.361934,None,department,56,78,aloud,blue,656.3493373,None,None,656.3493373,None,,,,,,,,,,,,,,,,,,,,,,,,,,,,,,,,,,,Oct31Aloud1,68,2022_Oct_31_1534,ProdSingRedoBetween,2021.2.3,59.87357087
78,0,78,0,,,,,,,,,,,,,,,,,,,,,,,,,,660.881369,None,graduate,47,79,aloud,blue,658.8758436,None,None,658.8758436,None,,,,,,,,,,,,,,,,,,,,,,,,,,,,,,,,,,,Oct31Aloud1,68,2022_Oct_31_1534,ProdSingRedoBetween,2021.2.3,59.87357087
79,0,79,0,,,,,,,,,,,,,,,,,,,,,,,,,,663.3838461,None,order,36,80,aloud,blue,661.3817969,None,None,661.3817969,None,,,,,,,,,,,,,,,,,,,,,,,,,,,,,,,,,,,Oct31Aloud1,68,2022_Oct_31_1534,ProdSingRedoBetween,2021.2.3,59.87357087
80,0,80,0,,,,,,,,,,,,,,,,,,,,,,,,,,665.8863555,None,mechanical,13,81,aloud,yellow,663.8843961,None,None,663.8843961,None,,,,,,,,,,,,,,,,,,,,,,,,,,,,,,,,,,,Oct31Aloud1,68,2022_Oct_31_1534,ProdSingRedoBetween,2021.2.3,59.87357087
81,0,81,0,,,,,,,,,,,,,,,,,,,,,,,,,,668.3887579,None,trial,7,82,aloud,yellow,666.387431,None,None,666.387431,None,,,,,,,,,,,,,,,,,,,,,,,,,,,,,,,,,,,Oct31Aloud1,68,2022_Oct_31_1534,ProdSingRedoBetween,2021.2.3,59.87357087
82,0,82,0,,,,,,,,,,,,,,,,,,,,,,,,,,670.9080135,None,raise,49,83,aloud,blue,668.8931087,None,None,668.8931087,None,,,,,,,,,,,,,,,,,,,,,,,,,,,,,,,,,,,Oct31Aloud1,68,2022_Oct_31_1534,ProdSingRedoBetween,2021.2.3,59.87357087
83,0,83,0,,,,,,,,,,,,,,,,,,,,,,,,,,673.4105023,None,story,24,84,aloud,yellow,671.4114449,None,None,671.4114449,None,,,,,,,,,,,,,,,,,,,,,,,,,,,,,,,,,,,Oct31Aloud1,68,2022_Oct_31_1534,ProdSingRedoBetween,2021.2.3,59.87357087
84,0,84,0,,,,,,,,,,,,,,,,,,,,,,,,,,675.9128814,None,couch,22,85,aloud,yellow,673.9109595,None,None,673.9109595,None,,,,,,,,,,,,,,,,,,,,,,,,,,,,,,,,,,,Oct31Aloud1,68,2022_Oct_31_1534,ProdSingRedoBetween,2021.2.3,59.87357087
85,0,85,0,,,,,,,,,,,,,,,,,,,,,,,,,,678.4321187,None,election,37,86,aloud,blue,676.416481,None,None,676.416481,None,,,,,,,,,,,,,,,,,,,,,,,,,,,,,,,,,,,Oct31Aloud1,68,2022_Oct_31_1534,ProdSingRedoBetween,2021.2.3,59.87357087
86,0,86,0,,,,,,,,,,,,,,,,,,,,,,,,,,680.9513601,None,silence,23,87,aloud,yellow,678.9414898,None,None,678.9414898,None,,,,,,,,,,,,,,,,,,,,,,,,,,,,,,,,,,,Oct31Aloud1,68,2022_Oct_31_1534,ProdSingRedoBetween,2021.2.3,59.87357087
87,0,87,0,,,,,,,,,,,,,,,,,,,,,,,,,,683.4538037,None,piece,16,88,aloud,yellow,681.4518512,None,None,681.4518512,None,,,,,,,,,,,,,,,,,,,,,,,,,,,,,,,,,,,Oct31Aloud1,68,2022_Oct_31_1534,ProdSingRedoBetween,2021.2.3,59.87357087
88,0,88,0,,,,,,,,,,,,,,,,,,,,,,,,,,685.9560509,None,finish,86,89,aloud,red,683.9549194,None,None,683.9549194,None,,,,,,,,,,,,,,,,,,,,,,,,,,,,,,,,,,,Oct31Aloud1,68,2022_Oct_31_1534,ProdSingRedoBetween,2021.2.3,59.87357087
89,0,89,0,,,,,,,,,,,,,,,,,,,,,,,,,,688.4588378,None,production,53,90,aloud,blue,686.4565261,None,None,686.4565261,None,,,,,,,,,,,,,,,,,,,,,,,,,,,,,,,,,,,Oct31Aloud1,68,2022_Oct_31_1534,ProdSingRedoBetween,2021.2.3,59.87357087
,,,,,,,,,,,,,,,,,,,,,,,,,,,,,,,,,,,,,,,,,688.9595407,None,k,86.7039534,688.9595407,None,,,,,,,,,,,,,,,,,,,,,,,,,,,,,Oct31Aloud1,68,2022_Oct_31_1534,ProdSingRedoBetween,2021.2.3,59.87357087
,,,,0,0,0,0,,,,,,,,,,,,,,,,,,,,,,804.9434795,None,,,,,,,,,,,,,,,,,subject,8,1,aloud,old,yellow,776.197865,None,776.197865,None,5,25.3692031,776.197865,None,25.3692031,801.5903622,None,802.1056269,None,802.1056269,None,f,2.8055203,802.1056269,None,2.8055203,,,Oct31Aloud1,68,2022_Oct_31_1534,ProdSingRedoBetween,2021.2.3,59.87357087
,,,,1,0,1,0,,,,,,,,,,,,,,,,,,,,,,810.1301896,None,,,,,,,,,,,,,,,,,platform,152,2,aloud,new,null,805.4839703,None,805.4839703,None,2,2.6910252,805.4839703,None,2.6910252,808.2041714,None,808.7119108,None,808.7119108,None,n,1.3911201,808.7119108,None,1.3911201,,,Oct31Aloud1,68,2022_Oct_31_1534,ProdSingRedoBetween,2021.2.3,59.87357087
,,,,2,0,2,0,,,,,,,,,,,,,,,,,,,,,,815.885865,None,,,,,,,,,,,,,,,,,track,101,3,aloud,new,null,810.646345,None,810.646345,None,6,3.1766679,810.646345,None,3.1766679,813.8511854,None,814.3567465,None,814.3567465,None,r,1.4982757,814.3567465,None,1.4982757,,,Oct31Aloud1,68,2022_Oct_31_1534,ProdSingRedoBetween,2021.2.3,59.87357087
,,,,3,0,3,0,,,,,,,,,,,,,,,,,,,,,,821.0408109,None,,,,,,,,,,,,,,,,,ground,158,4,aloud,new,null,816.392541,None,816.392541,None,2,2.6144658,816.392541,None,2.6144658,819.024112,None,819.5398189,None,819.5398189,None,n,1.4751539,819.5398189,None,1.4751539,,,Oct31Aloud1,68,2022_Oct_31_1534,ProdSingRedoBetween,2021.2.3,59.87357087
,,,,4,0,4,0,,,,,,,,,,,,,,,,,,,,,,827.414917,None,,,,,,,,,,,,,,,,,partner,142,5,aloud,new,null,821.5467865,None,821.5467865,None,4,4.1082918,821.5467865,None,4.1082918,825.6798896,None,826.1848099,None,826.1848099,None,f,1.198329,826.1848099,None,1.198329,,,Oct31Aloud1,68,2022_Oct_31_1534,ProdSingRedoBetween,2021.2.3,59.87357087
,,,,5,0,5,0,,,,,,,,,,,,,,,,,,,,,,833.8216558,None,,,,,,,,,,,,,,,,,solution,137,6,aloud,new,null,827.9189841,None,827.9189841,None,1,4.160066,827.9189841,None,4.160066,832.1034449,None,832.6076518,None,832.6076518,None,n,1.1835023,832.6076518,None,1.1835023,,,Oct31Aloud1,68,2022_Oct_31_1534,ProdSingRedoBetween,2021.2.3,59.87357087
,,,,6,0,6,0,,,,,,,,,,,,,,,,,,,,,,838.3580887,None,,,,,,,,,,,,,,,,,foundation,126,7,aloud,new,null,834.3344899,None,834.3344899,None,1,2.456544,834.3344899,None,2.456544,836.8078882,None,837.3129484,None,837.3129484,None,n,1.0220991,837.3129484,None,1.0220991,,,Oct31Aloud1,68,2022_Oct_31_1534,ProdSingRedoBetween,2021.2.3,59.87357087
,,,,7,0,7,0,,,,,,,,,,,,,,,,,,,,,,843.6135142,None,,,,,,,,,,,,,,,,,budget,166,8,aloud,new,null,838.8613903,None,838.8613903,None,3,3.0096578,838.8613903,None,3.0096578,841.8949342,None,842.3958041,None,842.3958041,None,n,1.18719,842.3958041,None,1.18719,,,Oct31Aloud1,68,2022_Oct_31_1534,ProdSingRedoBetween,2021.2.3,59.87357087
,,,,8,0,8,0,,,,,,,,,,,,,,,,,,,,,,849.1356859,None,,,,,,,,,,,,,,,,,attack,21,9,aloud,old,yellow,844.1140255,None,844.1140255,None,6,2.3009598,844.1140255,None,2.3009598,846.4342355,None,846.9399251,None,846.9399251,None,r,2.1790301,846.9399251,None,2.1790301,,,Oct31Aloud1,68,2022_Oct_31_1534,ProdSingRedoBetween,2021.2.3,59.87357087
,,,,9,0,9,0,,,,,,,,,,,,,,,,,,,,,,854.8080053,None,,,,,,,,,,,,,,,,,rough,79,10,aloud,old,red,849.6434003,None,849.6434003,None,4,3.4515515,849.6434003,None,3.4515515,853.1240279,None,853.632362,None,853.632362,None,f,1.1585894,853.632362,None,1.1585894,,,Oct31Aloud1,68,2022_Oct_31_1534,ProdSingRedoBetween,2021.2.3,59.87357087
,,,,10,0,10,0,,,,,,,,,,,,,,,,,,,,,,859.5294008,None,,,,,,,,,,,,,,,,,little,149,11,aloud,new,null,855.3132765,None,855.3132765,None,1,1.5817177,855.3132765,None,1.5817177,856.9110796,None,857.4132236,None,857.4132236,None,n,2.0978145,857.4132236,None,2.0978145,,,Oct31Aloud1,68,2022_Oct_31_1534,ProdSingRedoBetween,2021.2.3,59.87357087
,,,,11,0,11,0,,,,,,,,,,,,,,,,,,,,,,864.717892,None,,,,,,,,,,,,,,,,,report,43,12,aloud,old,blue,860.0480769,None,860.0480769,None,5,2.6868637,860.0480769,None,2.6868637,862.7668832,None,863.2694354,None,863.2694354,None,f,1.4254909,863.2694354,None,1.4254909,,,Oct31Aloud1,68,2022_Oct_31_1534,ProdSingRedoBetween,2021.2.3,59.87357087
,,,,12,0,12,0,,,,,,,,,,,,,,,,,,,,,,869.9064599,None,,,,,,,,,,,,,,,,,carry,30,13,aloud,old,blue,865.222412,None,865.222412,None,3,3.2485642,865.222412,None,3.2485642,868.4896492,None,868.9968062,None,868.9968062,None,n,0.8903314,868.9968062,None,0.8903314,,,Oct31Aloud1,68,2022_Oct_31_1534,ProdSingRedoBetween,2021.2.3,59.87357087
,,,,13,0,13,0,,,,,,,,,,,,,,,,,,,,,,873.8603563,None,,,,,,,,,,,,,,,,,gesture,125,14,aloud,new,null,870.4071127,None,870.4071127,None,1,2.279872,870.4071127,None,2.279872,872.710605,None,873.2170991,None,873.2170991,None,n,0.6138478,873.2170991,None,0.6138478,,,Oct31Aloud1,68,2022_Oct_31_1534,ProdSingRedoBetween,2021.2.3,59.87357087
,,,,14,0,14,0,,,,,,,,,,,,,,,,,,,,,,879.5159238,None,,,,,,,,,,,,,,,,,finance,5,15,aloud,old,yellow,874.364281,None,874.364281,None,5,2.3306105,874.364281,None,2.3306105,876.7142436,None,877.2179964,None,877.2179964,None,r,2.2769647,877.2179964,None,2.2769647,,,Oct31Aloud1,68,2022_Oct_31_1534,ProdSingRedoBetween,2021.2.3,59.87357087
,,,,15,0,15,0,,,,,,,,,,,,,,,,,,,,,,886.1392479,None,,,,,,,,,,,,,,,,,write,29,16,aloud,old,blue,880.0247223,None,880.0247223,None,3,2.3261837,880.0247223,None,2.3261837,882.3693705,None,882.8695138,None,882.8695138,None,n,3.2414435,882.8695138,None,3.2414435,,,Oct31Aloud1,68,2022_Oct_31_1534,ProdSingRedoBetween,2021.2.3,59.87357087
,,,,16,0,16,0,,,,,,,,,,,,,,,,,,,,,,890.5768537,None,,,,,,,,,,,,,,,,,tragedy,119,17,aloud,new,null,886.6495083,None,886.6495083,None,2,2.4774109,886.6495083,None,2.4774109,889.1451026,None,889.6636794,None,889.6636794,None,n,0.895245,889.6636794,None,0.895245,,,Oct31Aloud1,68,2022_Oct_31_1534,ProdSingRedoBetween,2021.2.3,59.87357087
,,,,17,0,17,0,,,,,,,,,,,,,,,,,,,,,,898.7202527,None,,,,,,,,,,,,,,,,,raise,49,18,aloud,old,blue,891.0817577,None,891.0817577,None,5,4.1491778,891.0817577,None,4.1491778,895.2496254,None,895.7569279,None,895.7569279,None,r,2.9380071,895.7569279,None,2.9380071,,,Oct31Aloud1,68,2022_Oct_31_1534,ProdSingRedoBetween,2021.2.3,59.87357087
,,,,18,0,18,0,,,,,,,,,,,,,,,,,,,,,,904.3741868,None,,,,,,,,,,,,,,,,,school,14,19,aloud,old,yellow,899.2520361,None,899.2520361,None,4,3.2508794,899.2520361,None,3.2508794,902.5253229,None,903.0431467,None,903.0431467,None,f,1.3077642,903.0431467,None,1.3077642,,,Oct31Aloud1,68,2022_Oct_31_1534,ProdSingRedoBetween,2021.2.3,59.87357087
,,,,19,0,19,0,,,,,,,,,,,,,,,,,,,,,,914.4008012,None,,,,,,,,,,,,,,,,,straight,128,20,aloud,new,null,904.8879243,None,904.8879243,None,3,4.2469233,904.8879243,None,4.2469233,909.1680088,None,909.6796344,None,909.6796344,None,n,4.6951544,909.6796344,None,4.6951544,,,Oct31Aloud1,68,2022_Oct_31_1534,ProdSingRedoBetween,2021.2.3,59.87357087
,,,,20,0,20,0,,,,,,,,,,,,,,,,,,,,,,918.8886063,None,,,,,,,,,,,,,,,,,dispute,124,21,aloud,new,null,914.9117927,None,914.9117927,None,4,2.6710875,914.9117927,None,2.6710875,917.6059836,None,918.1270092,None,918.1270092,None,f,0.7358875,918.1270092,None,0.7358875,,,Oct31Aloud1,68,2022_Oct_31_1534,ProdSingRedoBetween,2021.2.3,59.87357087
,,,,21,0,21,0,,,,,,,,,,,,,,,,,,,,,,923.1929153,None,,,,,,,,,,,,,,,,,defeat,122,22,aloud,new,null,919.3958234,None,919.3958234,None,4,2.1550489,919.3958234,None,2.1550489,921.5757334,None,922.0792441,None,922.0792441,None,f,1.087739,922.0792441,None,1.087739,,,Oct31Aloud1,68,2022_Oct_31_1534,ProdSingRedoBetween,2021.2.3,59.87357087
,,,,22,0,22,0,,,,,,,,,,,,,,,,,,,,,,928.2812838,None,,,,,,,,,,,,,,,,,mechanical,13,23,aloud,old,yellow,923.7003885,None,923.7003885,None,2,3.0505407,923.7003885,None,3.0505407,926.7804499,None,927.2853998,None,927.2853998,None,n,0.9693946,927.2853998,None,0.9693946,,,Oct31Aloud1,68,2022_Oct_31_1534,ProdSingRedoBetween,2021.2.3,59.87357087
,,,,23,0,23,0,,,,,,,,,,,,,,,,,,,,,,936.072316,None,,,,,,,,,,,,,,,,,chief,58,24,aloud,old,blue,928.7923312,None,928.7923312,None,5,3.8145041,928.7923312,None,3.8145041,932.6364552,None,933.1385629,None,933.1385629,None,f,2.9162739,933.1385629,None,2.9162739,,,Oct31Aloud1,68,2022_Oct_31_1534,ProdSingRedoBetween,2021.2.3,59.87357087
,,,,24,0,24,0,,,,,,,,,,,,,,,,,,,,,,940.7603931,None,,,,,,,,,,,,,,,,,atmosphere,20,25,aloud,old,yellow,936.5854417,None,936.5854417,None,5,2.5813345,936.5854417,None,2.5813345,939.1963354,None,939.7094569,None,939.7094569,None,f,1.0334067,939.7094569,None,1.0334067,,,Oct31Aloud1,68,2022_Oct_31_1534,ProdSingRedoBetween,2021.2.3,59.87357087
,,,,25,0,25,0,,,,,,,,,,,,,,,,,,,,,,946.0662625,None,,,,,,,,,,,,,,,,,quiet,97,26,aloud,new,null,941.2631979,None,941.2631979,None,5,3.3596754,941.2631979,None,3.3596754,944.6537462,None,945.1649243,None,945.1649243,None,f,0.8819861,945.1649243,None,0.8819861,,,Oct31Aloud1,68,2022_Oct_31_1534,ProdSingRedoBetween,2021.2.3,59.87357087
,,,,26,0,26,0,,,,,,,,,,,,,,,,,,,,,,949.9362709,None,,,,,,,,,,,,,,,,,colonel,42,27,aloud,old,blue,946.5736879,None,946.5736879,None,6,1.8491575,946.5736879,None,1.8491575,948.4560171,None,948.9686985,None,948.9686985,None,r,0.9421523,948.9686985,None,0.9421523,,,Oct31Aloud1,68,2022_Oct_31_1534,ProdSingRedoBetween,2021.2.3,59.87357087
,,,,27,0,27,0,,,,,,,,,,,,,,,,,,,,,,953.8232322,None,,,,,,,,,,,,,,,,,character,146,28,aloud,new,null,950.4442212,None,950.4442212,None,2,1.9466225,950.4442212,None,1.9466225,952.4231243,None,952.9269846,None,952.9269846,None,n,0.8798581,952.9269846,None,0.8798581,,,Oct31Aloud1,68,2022_Oct_31_1534,ProdSingRedoBetween,2021.2.3,59.87357087
,,,,28,0,28,0,,,,,,,,,,,,,,,,,,,,,,957.9608865,None,,,,,,,,,,,,,,,,,bicycle,34,29,aloud,old,blue,954.3336173,None,954.3336173,None,6,1.897188,954.3336173,None,1.897188,956.26312,None,956.7803812,None,956.7803812,None,r,1.1624247,956.7803812,None,1.1624247,,,Oct31Aloud1,68,2022_Oct_31_1534,ProdSingRedoBetween,2021.2.3,59.87357087
,,,,29,0,29,0,,,,,,,,,,,,,,,,,,,,,,964.0683942,None,,,,,,,,,,,,,,,,,prime,178,30,aloud,new,null,958.4666581,None,958.4666581,None,4,4.0281601,958.4666581,None,4.0281601,962.5184116,None,963.0440225,None,963.0440225,None,f,0.9949022,963.0440225,None,0.9949022,,,Oct31Aloud1,68,2022_Oct_31_1534,ProdSingRedoBetween,2021.2.3,59.87357087
,,,,30,0,30,0,,,,,,,,,,,,,,,,,,,,,,967.8374647,None,,,,,,,,,,,,,,,,,listen,4,31,aloud,old,yellow,964.5731896,None,964.5731896,None,2,1.9536584,964.5731896,None,1.9536584,966.5602709,None,967.0734595,None,967.0734595,None,n,0.733334,967.0734595,None,0.733334,,,Oct31Aloud1,68,2022_Oct_31_1534,ProdSingRedoBetween,2021.2.3,59.87357087
,,,,31,0,31,0,,,,,,,,,,,,,,,,,,,,,,975.6451717,None,,,,,,,,,,,,,,,,,travel,41,32,aloud,old,blue,968.3466833,None,968.3466833,None,4,3.9961257,968.3466833,None,3.9961257,972.3591185,None,972.8591432,None,972.8591432,None,f,2.7635887,972.8591432,None,2.7635887,,,Oct31Aloud1,68,2022_Oct_31_1534,ProdSingRedoBetween,2021.2.3,59.87357087
,,,,32,0,32,0,,,,,,,,,,,,,,,,,,,,,,979.9162208,None,,,,,,,,,,,,,,,,,audience,77,33,aloud,old,red,976.1540922,None,976.1540922,None,2,2.5887069,976.1540922,None,2.5887069,978.7659464,None,979.2678886,None,979.2678886,None,n,0.6268813,979.2678886,None,0.6268813,,,Oct31Aloud1,68,2022_Oct_31_1534,ProdSingRedoBetween,2021.2.3,59.87357087
,,,,33,0,33,0,,,,,,,,,,,,,,,,,,,,,,984.4706557,None,,,,,,,,,,,,,,,,,cousin,3,34,aloud,old,yellow,980.4243181,None,980.4243181,None,4,2.9024501,980.4243181,None,2.9024501,983.3541076,None,983.8578011,None,983.8578011,None,f,0.5889714,983.8578011,None,0.5889714,,,Oct31Aloud1,68,2022_Oct_31_1534,ProdSingRedoBetween,2021.2.3,59.87357087
,,,,34,0,34,0,,,,,,,,,,,,,,,,,,,,,,987.8406481,None,,,,,,,,,,,,,,,,,order,36,35,aloud,old,blue,984.9781897,None,984.9781897,None,2,1.9005424,984.9781897,None,1.9005424,986.9062505,None,987.4103046,None,987.4103046,None,n,0.4045483,987.4103046,None,0.4045483,,,Oct31Aloud1,68,2022_Oct_31_1534,ProdSingRedoBetween,2021.2.3,59.87357087
,,,,35,0,35,0,,,,,,,,,,,,,,,,,,,,,,992.5788427,None,,,,,,,,,,,,,,,,,brilliant,11,36,aloud,old,yellow,988.3436839,None,988.3436839,None,4,2.7110875,988.3436839,None,2.7110875,991.1014558,None,991.6128896,None,991.6128896,None,f,0.9459861,991.6128896,None,0.9459861,,,Oct31Aloud1,68,2022_Oct_31_1534,ProdSingRedoBetween,2021.2.3,59.87357087
,,,,36,0,36,0,,,,,,,,,,,,,,,,,,,,,,997.0999132,None,,,,,,,,,,,,,,,,,society,59,37,aloud,old,yellow,993.0793868,None,993.0793868,None,4,2.6473618,993.0793868,None,2.6473618,995.749617,None,996.2489556,None,996.2489556,None,f,0.8298043,996.2489556,None,0.8298043,,,Oct31Aloud1,68,2022_Oct_31_1534,ProdSingRedoBetween,2021.2.3,59.87357087
,,,,37,0,37,0,,,,,,,,,,,,,,,,,,,,,,1001.053844,None,,,,,,,,,,,,,,,,,couch,22,38,aloud,old,yellow,997.6018687,None,997.6018687,None,4,2.4770591,997.6018687,None,2.4770591,1000.10607,None,1000.620154,None,1000.620154,None,f,0.4186382,1000.620154,None,0.4186382,,,Oct31Aloud1,68,2022_Oct_31_1534,ProdSingRedoBetween,2021.2.3,59.87357087
,,,,38,0,38,0,,,,,,,,,,,,,,,,,,,,,,1003.940111,None,,,,,,,,,,,,,,,,,bright,35,39,aloud,old,blue,1001.562894,None,1001.562894,None,3,1.4279042,1001.562894,None,1.4279042,1003.005849,None,1003.509979,None,1003.509979,None,n,0.4087572,1003.509979,None,0.4087572,,,Oct31Aloud1,68,2022_Oct_31_1534,ProdSingRedoBetween,2021.2.3,59.87357087
,,,,39,0,39,0,,,,,,,,,,,,,,,,,,,,,,1007.059782,None,,,,,,,,,,,,,,,,,passage,111,40,aloud,new,null,1004.447353,None,1004.447353,None,2,1.9833186,1004.447353,None,1.9833186,1006.460754,None,1006.965599,None,1006.965599,None,n,0.0652113,1006.965599,None,0.0652113,,,Oct31Aloud1,68,2022_Oct_31_1534,ProdSingRedoBetween,2021.2.3,59.87357087
,,,,40,0,40,0,,,,,,,,,,,,,,,,,,,,,,1010.103865,None,,,,,,,,,,,,,,,,,season,175,41,aloud,new,null,1007.569321,None,1007.569321,None,1,1.2694157,1007.569321,None,1.2694157,1008.862908,None,1009.36618,None,1009.36618,None,n,0.712524,1009.36618,None,0.712524,,,Oct31Aloud1,68,2022_Oct_31_1534,ProdSingRedoBetween,2021.2.3,59.87357087
,,,,41,0,41,0,,,,,,,,,,,,,,,,,,,,,,1014.584054,None,,,,,,,,,,,,,,,,,strain,108,42,aloud,new,null,1010.625818,None,1010.625818,None,1,2.9168984,1010.625818,None,2.9168984,1013.567407,None,1014.073479,None,1014.073479,None,n,0.4852996,1014.073479,None,0.4852996,,,Oct31Aloud1,68,2022_Oct_31_1534,ProdSingRedoBetween,2021.2.3,59.87357087
,,,,42,0,42,0,,,,,,,,,,,,,,,,,,,,,,1020.806862,None,,,,,,,,,,,,,,,,,express,73,43,aloud,old,red,1015.093473,None,1015.093473,None,2,4.8172441,1015.093473,None,4.8172441,1019.941339,None,1020.458262,None,1020.458262,None,n,0.3325448,1020.458262,None,0.3325448,,,Oct31Aloud1,68,2022_Oct_31_1534,ProdSingRedoBetween,2021.2.3,59.87357087
,,,,43,0,43,0,,,,,,,,,,,,,,,,,,,,,,1023.976724,None,,,,,,,,,,,,,,,,,story,24,44,aloud,old,yellow,1021.311088,None,1021.311088,None,4,1.6476294,1021.311088,None,1.6476294,1022.981857,None,1023.492919,None,1023.492919,None,f,0.4657538,1023.492919,None,0.4657538,,,Oct31Aloud1,68,2022_Oct_31_1534,ProdSingRedoBetween,2021.2.3,59.87357087
,,,,44,0,44,0,,,,,,,,,,,,,,,,,,,,,,1030.599929,None,,,,,,,,,,,,,,,,,pattern,135,45,aloud,new,null,1024.491213,None,1024.491213,None,2,4.7075488,1024.491213,None,4.7075488,1029.22104,None,1029.735881,None,1029.735881,None,n,0.8388442,1029.735881,None,0.8388442,,,Oct31Aloud1,68,2022_Oct_31_1534,ProdSingRedoBetween,2021.2.3,59.87357087
,,,,45,0,45,0,,,,,,,,,,,,,,,,,,,,,,1033.919907,None,,,,,,,,,,,,,,,,,relation,91,46,aloud,new,null,1031.108737,None,1031.108737,None,2,2.1059205,1031.108737,None,2.1059205,1033.236913,None,1033.736549,None,1033.736549,None,n,0.1661198,1033.736549,None,0.1661198,,,Oct31Aloud1,68,2022_Oct_31_1534,ProdSingRedoBetween,2021.2.3,59.87357087
,,,,46,0,46,0,,,,,,,,,,,,,,,,,,,,,,1036.756113,None,,,,,,,,,,,,,,,,,permit,107,47,aloud,new,null,1034.430756,None,1034.430756,None,3,1.2719299,1034.430756,None,1.2719299,1035.724046,None,1036.239087,None,1036.239087,None,n,0.4876063,1036.239087,None,0.4876063,,,Oct31Aloud1,68,2022_Oct_31_1534,ProdSingRedoBetween,2021.2.3,59.87357087
,,,,47,0,47,0,,,,,,,,,,,,,,,,,,,,,,1044.263696,None,,,,,,,,,,,,,,,,,people,123,48,aloud,new,null,1037.266252,None,1037.266252,None,2,6.0443928,1037.266252,None,6.0443928,1043.331633,None,1043.850928,None,1043.850928,None,n,0.3877764,1043.850928,None,0.3877764,,,Oct31Aloud1,68,2022_Oct_31_1534,ProdSingRedoBetween,2021.2.3,59.87357087
,,,,48,0,48,0,,,,,,,,,,,,,,,,,,,,,,1048.768102,None,,,,,,,,,,,,,,,,,narrow,33,49,aloud,old,blue,1044.77192,None,1044.77192,None,4,2.9147998,1044.77192,None,2.9147998,1047.72046,None,1048.234353,None,1048.234353,None,f,0.5163576,1048.234353,None,0.5163576,,,Oct31Aloud1,68,2022_Oct_31_1534,ProdSingRedoBetween,2021.2.3,59.87357087
,,,,49,0,49,0,,,,,,,,,,,,,,,,,,,,,,1052.48848,None,,,,,,,,,,,,,,,,,captain,87,50,aloud,old,red,1049.279093,None,1049.279093,None,3,2.6154973,1049.279093,None,2.6154973,1051.925211,None,1052.43855,None,1052.43855,None,n,0.0320962,1052.43855,None,0.0320962,,,Oct31Aloud1,68,2022_Oct_31_1534,ProdSingRedoBetween,2021.2.3,59.87357087
,,,,50,0,50,0,,,,,,,,,,,,,,,,,,,,,,1057.094085,None,,,,,,,,,,,,,,,,,damage,70,51,aloud,old,red,1052.995486,None,1052.995486,None,6,2.6511813,1052.995486,None,2.6511813,1055.675009,None,1056.175842,None,1056.175842,None,r,0.8869333,1056.175842,None,0.8869333,,,Oct31Aloud1,68,2022_Oct_31_1534,ProdSingRedoBetween,2021.2.3,59.87357087
,,,,51,0,51,0,,,,,,,,,,,,,,,,,,,,,,1064.150152,None,,,,,,,,,,,,,,,,,goose,26,52,aloud,old,yellow,1057.597476,None,1057.597476,None,5,5.3611239,1057.597476,None,5.3611239,1062.983599,None,1063.491138,None,1063.491138,None,f,0.6275554,1063.491138,None,0.6275554,,,Oct31Aloud1,68,2022_Oct_31_1534,ProdSingRedoBetween,2021.2.3,59.87357087
,,,,52,0,52,0,,,,,,,,,,,,,,,,,,,,,,1069.138228,None,,,,,,,,,,,,,,,,,marriage,72,53,aloud,old,red,1064.658718,None,1064.658718,None,4,3.3798914,1064.658718,None,3.3798914,1068.055043,None,1068.558953,None,1068.558953,None,f,0.5597142,1068.558953,None,0.5597142,,,Oct31Aloud1,68,2022_Oct_31_1534,ProdSingRedoBetween,2021.2.3,59.87357087
,,,,53,0,53,0,,,,,,,,,,,,,,,,,,,,,,1072.575164,None,,,,,,,,,,,,,,,,,bucket,118,54,aloud,new,null,1069.646721,None,1069.646721,None,1,2.1518691,1069.646721,None,2.1518691,1071.826458,None,1072.35056,None,1072.35056,None,n,0.2080989,1072.35056,None,0.2080989,,,Oct31Aloud1,68,2022_Oct_31_1534,ProdSingRedoBetween,2021.2.3,59.87357087
,,,,54,0,54,0,,,,,,,,,,,,,,,,,,,,,,1077.232178,None,,,,,,,,,,,,,,,,,production,53,55,aloud,old,blue,1073.087679,None,1073.087679,None,5,2.2950056,1073.087679,None,2.2950056,1075.417147,None,1075.932888,None,1075.932888,None,f,1.2659919,1075.932888,None,1.2659919,,,Oct31Aloud1,68,2022_Oct_31_1534,ProdSingRedoBetween,2021.2.3,59.87357087
,,,,55,0,55,0,,,,,,,,,,,,,,,,,,,,,,1081.135483,None,,,,,,,,,,,,,,,,,working,18,56,aloud,old,yellow,1077.755859,None,1077.755859,None,3,2.3228377,1077.755859,None,2.3228377,1080.105054,None,1080.624145,None,1080.624145,None,n,0.4945076,1080.624145,None,0.4945076,,,Oct31Aloud1,68,2022_Oct_31_1534,ProdSingRedoBetween,2021.2.3,59.87357087
,,,,56,0,56,0,,,,,,,,,,,,,,,,,,,,,,1087.006099,None,,,,,,,,,,,,,,,,,store,113,57,aloud,new,null,1081.653666,None,1081.653666,None,1,4.7129372,1081.653666,None,4.7129372,1086.390197,None,1086.891383,None,1086.891383,None,n,0.0992076,1086.891383,None,0.0992076,,,Oct31Aloud1,68,2022_Oct_31_1534,ProdSingRedoBetween,2021.2.3,59.87357087
,,,,57,0,57,0,,,,,,,,,,,,,,,,,,,,,,1089.792353,None,,,,,,,,,,,,,,,,,worker,169,58,aloud,new,null,1087.506889,None,1087.506889,None,2,1.6997044,1087.506889,None,1.6997044,1089.230171,None,1089.745705,None,1089.745705,None,n,0.0209221,1089.745705,None,0.0209221,,,Oct31Aloud1,68,2022_Oct_31_1534,ProdSingRedoBetween,2021.2.3,59.87357087
,,,,58,0,58,0,,,,,,,,,,,,,,,,,,,,,,1095.514694,None,,,,,,,,,,,,,,,,,empty,80,59,aloud,old,red,1090.296042,None,1090.296042,None,4,1.5905655,1090.296042,None,1.5905655,1091.918667,None,1092.428291,None,1092.428291,None,f,3.0663073,1092.428291,None,3.0663073,,,Oct31Aloud1,68,2022_Oct_31_1534,ProdSingRedoBetween,2021.2.3,59.87357087
,,,,59,0,59,0,,,,,,,,,,,,,,,,,,,,,,1099.168516,None,,,,,,,,,,,,,,,,,produce,89,60,aloud,old,red,1096.024843,None,1096.024843,None,5,1.4297338,1096.024843,None,1.4297338,1097.484385,None,1097.98836,None,1097.98836,None,f,1.1622187,1097.98836,None,1.1622187,,,Oct31Aloud1,68,2022_Oct_31_1534,ProdSingRedoBetween,2021.2.3,59.87357087
,,,,60,0,60,0,,,,,,,,,,,,,,,,,,,,,,1102.254776,None,,,,,,,,,,,,,,,,,match,179,61,aloud,new,null,1099.675251,None,1099.675251,None,3,1.9474926,1099.675251,None,1.9474926,1101.660835,None,1102.173776,None,1102.173776,None,n,0.06474,1102.173776,None,0.06474,,,Oct31Aloud1,68,2022_Oct_31_1534,ProdSingRedoBetween,2021.2.3,59.87357087
,,,,61,0,61,0,,,,,,,,,,,,,,,,,,,,,,1111.330464,None,,,,,,,,,,,,,,,,,speech,61,62,aloud,old,red,1102.768926,None,1102.768926,None,2,7.557734,1102.768926,None,7.557734,1110.347526,None,1110.846798,None,1110.846798,None,n,0.4637963,1110.846798,None,0.4637963,,,Oct31Aloud1,68,2022_Oct_31_1534,ProdSingRedoBetween,2021.2.3,59.87357087
,,,,62,0,62,0,,,,,,,,,,,,,,,,,,,,,,1117.38735,None,,,,,,,,,,,,,,,,,silence,23,63,aloud,old,yellow,1111.833867,None,1111.833867,None,5,4.1406211,1111.833867,None,4.1406211,1116.008031,None,1116.519121,None,1116.519121,None,f,0.8395074,1116.519121,None,0.8395074,,,Oct31Aloud1,68,2022_Oct_31_1534,ProdSingRedoBetween,2021.2.3,59.87357087
,,,,63,0,63,0,,,,,,,,,,,,,,,,,,,,,,1119.822364,None,,,,,,,,,,,,,,,,,present,78,64,aloud,old,red,1117.89229,None,1117.89229,None,5,1.3462412,1117.89229,None,1.3462412,1119.257102,None,1119.772475,None,1119.772475,None,f,0.0340867,1119.772475,None,0.0340867,,,Oct31Aloud1,68,2022_Oct_31_1534,ProdSingRedoBetween,2021.2.3,59.87357087
,,,,64,0,64,0,,,,,,,,,,,,,,,,,,,,,,1122.908807,None,,,,,,,,,,,,,,,,,route,62,65,aloud,old,red,1120.332885,None,1120.332885,None,6,1.3938417,1120.332885,None,1.3938417,1121.762846,None,1122.274988,None,1122.274988,None,r,0.6034477,1122.274988,None,0.6034477,,,Oct31Aloud1,68,2022_Oct_31_1534,ProdSingRedoBetween,2021.2.3,59.87357087
,,,,65,0,65,0,,,,,,,,,,,,,,,,,,,,,,1125.895067,None,,,,,,,,,,,,,,,,,orchestra,55,66,aloud,old,blue,1123.418843,None,1123.418843,None,6,1.6918086,1123.418843,None,1.6918086,1125.138213,None,1125.647837,None,1125.647837,None,r,0.2227038,1125.647837,None,0.2227038,,,Oct31Aloud1,68,2022_Oct_31_1534,ProdSingRedoBetween,2021.2.3,59.87357087
,,,,66,0,66,0,,,,,,,,,,,,,,,,,,,,,,1129.803095,None,,,,,,,,,,,,,,,,,second,75,67,aloud,old,red,1126.404799,None,1126.404799,None,5,2.3137316,1126.404799,None,2.3137316,1128.748887,None,1129.248604,None,1129.248604,None,f,0.5259972,1129.248604,None,0.5259972,,,Oct31Aloud1,68,2022_Oct_31_1534,ProdSingRedoBetween,2021.2.3,59.87357087
,,,,67,0,67,0,,,,,,,,,,,,,,,,,,,,,,1133.31909,None,,,,,,,,,,,,,,,,,victory,67,68,aloud,old,red,1130.320952,None,1130.320952,None,3,2.3016194,1130.320952,None,2.3016194,1132.656046,None,1133.174233,None,1133.174233,None,n,0.1203187,1133.174233,None,0.1203187,,,Oct31Aloud1,68,2022_Oct_31_1534,ProdSingRedoBetween,2021.2.3,59.87357087
,,,,68,0,68,0,,,,,,,,,,,,,,,,,,,,,,1136.13844,None,,,,,,,,,,,,,,,,,drink,95,69,aloud,new,null,1133.826158,None,1133.826158,None,1,1.6923584,1133.826158,None,1.6923584,1135.541025,None,1136.0577,None,1136.0577,None,n,0.0609782,1136.0577,None,0.0609782,,,Oct31Aloud1,68,2022_Oct_31_1534,ProdSingRedoBetween,2021.2.3,59.87357087
,,,,69,0,69,0,,,,,,,,,,,,,,,,,,,,,,1140.512313,None,,,,,,,,,,,,,,,,,revolution,143,70,aloud,new,null,1136.64598,None,1136.64598,None,4,2.7765236,1136.64598,None,2.7765236,1139.443464,None,1139.959609,None,1139.959609,None,f,0.527129,1139.959609,None,0.527129,,,Oct31Aloud1,68,2022_Oct_31_1534,ProdSingRedoBetween,2021.2.3,59.87357087
,,,,70,0,70,0,,,,,,,,,,,,,,,,,,,,,,1144.613677,None,,,,,,,,,,,,,,,,,sound,64,71,aloud,old,red,1141.030828,None,1141.030828,None,4,2.9836737,1141.030828,None,2.9836737,1144.031043,None,1144.53558,None,1144.53558,None,f,0.062844,1144.53558,None,0.062844,,,Oct31Aloud1,68,2022_Oct_31_1534,ProdSingRedoBetween,2021.2.3,59.87357087
,,,,71,0,71,0,,,,,,,,,,,,,,,,,,,,,,1151.553954,None,,,,,,,,,,,,,,,,,color,98,72,aloud,new,null,1145.114222,None,1145.114222,None,1,3.2282069,1145.114222,None,3.2282069,1148.370118,None,1148.887754,None,1148.887754,None,n,2.6467601,1148.887754,None,2.6467601,,,Oct31Aloud1,68,2022_Oct_31_1534,ProdSingRedoBetween,2021.2.3,59.87357087
,,,,72,0,72,0,,,,,,,,,,,,,,,,,,,,,,1154.523655,None,,,,,,,,,,,,,,,,,center,151,73,aloud,new,null,1152.057886,None,1152.057886,None,2,1.7645644,1152.057886,None,1.7645644,1153.840526,None,1154.342105,None,1154.342105,None,n,0.1524647,1154.342105,None,0.1524647,,,Oct31Aloud1,68,2022_Oct_31_1534,ProdSingRedoBetween,2021.2.3,59.87357087
,,,,73,0,73,0,,,,,,,,,,,,,,,,,,,,,,1157.376428,None,,,,,,,,,,,,,,,,,stranger,136,74,aloud,new,null,1155.033712,None,1155.033712,None,3,1.6687595,1155.033712,None,1.6687595,1156.728943,None,1157.243062,None,1157.243062,None,n,0.1073361,1157.243062,None,0.1073361,,,Oct31Aloud1,68,2022_Oct_31_1534,ProdSingRedoBetween,2021.2.3,59.87357087
,,,,74,0,74,0,,,,,,,,,,,,,,,,,,,,,,1161.114207,None,,,,,,,,,,,,,,,,,piece,16,75,aloud,old,yellow,1157.892777,None,1157.892777,None,4,1.6577358,1157.892777,None,1.6577358,1159.584482,None,1160.095945,None,1160.095945,None,n,0.9986828,1160.095945,None,0.9986828,,,Oct31Aloud1,68,2022_Oct_31_1534,ProdSingRedoBetween,2021.2.3,59.87357087
,,,,75,0,75,0,,,,,,,,,,,,,,,,,,,,,,1164.939194,None,,,,,,,,,,,,,,,,,meeting,90,76,aloud,new,null,1161.616484,None,1161.616484,None,3,2.5099985,1161.616484,None,2.5099985,1164.153448,None,1164.675198,None,1164.675198,None,n,0.2435413,1164.675198,None,0.2435413,,,Oct31Aloud1,68,2022_Oct_31_1534,ProdSingRedoBetween,2021.2.3,59.87357087
,,,,76,0,76,0,,,,,,,,,,,,,,,,,,,,,,1168.570827,None,,,,,,,,,,,,,,,,,point,133,77,aloud,new,null,1165.451943,None,1165.451943,None,4,2.3465671,1165.451943,None,2.3465671,1167.825334,None,1168.337448,None,1168.337448,None,n,0.2050286,1168.337448,None,0.2050286,,,Oct31Aloud1,68,2022_Oct_31_1534,ProdSingRedoBetween,2021.2.3,59.87357087
,,,,77,0,77,0,,,,,,,,,,,,,,,,,,,,,,1173.20895,None,,,,,,,,,,,,,,,,,strength,92,78,aloud,new,null,1169.088681,None,1169.088681,None,5,2.1257841,1169.088681,None,2.1257841,1171.243269,None,1171.760811,None,1171.760811,None,f,1.4296921,1171.760811,None,1.4296921,,,Oct31Aloud1,68,2022_Oct_31_1534,ProdSingRedoBetween,2021.2.3,59.87357087
,,,,78,0,78,0,,,,,,,,,,,,,,,,,,,,,,1178.447197,None,,,,,,,,,,,,,,,,,community,150,79,aloud,new,null,1173.716979,None,1173.716979,None,2,4.0094556,1173.716979,None,4.0094556,1177.7475,None,1178.247881,None,1178.247881,None,n,0.1745696,1178.247881,None,0.1745696,,,Oct31Aloud1,68,2022_Oct_31_1534,ProdSingRedoBetween,2021.2.3,59.87357087
,,,,79,0,79,0,,,,,,,,,,,,,,,,,,,,,,1184.269994,None,,,,,,,,,,,,,,,,,cover,132,80,aloud,new,null,1178.955816,None,1178.955816,None,2,4.6745247,1178.955816,None,4.6745247,1183.653866,None,1184.155512,None,1184.155512,None,n,0.0830169,1184.155512,None,0.0830169,,,Oct31Aloud1,68,2022_Oct_31_1534,ProdSingRedoBetween,2021.2.3,59.87357087
,,,,80,0,80,0,,,,,,,,,,,,,,,,,,,,,,1189.057946,None,,,,,,,,,,,,,,,,,private,66,81,aloud,old,red,1184.778347,None,1184.778347,None,4,2.8440684,1184.778347,None,2.8440684,1187.641456,None,1188.14393,None,1188.14393,None,f,0.8945355,1188.14393,None,0.8945355,,,Oct31Aloud1,68,2022_Oct_31_1534,ProdSingRedoBetween,2021.2.3,59.87357087
,,,,81,0,81,0,,,,,,,,,,,,,,,,,,,,,,1193.86275,None,,,,,,,,,,,,,,,,,concern,155,82,aloud,new,null,1189.564189,None,1189.564189,None,2,3.546371,1189.564189,None,3.546371,1193.143304,None,1193.650954,None,1193.650954,None,n,0.1875156,1193.650954,None,0.1875156,,,Oct31Aloud1,68,2022_Oct_31_1534,ProdSingRedoBetween,2021.2.3,59.87357087
,,,,82,0,82,0,,,,,,,,,,,,,,,,,,,,,,1197.499769,None,,,,,,,,,,,,,,,,,title,48,83,aloud,old,blue,1194.364252,None,1194.364252,None,4,1.9941457,1194.364252,None,1.9941457,1196.3829,None,1196.884915,None,1196.884915,None,f,0.5934073,1196.884915,None,0.5934073,,,Oct31Aloud1,68,2022_Oct_31_1534,ProdSingRedoBetween,2021.2.3,59.87357087
,,,,83,0,83,0,,,,,,,,,,,,,,,,,,,,,,1201.07082,None,,,,,,,,,,,,,,,,,trend,54,84,aloud,old,blue,1198.008572,None,1198.008572,None,2,2.2220618,1198.008572,None,2.2220618,1200.258978,None,1200.771773,None,1200.771773,None,n,0.2666152,1200.771773,None,0.2666152,,,Oct31Aloud1,68,2022_Oct_31_1534,ProdSingRedoBetween,2021.2.3,59.87357087
,,,,84,0,84,0,,,,,,,,,,,,,,,,,,,,,,1203.872845,None,,,,,,,,,,,,,,,,,contract,40,85,aloud,old,blue,1201.581788,None,1201.581788,None,5,1.5766193,1201.581788,None,1.5766193,1203.189338,None,1203.690406,None,1203.690406,None,f,0.1559275,1203.690406,None,0.1559275,,,Oct31Aloud1,68,2022_Oct_31_1534,ProdSingRedoBetween,2021.2.3,59.87357087
,,,,85,0,85,0,,,,,,,,,,,,,,,,,,,,,,1207.163045,None,,,,,,,,,,,,,,,,,individual,88,86,aloud,old,red,1204.384639,None,1204.384639,None,5,1.8617559,1204.384639,None,1.8617559,1206.276105,None,1206.789189,None,1206.789189,None,f,0.35313,1206.789189,None,0.35313,,,Oct31Aloud1,68,2022_Oct_31_1534,ProdSingRedoBetween,2021.2.3,59.87357087
,,,,86,0,86,0,,,,,,,,,,,,,,,,,,,,,,1210.545963,None,,,,,,,,,,,,,,,,,pancakes,127,87,aloud,new,null,1207.690668,None,1207.690668,None,1,1.9157877,1207.690668,None,1.9157877,1209.637127,None,1210.153418,None,1210.153418,None,n,0.364976,1210.153418,None,0.364976,,,Oct31Aloud1,68,2022_Oct_31_1534,ProdSingRedoBetween,2021.2.3,59.87357087
,,,,87,0,87,0,,,,,,,,,,,,,,,,,,,,,,1217.25286,None,,,,,,,,,,,,,,,,,education,85,88,aloud,old,red,1211.049213,None,1211.049213,None,1,5.5891548,1211.049213,None,5.5891548,1216.669602,None,1217.172977,None,1217.172977,None,n,0.05739,1217.172977,None,0.05739,,,Oct31Aloud1,68,2022_Oct_31_1534,ProdSingRedoBetween,2021.2.3,59.87357087
,,,,88,0,88,0,,,,,,,,,,,,,,,,,,,,,,1220.956338,None,,,,,,,,,,,,,,,,,sunset,84,89,aloud,old,red,1217.76115,None,1217.76115,None,1,1.2612477,1217.76115,None,1.2612477,1219.040787,None,1219.56074,None,1219.56074,None,n,1.3736644,1219.56074,None,1.3736644,,,Oct31Aloud1,68,2022_Oct_31_1534,ProdSingRedoBetween,2021.2.3,59.87357087
,,,,89,0,89,0,,,,,,,,,,,,,,,,,,,,,,1223.725905,None,,,,,,,,,,,,,,,,,blind,163,90,aloud,new,null,1221.464797,None,1221.464797,None,2,1.6215852,1221.464797,None,1.6215852,1223.108429,None,1223.609223,None,1223.609223,None,n,0.1011207,1223.609223,None,0.1011207,,,Oct31Aloud1,68,2022_Oct_31_1534,ProdSingRedoBetween,2021.2.3,59.87357087
,,,,90,0,90,0,,,,,,,,,,,,,,,,,,,,,,1226.311906,None,,,,,,,,,,,,,,,,,recall,10,91,aloud,old,yellow,1224.23676,None,1224.23676,None,2,1.4175979,1224.23676,None,1.4175979,1225.680601,None,1226.195133,None,1226.195133,None,n,0.0912851,1226.195133,None,0.0912851,,,Oct31Aloud1,68,2022_Oct_31_1534,ProdSingRedoBetween,2021.2.3,59.87357087
,,,,91,0,91,0,,,,,,,,,,,,,,,,,,,,,,1230.886107,None,,,,,,,,,,,,,,,,,command,159,92,aloud,new,null,1226.815285,None,1226.815285,None,4,2.6071003,1226.815285,None,2.6071003,1229.45351,None,1229.965693,None,1229.965693,None,f,0.8967421,1229.965693,None,0.8967421,,,Oct31Aloud1,68,2022_Oct_31_1534,ProdSingRedoBetween,2021.2.3,59.87357087
,,,,92,0,92,0,,,,,,,,,,,,,,,,,,,,,,1234.002824,None,,,,,,,,,,,,,,,,,welcome,129,93,aloud,new,null,1231.407296,None,1231.407296,None,2,2.0070462,1231.407296,None,2.0070462,1233.436856,None,1233.936213,None,1233.936213,None,n,0.0461353,1233.936213,None,0.0461353,,,Oct31Aloud1,68,2022_Oct_31_1534,ProdSingRedoBetween,2021.2.3,59.87357087
,,,,93,0,93,0,,,,,,,,,,,,,,,,,,,,,,1237.839894,None,,,,,,,,,,,,,,,,,voice,148,94,aloud,new,null,1234.51292,None,1234.51292,None,2,2.605407,1234.51292,None,2.605407,1237.140741,None,1237.6541,None,1237.6541,None,n,0.1681404,1237.6541,None,0.1681404,,,Oct31Aloud1,68,2022_Oct_31_1534,ProdSingRedoBetween,2021.2.3,59.87357087
,,,,94,0,94,0,,,,,,,,,,,,,,,,,,,,,,1243.947056,None,,,,,,,,,,,,,,,,,finish,86,95,aloud,old,red,1238.341525,None,1238.341525,None,1,4.8968161,1238.341525,None,4.8968161,1243.264262,None,1243.779266,None,1243.779266,None,n,0.1390207,1243.779266,None,0.1390207,,,Oct31Aloud1,68,2022_Oct_31_1534,ProdSingRedoBetween,2021.2.3,59.87357087
,,,,95,0,95,0,,,,,,,,,,,,,,,,,,,,,,1247.999993,None,,,,,,,,,,,,,,,,,disease,168,96,aloud,new,null,1244.466096,None,1244.466096,None,2,1.8523718,1244.466096,None,1.8523718,1246.352778,None,1246.865744,None,1246.865744,None,n,1.1085636,1246.865744,None,1.1085636,,,Oct31Aloud1,68,2022_Oct_31_1534,ProdSingRedoBetween,2021.2.3,59.87357087
,,,,96,0,96,0,,,,,,,,,,,,,,,,,,,,,,1254.125126,None,,,,,,,,,,,,,,,,,appearance,96,97,aloud,new,null,1248.509419,None,1248.509419,None,2,4.9049471,1248.509419,None,4.9049471,1253.445515,None,1253.956097,None,1253.956097,None,n,0.1383594,1253.956097,None,0.1383594,,,Oct31Aloud1,68,2022_Oct_31_1534,ProdSingRedoBetween,2021.2.3,59.87357087
,,,,97,0,97,0,,,,,,,,,,,,,,,,,,,,,,1258.160279,None,,,,,,,,,,,,,,,,,graduate,47,98,aloud,old,blue,1254.64789,None,1254.64789,None,6,2.3105063,1254.64789,None,2.3105063,1256.98764,None,1257.495651,None,1257.495651,None,r,0.6385662,1257.495651,None,0.6385662,,,Oct31Aloud1,68,2022_Oct_31_1534,ProdSingRedoBetween,2021.2.3,59.87357087
,,,,98,0,98,0,,,,,,,,,,,,,,,,,,,,,,1262.783063,None,,,,,,,,,,,,,,,,,leader,0,99,aloud,old,yellow,1258.673596,None,1258.673596,None,5,2.500772,1258.673596,None,2.500772,1261.200007,None,1261.718646,None,1261.718646,None,r,1.0476992,1261.718646,None,1.0476992,,,Oct31Aloud1,68,2022_Oct_31_1534,ProdSingRedoBetween,2021.2.3,59.87357087
,,,,99,0,99,0,,,,,,,,,,,,,,,,,,,,,,1267.069161,None,,,,,,,,,,,,,,,,,harmony,174,100,aloud,new,null,1263.287023,None,1263.287023,None,4,2.8232294,1263.287023,None,2.8232294,1266.137042,None,1266.652244,None,1266.652244,None,n,0.3860239,1266.652244,None,0.3860239,,,Oct31Aloud1,68,2022_Oct_31_1534,ProdSingRedoBetween,2021.2.3,59.87357087
,,,,100,0,100,0,,,,,,,,,,,,,,,,,,,,,,1271.423576,None,,,,,,,,,,,,,,,,,distance,51,101,aloud,old,blue,1267.579782,None,1267.579782,None,5,3.0106285,1267.579782,None,3.0106285,1270.613021,None,1271.124368,None,1271.124368,None,f,0.2818909,1271.124368,None,0.2818909,,,Oct31Aloud1,68,2022_Oct_31_1534,ProdSingRedoBetween,2021.2.3,59.87357087
,,,,101,0,101,0,,,,,,,,,,,,,,,,,,,,,,1274.745418,None,,,,,,,,,,,,,,,,,height,27,102,aloud,old,yellow,1271.929432,None,1271.929432,None,5,2.1569566,1271.929432,None,2.1569566,1274.112271,None,1274.628712,None,1274.628712,None,f,0.089633,1274.628712,None,0.089633,,,Oct31Aloud1,68,2022_Oct_31_1534,ProdSingRedoBetween,2021.2.3,59.87357087
,,,,102,0,102,0,,,,,,,,,,,,,,,,,,,,,,1277.613046,None,,,,,,,,,,,,,,,,,universal,28,103,aloud,old,yellow,1275.270802,None,1275.270802,None,3,1.5514683,1275.270802,None,1.5514683,1276.846962,None,1277.354677,None,1277.354677,None,n,0.2275769,1277.354677,None,0.2275769,,,Oct31Aloud1,68,2022_Oct_31_1534,ProdSingRedoBetween,2021.2.3,59.87357087
,,,,103,0,103,0,,,,,,,,,,,,,,,,,,,,,,1282.901608,None,,,,,,,,,,,,,,,,,committee,32,104,aloud,old,blue,1278.116363,None,1278.116363,None,4,3.8898501,1278.116363,None,3.8898501,1282.034639,None,1282.537652,None,1282.537652,None,f,0.3406018,1282.537652,None,0.3406018,,,Oct31Aloud1,68,2022_Oct_31_1534,ProdSingRedoBetween,2021.2.3,59.87357087
,,,,104,0,104,0,,,,,,,,,,,,,,,,,,,,,,1285.620976,None,,,,,,,,,,,,,,,,,military,63,105,aloud,old,red,1283.412012,None,1283.412012,None,5,1.578368,1283.412012,None,1.578368,1285.021193,None,1285.524334,None,1285.524334,None,f,0.0739025,1285.524334,None,0.0739025,,,Oct31Aloud1,68,2022_Oct_31_1534,ProdSingRedoBetween,2021.2.3,59.87357087
,,,,105,0,105,0,,,,,,,,,,,,,,,,,,,,,,1291.910524,None,,,,,,,,,,,,,,,,,turkey,38,106,aloud,old,blue,1286.131173,None,1286.131173,None,2,3.0831467,1286.131173,None,3.0831467,1289.248706,None,1289.765379,None,1289.765379,None,n,2.1208814,1289.765379,None,2.1208814,,,Oct31Aloud1,68,2022_Oct_31_1534,ProdSingRedoBetween,2021.2.3,59.87357087
,,,,106,0,106,0,,,,,,,,,,,,,,,,,,,,,,1302.721355,None,,,,,,,,,,,,,,,,,substance,81,107,aloud,old,red,1292.421472,None,1292.421472,None,6,7.7848315,1292.421472,None,7.7848315,1300.25091,None,1300.752877,None,1300.752877,None,r,1.9412811,1300.752877,None,1.9412811,,,Oct31Aloud1,68,2022_Oct_31_1534,ProdSingRedoBetween,2021.2.3,59.87357087
,,,,107,0,107,0,,,,,,,,,,,,,,,,,,,,,,1307.843199,None,,,,,,,,,,,,,,,,,interview,105,108,aloud,new,null,1303.228795,None,1303.228795,None,3,2.5453909,1303.228795,None,2.5453909,1305.79568,None,1306.311015,None,1306.311015,None,n,1.5032103,1306.311015,None,1.5032103,,,Oct31Aloud1,68,2022_Oct_31_1534,ProdSingRedoBetween,2021.2.3,59.87357087
,,,,108,0,108,0,,,,,,,,,,,,,,,,,,,,,,1311.663585,None,,,,,,,,,,,,,,,,,escape,50,109,aloud,old,blue,1308.351923,None,1308.351923,None,5,2.4223013,1308.351923,None,2.4223013,1310.797302,None,1311.30348,None,1311.30348,None,f,0.3347491,1311.30348,None,0.3347491,,,Oct31Aloud1,68,2022_Oct_31_1534,ProdSingRedoBetween,2021.2.3,59.87357087
,,,,109,0,109,0,,,,,,,,,,,,,,,,,,,,,,1315.600887,None,,,,,,,,,,,,,,,,,month,71,110,aloud,old,red,1312.174111,None,1312.174111,None,2,2.4801446,1312.174111,None,2.4801446,1314.683917,None,1315.186313,None,1315.186313,None,n,0.395834,1315.186313,None,0.395834,,,Oct31Aloud1,68,2022_Oct_31_1534,ProdSingRedoBetween,2021.2.3,59.87357087
,,,,110,0,110,0,,,,,,,,,,,,,,,,,,,,,,1318.620549,None,,,,,,,,,,,,,,,,,signal,115,111,aloud,new,null,1316.110991,None,1316.110991,None,4,1.6631935,1316.110991,None,1.6631935,1317.803954,None,1318.307019,None,1318.307019,None,n,0.2912346,1318.307019,None,0.2912346,,,Oct31Aloud1,68,2022_Oct_31_1534,ProdSingRedoBetween,2021.2.3,59.87357087
,,,,111,0,111,0,,,,,,,,,,,,,,,,,,,,,,1325.278216,None,,,,,,,,,,,,,,,,,sleep,110,112,aloud,new,null,1319.130543,None,1319.130543,None,4,5.5477086,1319.130543,None,5.5477086,1324.698012,None,1325.215717,None,1325.215717,None,f,0.0465193,1325.215717,None,0.0465193,,,Oct31Aloud1,68,2022_Oct_31_1534,ProdSingRedoBetween,2021.2.3,59.87357087
,,,,112,0,112,0,,,,,,,,,,,,,,,,,,,,,,1329.765004,None,,,,,,,,,,,,,,,,,angle,131,113,aloud,new,null,1325.780443,None,1325.780443,None,1,1.6417365,1325.780443,None,1.6417365,1327.446953,None,1327.946587,None,1327.946587,None,n,1.8035969,1327.946587,None,1.8035969,,,Oct31Aloud1,68,2022_Oct_31_1534,ProdSingRedoBetween,2021.2.3,59.87357087
,,,,113,0,113,0,,,,,,,,,,,,,,,,,,,,,,1335.387093,None,,,,,,,,,,,,,,,,,council,46,114,aloud,old,blue,1330.269918,None,1330.269918,None,5,3.6642492,1330.269918,None,3.6642492,1333.953538,None,1334.453682,None,1334.453682,None,r,0.9045012,1334.453682,None,0.9045012,,,Oct31Aloud1,68,2022_Oct_31_1534,ProdSingRedoBetween,2021.2.3,59.87357087
,,,,114,0,114,0,,,,,,,,,,,,,,,,,,,,,,1340.308854,None,,,,,,,,,,,,,,,,,sweet,130,115,aloud,new,null,1335.895843,None,1335.895843,None,4,3.3583816,1335.895843,None,3.3583816,1339.279709,None,1339.79329,None,1339.79329,None,f,0.4848757,1339.79329,None,0.4848757,,,Oct31Aloud1,68,2022_Oct_31_1534,ProdSingRedoBetween,2021.2.3,59.87357087
,,,,115,0,115,0,,,,,,,,,,,,,,,,,,,,,,1342.978156,None,,,,,,,,,,,,,,,,,service,57,116,aloud,old,blue,1340.822442,None,1340.822442,None,3,1.4637098,1340.822442,None,1.4637098,1342.3132,None,1342.833303,None,1342.833303,None,n,0.1168427,1342.833303,None,0.1168427,,,Oct31Aloud1,68,2022_Oct_31_1534,ProdSingRedoBetween,2021.2.3,59.87357087
,,,,116,0,116,0,,,,,,,,,,,,,,,,,,,,,,1349.467991,None,,,,,,,,,,,,,,,,,instrument,83,117,aloud,old,red,1343.48784,None,1343.48784,None,5,3.6863143,1343.48784,None,3.6863143,1347.20285,None,1347.727021,None,1347.727021,None,f,1.7110924,1347.727021,None,1.7110924,,,Oct31Aloud1,68,2022_Oct_31_1534,ProdSingRedoBetween,2021.2.3,59.87357087
,,,,117,0,117,0,,,,,,,,,,,,,,,,,,,,,,1353.32289,None,,,,,,,,,,,,,,,,,level,117,118,aloud,new,null,1349.97932,None,1349.97932,None,5,2.0348116,1349.97932,None,2.0348116,1352.038479,None,1352.538491,None,1352.538491,None,f,0.7637191,1352.538491,None,0.7637191,,,Oct31Aloud1,68,2022_Oct_31_1534,ProdSingRedoBetween,2021.2.3,59.87357087
,,,,118,0,118,0,,,,,,,,,,,,,,,,,,,,,,1356.374818,None,,,,,,,,,,,,,,,,,split,162,119,aloud,new,null,1353.827399,None,1353.827399,None,3,1.7147021,1353.827399,None,1.7147021,1355.56024,None,1356.076745,None,1356.076745,None,n,0.2733565,1356.076745,None,0.2733565,,,Oct31Aloud1,68,2022_Oct_31_1534,ProdSingRedoBetween,2021.2.3,59.87357087
,,,,119,0,119,0,,,,,,,,,,,,,,,,,,,,,,1359.578054,None,,,,,,,,,,,,,,,,,column,153,120,aloud,new,null,1356.881422,None,1356.881422,None,4,1.7727078,1356.881422,None,1.7727078,1358.678941,None,1359.19619,None,1359.19619,None,n,0.3539311,1359.19619,None,0.3539311,,,Oct31Aloud1,68,2022_Oct_31_1534,ProdSingRedoBetween,2021.2.3,59.87357087
,,,,120,0,120,0,,,,,,,,,,,,,,,,,,,,,,1362.564139,None,,,,,,,,,,,,,,,,,collection,116,121,aloud,new,null,1360.07991,None,1360.07991,None,4,1.894217,1360.07991,None,1.894217,1361.998153,None,1362.497807,None,1362.497807,None,f,0.036245,1362.497807,None,0.036245,,,Oct31Aloud1,68,2022_Oct_31_1534,ProdSingRedoBetween,2021.2.3,59.87357087
,,,,121,0,121,0,,,,,,,,,,,,,,,,,,,,,,1365.88142,None,,,,,,,,,,,,,,,,,background,114,122,aloud,new,null,1363.06488,None,1363.06488,None,2,2.1251872,1363.06488,None,2.1251872,1365.21802,None,1365.717638,None,1365.717638,None,n,0.1204933,1365.717638,None,0.1204933,,,Oct31Aloud1,68,2022_Oct_31_1534,ProdSingRedoBetween,2021.2.3,59.87357087
,,,,122,0,122,0,,,,,,,,,,,,,,,,,,,,,,1369.20842,None,,,,,,,,,,,,,,,,,theme,45,123,aloud,old,blue,1366.384752,None,1366.384752,None,5,1.9253163,1366.384752,None,1.9253163,1368.337097,None,1368.841437,None,1368.841437,None,f,0.3409291,1368.841437,None,0.3409291,,,Oct31Aloud1,68,2022_Oct_31_1534,ProdSingRedoBetween,2021.2.3,59.87357087
,,,,123,0,123,0,,,,,,,,,,,,,,,,,,,,,,1373.241695,None,,,,,,,,,,,,,,,,,equipment,17,124,aloud,old,yellow,1369.723609,None,1369.723609,None,6,2.7465911,1369.723609,None,2.7465911,1372.499809,None,1373.008211,None,1373.008211,None,r,0.2058404,1373.008211,None,0.2058404,,,Oct31Aloud1,68,2022_Oct_31_1534,ProdSingRedoBetween,2021.2.3,59.87357087
,,,,124,0,124,0,,,,,,,,,,,,,,,,,,,,,,1380.282068,None,,,,,,,,,,,,,,,,,detective,176,125,aloud,new,null,1373.754387,None,1373.754387,None,3,4.9796879,1373.754387,None,4.9796879,1378.765529,None,1379.28206,None,1379.28206,None,n,0.9720237,1379.28206,None,0.9720237,,,Oct31Aloud1,68,2022_Oct_31_1534,ProdSingRedoBetween,2021.2.3,59.87357087
,,,,125,0,125,0,,,,,,,,,,,,,,,,,,,,,,1390.29205,None,,,,,,,,,,,,,,,,,government,106,126,aloud,new,null,1380.792788,None,1380.792788,None,1,7.3571981,1380.792788,None,7.3571981,1388.175344,None,1388.694996,None,1388.694996,None,n,1.5750913,1388.694996,None,1.5750913,,,Oct31Aloud1,68,2022_Oct_31_1534,ProdSingRedoBetween,2021.2.3,59.87357087
,,,,126,0,126,0,,,,,,,,,,,,,,,,,,,,,,1393.895603,None,,,,,,,,,,,,,,,,,shear,102,127,aloud,new,null,1390.80084,None,1390.80084,None,1,2.3572681,1390.80084,None,2.3572681,1393.179551,None,1393.678941,None,1393.678941,None,n,0.1991386,1393.678941,None,0.1991386,,,Oct31Aloud1,68,2022_Oct_31_1534,ProdSingRedoBetween,2021.2.3,59.87357087
,,,,127,0,127,0,,,,,,,,,,,,,,,,,,,,,,1397.515952,None,,,,,,,,,,,,,,,,,edition,31,128,aloud,old,blue,1394.397412,None,1394.397412,None,2,1.4565982,1394.397412,None,1.4565982,1395.881588,None,1396.386404,None,1396.386404,None,n,1.1076702,1396.386404,None,1.1076702,,,Oct31Aloud1,68,2022_Oct_31_1534,ProdSingRedoBetween,2021.2.3,59.87357087
,,,,128,0,128,0,,,,,,,,,,,,,,,,,,,,,,1400.054972,None,,,,,,,,,,,,,,,,,childhood,65,129,aloud,old,red,1398.016509,None,1398.016509,None,2,1.2935801,1398.016509,None,1.2935801,1399.335201,None,1399.839447,None,1399.839447,None,n,0.1908279,1399.839447,None,0.1908279,,,Oct31Aloud1,68,2022_Oct_31_1534,ProdSingRedoBetween,2021.2.3,59.87357087
,,,,129,0,129,0,,,,,,,,,,,,,,,,,,,,,,1402.754245,None,,,,,,,,,,,,,,,,,stand,76,130,aloud,old,red,1400.576662,None,1400.576662,None,3,1.5653996,1400.576662,None,1.5653996,1402.171623,None,1402.674624,None,1402.674624,None,n,0.0515261,1402.674624,None,0.0515261,,,Oct31Aloud1,68,2022_Oct_31_1534,ProdSingRedoBetween,2021.2.3,59.87357087
,,,,130,0,130,0,,,,,,,,,,,,,,,,,,,,,,1404.906611,None,,,,,,,,,,,,,,,,,under,160,131,aloud,new,null,1403.271458,None,1403.271458,None,2,0.8945971,1403.271458,None,0.8945971,1404.192301,None,1404.70655,None,1404.70655,None,n,0.1795999,1404.70655,None,0.1795999,,,Oct31Aloud1,68,2022_Oct_31_1534,ProdSingRedoBetween,2021.2.3,59.87357087
,,,,131,0,131,0,,,,,,,,,,,,,,,,,,,,,,1408.41008,None,,,,,,,,,,,,,,,,,industry,172,132,aloud,new,null,1405.418341,None,1405.418341,None,1,1.2677381,1405.418341,None,1.2677381,1406.71434,None,1407.22808,None,1407.22808,None,n,1.1539492,1407.22808,None,1.1539492,,,Oct31Aloud1,68,2022_Oct_31_1534,ProdSingRedoBetween,2021.2.3,59.87357087
,,,,132,0,132,0,,,,,,,,,,,,,,,,,,,,,,1413.264846,None,,,,,,,,,,,,,,,,,guard,165,133,aloud,new,null,1408.916641,None,1408.916641,None,2,3.5613674,1408.916641,None,3.5613674,1412.497342,None,1412.998051,None,1412.998051,None,n,0.2480352,1412.998051,None,0.2480352,,,Oct31Aloud1,68,2022_Oct_31_1534,ProdSingRedoBetween,2021.2.3,59.87357087
,,,,133,0,133,0,,,,,,,,,,,,,,,,,,,,,,1418.5533,None,,,,,,,,,,,,,,,,,incident,93,134,aloud,new,null,1413.765418,None,1413.765418,None,4,4.1605504,1413.765418,None,4.1605504,1417.955076,None,1418.473147,None,1418.473147,None,f,0.0529023,1418.473147,None,0.0529023,,,Oct31Aloud1,68,2022_Oct_31_1534,ProdSingRedoBetween,2021.2.3,59.87357087
,,,,134,0,134,0,,,,,,,,,,,,,,,,,,,,,,1421.923348,None,,,,,,,,,,,,,,,,,music,177,135,aloud,new,null,1419.064917,None,1419.064917,None,2,2.1252553,1419.064917,None,2.1252553,1421.21175,None,1421.723552,None,1421.723552,None,n,0.1784631,1421.723552,None,0.1784631,,,Oct31Aloud1,68,2022_Oct_31_1534,ProdSingRedoBetween,2021.2.3,59.87357087
,,,,135,0,135,0,,,,,,,,,,,,,,,,,,,,,,1425.72737,None,,,,,,,,,,,,,,,,,scene,94,136,aloud,new,null,1422.429939,None,1422.429939,None,2,2.2881872,1422.429939,None,2.2881872,1424.744322,None,1425.243656,None,1425.243656,None,n,0.4663386,1425.243656,None,0.4663386,,,Oct31Aloud1,68,2022_Oct_31_1534,ProdSingRedoBetween,2021.2.3,59.87357087
,,,,136,0,136,0,,,,,,,,,,,,,,,,,,,,,,1443.344846,None,,,,,,,,,,,,,,,,,reach,19,137,aloud,old,yellow,1426.233989,None,1426.233989,None,1,16.1479896,1426.233989,None,16.1479896,1442.410857,None,1442.91728,None,1442.91728,None,n,0.4087716,1442.91728,None,0.4087716,,,Oct31Aloud1,68,2022_Oct_31_1534,ProdSingRedoBetween,2021.2.3,59.87357087
,,,,137,0,137,0,,,,,,,,,,,,,,,,,,,,,,1455.87411,None,,,,,,,,,,,,,,,,,election,37,138,aloud,old,blue,1443.845511,None,1443.845511,None,3,10.2804606,1443.845511,None,10.2804606,1454.156243,None,1454.661728,None,1454.661728,None,f,1.1842101,1454.661728,None,1.1842101,,,Oct31Aloud1,68,2022_Oct_31_1534,ProdSingRedoBetween,2021.2.3,59.87357087
,,,,138,0,138,0,,,,,,,,,,,,,,,,,,,,,,1460.362059,None,,,,,,,,,,,,,,,,,right,99,139,aloud,new,null,1456.375098,None,1456.375098,None,4,3.334979,1456.375098,None,3.334979,1459.733818,None,1460.247533,None,1460.247533,None,n,0.0944493,1460.247533,None,0.0944493,,,Oct31Aloud1,68,2022_Oct_31_1534,ProdSingRedoBetween,2021.2.3,59.87357087
,,,,139,0,139,0,,,,,,,,,,,,,,,,,,,,,,1463.314821,None,,,,,,,,,,,,,,,,,junior,100,140,aloud,new,null,1460.871757,None,1460.871757,None,2,1.6542757,1460.871757,None,1.6542757,1462.553462,None,1463.064728,None,1463.064728,None,n,0.22927,1463.064728,None,0.22927,,,Oct31Aloud1,68,2022_Oct_31_1534,ProdSingRedoBetween,2021.2.3,59.87357087
,,,,140,0,140,0,,,,,,,,,,,,,,,,,,,,,,1465.750679,None,,,,,,,,,,,,,,,,,problem,120,141,aloud,new,null,1463.824401,None,1463.824401,None,1,1.2615351,1463.824401,None,1.2615351,1465.117572,None,1465.620898,None,1465.620898,None,n,0.1129967,1465.620898,None,0.1129967,,,Oct31Aloud1,68,2022_Oct_31_1534,ProdSingRedoBetween,2021.2.3,59.87357087
,,,,141,0,141,0,,,,,,,,,,,,,,,,,,,,,,1469.420773,None,,,,,,,,,,,,,,,,,session,147,142,aloud,new,null,1466.259263,None,1466.259263,None,5,1.8426619,1466.259263,None,1.8426619,1468.120883,None,1468.626102,None,1468.626102,None,f,0.7798215,1468.626102,None,0.7798215,,,Oct31Aloud1,68,2022_Oct_31_1534,ProdSingRedoBetween,2021.2.3,59.87357087
,,,,142,0,142,0,,,,,,,,,,,,,,,,,,,,,,1471.973558,None,,,,,,,,,,,,,,,,,vision,144,143,aloud,new,null,1469.935191,None,1469.935191,None,3,1.4307437,1469.935191,None,1.4307437,1471.391174,None,1471.906928,None,1471.906928,None,n,0.0430111,1471.906928,None,0.0430111,,,Oct31Aloud1,68,2022_Oct_31_1534,ProdSingRedoBetween,2021.2.3,59.87357087
,,,,143,0,143,0,,,,,,,,,,,,,,,,,,,,,,1475.443605,None,,,,,,,,,,,,,,,,,reading,1,144,aloud,old,yellow,1472.481776,None,1472.481776,None,2,2.3163052,1472.481776,None,2.3163052,1474.832849,None,1475.345983,None,1475.345983,None,n,0.0679503,1475.345983,None,0.0679503,,,Oct31Aloud1,68,2022_Oct_31_1534,ProdSingRedoBetween,2021.2.3,59.87357087
,,,,144,0,144,0,,,,,,,,,,,,,,,,,,,,,,1477.88239,None,,,,,,,,,,,,,,,,,drove,104,145,aloud,new,null,1475.955301,None,1475.955301,None,2,1.3226433,1475.955301,None,1.3226433,1477.296758,None,1477.804666,None,1477.804666,None,n,0.057553,1477.804666,None,0.057553,,,Oct31Aloud1,68,2022_Oct_31_1534,ProdSingRedoBetween,2021.2.3,59.87357087
,,,,145,0,145,0,,,,,,,,,,,,,,,,,,,,,,1486.037485,None,,,,,,,,,,,,,,,,,interior,112,146,aloud,new,null,1478.398583,None,1478.398583,None,5,2.9194633,1478.398583,None,2.9194633,1481.33383,None,1481.83585,None,1481.83585,None,f,4.1780473,1481.83585,None,4.1780473,,,Oct31Aloud1,68,2022_Oct_31_1534,ProdSingRedoBetween,2021.2.3,59.87357087
,,,,146,0,146,0,,,,,,,,,,,,,,,,,,,,,,1489.140634,None,,,,,,,,,,,,,,,,,space,161,147,aloud,new,null,1486.538823,None,1486.538823,None,2,2.0033184,1486.538823,None,2.0033184,1488.587755,None,1489.096704,None,1489.096704,None,n,0.013266,1489.096704,None,0.013266,,,Oct31Aloud1,68,2022_Oct_31_1534,ProdSingRedoBetween,2021.2.3,59.87357087
,,,,147,0,147,0,,,,,,,,,,,,,,,,,,,,,,1493.077885,None,,,,,,,,,,,,,,,,,balance,164,148,aloud,new,null,1489.651046,None,1489.651046,None,2,2.4668286,1489.651046,None,2.4668286,1492.144566,None,1492.645048,None,1492.645048,None,n,0.416825,1492.645048,None,0.416825,,,Oct31Aloud1,68,2022_Oct_31_1534,ProdSingRedoBetween,2021.2.3,59.87357087
,,,,148,0,148,0,,,,,,,,,,,,,,,,,,,,,,1497.498726,None,,,,,,,,,,,,,,,,,threat,69,149,aloud,old,red,1493.578469,None,1493.578469,None,5,1.9794239,1493.578469,None,1.9794239,1495.58149,None,1496.086907,None,1496.086907,None,f,1.3831358,1496.086907,None,1.3831358,,,Oct31Aloud1,68,2022_Oct_31_1534,ProdSingRedoBetween,2021.2.3,59.87357087
,,,,149,0,149,0,,,,,,,,,,,,,,,,,,,,,,1501.486235,None,,,,,,,,,,,,,,,,,measure,12,150,aloud,old,yellow,1498.002523,None,1498.002523,None,5,1.5555013,1498.002523,None,1.5555013,1499.585698,None,1500.091279,None,1500.091279,None,f,1.3785066,1500.091279,None,1.3785066,,,Oct31Aloud1,68,2022_Oct_31_1534,ProdSingRedoBetween,2021.2.3,59.87357087
,,,,150,0,150,0,,,,,,,,,,,,,,,,,,,,,,1508.042812,None,,,,,,,,,,,,,,,,,department,56,151,aloud,old,blue,1501.996867,None,1501.996867,None,5,4.2010215,1501.996867,None,4.2010215,1506.227406,None,1506.74559,None,1506.74559,None,f,1.2762769,1506.74559,None,1.2762769,,,Oct31Aloud1,68,2022_Oct_31_1534,ProdSingRedoBetween,2021.2.3,59.87357087
,,,,151,0,151,0,,,,,,,,,,,,,,,,,,,,,,1513.481304,None,,,,,,,,,,,,,,,,,capital,138,152,aloud,new,null,1508.55495,None,1508.55495,None,4,3.9869344,1508.55495,None,3.9869344,1512.564855,None,1513.064566,None,1513.064566,None,f,0.3892505,1513.064566,None,0.3892505,,,Oct31Aloud1,68,2022_Oct_31_1534,ProdSingRedoBetween,2021.2.3,59.87357087
,,,,152,0,152,0,,,,,,,,,,,,,,,,,,,,,,1518.536615,None,,,,,,,,,,,,,,,,,author,6,153,aloud,old,yellow,1513.98734,None,1513.98734,None,6,3.5544373,1513.98734,None,3.5544373,1517.568941,None,1518.079436,None,1518.079436,None,f,0.4304534,1518.079436,None,0.4304534,,,Oct31Aloud1,68,2022_Oct_31_1534,ProdSingRedoBetween,2021.2.3,59.87357087
,,,,153,0,153,0,,,,,,,,,,,,,,,,,,,,,,1522.423828,None,,,,,,,,,,,,,,,,,science,140,154,aloud,new,null,1519.048147,None,1519.048147,None,4,2.4938085,1519.048147,None,2.4938085,1521.574217,None,1522.077661,None,1522.077661,None,n,0.3201788,1522.077661,None,0.3201788,,,Oct31Aloud1,68,2022_Oct_31_1534,ProdSingRedoBetween,2021.2.3,59.87357087
,,,,154,0,154,0,,,,,,,,,,,,,,,,,,,,,,1529.749546,None,,,,,,,,,,,,,,,,,position,145,155,aloud,new,null,1522.939982,None,1522.939982,None,4,6.1538988,1522.939982,None,6.1538988,1529.117848,None,1529.637057,None,1529.637057,None,f,0.088984,1529.637057,None,0.088984,,,Oct31Aloud1,68,2022_Oct_31_1534,ProdSingRedoBetween,2021.2.3,59.87357087
,,,,155,0,155,0,,,,,,,,,,,,,,,,,,,,,,1532.253705,None,,,,,,,,,,,,,,,,,dance,39,156,aloud,old,blue,1530.265031,None,1530.265031,None,2,1.3407502,1530.265031,None,1.3407502,1531.633441,None,1532.1363,None,1532.1363,None,n,0.0857285,1532.1363,None,0.0857285,,,Oct31Aloud1,68,2022_Oct_31_1534,ProdSingRedoBetween,2021.2.3,59.87357087
,,,,156,0,156,0,,,,,,,,,,,,,,,,,,,,,,1535.653432,None,,,,,,,,,,,,,,,,,rural,103,157,aloud,new,null,1532.777755,None,1532.777755,None,2,1.9001261,1532.777755,None,1.9001261,1534.702621,None,1535.207148,None,1535.207148,None,n,0.4227083,1535.207148,None,0.4227083,,,Oct31Aloud1,68,2022_Oct_31_1534,ProdSingRedoBetween,2021.2.3,59.87357087
,,,,157,0,157,0,,,,,,,,,,,,,,,,,,,,,,1538.706617,None,,,,,,,,,,,,,,,,,pressure,82,158,aloud,old,red,1536.167768,None,1536.167768,None,2,1.9422583,1536.167768,None,1.9422583,1538.146162,None,1538.659922,None,1538.659922,None,n,0.0179418,1538.659922,None,0.0179418,,,Oct31Aloud1,68,2022_Oct_31_1534,ProdSingRedoBetween,2021.2.3,59.87357087
,,,,158,0,158,0,,,,,,,,,,,,,,,,,,,,,,1541.536497,None,,,,,,,,,,,,,,,,,executive,9,159,aloud,old,yellow,1539.211267,None,1539.211267,None,2,1.6905499,1539.211267,None,1.6905499,1540.927941,None,1541.447761,None,1541.447761,None,n,0.0620774,1541.447761,None,0.0620774,,,Oct31Aloud1,68,2022_Oct_31_1534,ProdSingRedoBetween,2021.2.3,59.87357087
,,,,159,0,159,0,,,,,,,,,,,,,,,,,,,,,,1544.362142,None,,,,,,,,,,,,,,,,,cross,156,160,aloud,new,null,1542.065915,None,1542.065915,None,1,1.5960221,1542.065915,None,1.5960221,1543.689864,None,1544.20133,None,1544.20133,None,n,0.1325374,1544.20133,None,0.1325374,,,Oct31Aloud1,68,2022_Oct_31_1534,ProdSingRedoBetween,2021.2.3,59.87357087
,,,,160,0,160,0,,,,,,,,,,,,,,,,,,,,,,1547.632349,None,,,,,,,,,,,,,,,,,throw,2,161,aloud,old,yellow,1544.864223,None,1544.864223,None,3,2.0615796,1544.864223,None,2.0615796,1546.949956,None,1547.468277,None,1547.468277,None,n,0.1375801,1547.468277,None,0.1375801,,,Oct31Aloud1,68,2022_Oct_31_1534,ProdSingRedoBetween,2021.2.3,59.87357087
,,,,161,0,161,0,,,,,,,,,,,,,,,,,,,,,,1553.237864,None,,,,,,,,,,,,,,,,,benefit,121,162,aloud,new,null,1548.150759,None,1548.150759,None,4,3.5909743,1548.150759,None,3.5909743,1551.770516,None,1552.276807,None,1552.276807,None,n,0.9370424,1552.276807,None,0.9370424,,,Oct31Aloud1,68,2022_Oct_31_1534,ProdSingRedoBetween,2021.2.3,59.87357087
,,,,162,0,162,0,,,,,,,,,,,,,,,,,,,,,,1556.574545,None,,,,,,,,,,,,,,,,,impact,139,163,aloud,new,null,1553.747962,None,1553.747962,None,1,1.786031,1553.747962,None,1.786031,1555.563905,None,1556.074126,None,1556.074126,None,n,0.4836822,1556.074126,None,0.4836822,,,Oct31Aloud1,68,2022_Oct_31_1534,ProdSingRedoBetween,2021.2.3,59.87357087
,,,,163,0,163,0,,,,,,,,,,,,,,,,,,,,,,1559.978001,None,,,,,,,,,,,,,,,,,broad,44,164,aloud,old,blue,1557.077612,None,1557.077612,None,6,1.7921619,1557.077612,None,1.7921619,1558.894354,None,1559.399423,None,1559.399423,None,f,0.5583595,1559.399423,None,0.5583595,,,Oct31Aloud1,68,2022_Oct_31_1534,ProdSingRedoBetween,2021.2.3,59.87357087
,,,,164,0,164,0,,,,,,,,,,,,,,,,,,,,,,1563.331227,None,,,,,,,,,,,,,,,,,clean,60,165,aloud,old,red,1560.487166,None,1560.487166,None,2,1.3986431,1560.487166,None,1.3986431,1561.919613,None,1562.431568,None,1562.431568,None,n,0.8782045,1562.431568,None,0.8782045,,,Oct31Aloud1,68,2022_Oct_31_1534,ProdSingRedoBetween,2021.2.3,59.87357087
,,,,165,0,165,0,,,,,,,,,,,,,,,,,,,,,,1566.985,None,,,,,,,,,,,,,,,,,household,52,166,aloud,old,blue,1563.831937,None,1563.831937,None,1,2.3978973,1563.831937,None,2.3978973,1566.255989,None,1566.768202,None,1566.768202,None,n,0.1895301,1566.768202,None,0.1895301,,,Oct31Aloud1,68,2022_Oct_31_1534,ProdSingRedoBetween,2021.2.3,59.87357087
,,,,166,0,166,0,,,,,,,,,,,,,,,,,,,,,,1569.929547,None,,,,,,,,,,,,,,,,,degree,173,167,aloud,new,null,1567.492899,None,1567.492899,None,2,1.4010121,1567.492899,None,1.4010121,1568.921735,None,1569.425788,None,1569.425788,None,n,0.4682694,1569.425788,None,0.4682694,,,Oct31Aloud1,68,2022_Oct_31_1534,ProdSingRedoBetween,2021.2.3,59.87357087
,,,,167,0,167,0,,,,,,,,,,,,,,,,,,,,,,1572.573687,None,,,,,,,,,,,,,,,,,afternoon,68,168,aloud,old,red,1570.449618,None,1570.449618,None,1,1.508235,1570.449618,None,1.508235,1571.976261,None,1572.490515,None,1572.490515,None,n,0.0671445,1572.490515,None,0.0671445,,,Oct31Aloud1,68,2022_Oct_31_1534,ProdSingRedoBetween,2021.2.3,59.87357087
,,,,168,0,168,0,,,,,,,,,,,,,,,,,,,,,,1575.893794,None,,,,,,,,,,,,,,,,,length,74,169,aloud,old,red,1573.084548,None,1573.084548,None,6,2.1611899,1573.084548,None,2.1611899,1575.278917,None,1575.799415,None,1575.799415,None,r,0.070357,1575.799415,None,0.070357,,,Oct31Aloud1,68,2022_Oct_31_1534,ProdSingRedoBetween,2021.2.3,59.87357087
,,,,169,0,169,0,,,,,,,,,,,,,,,,,,,,,,1584.268881,None,,,,,,,,,,,,,,,,,trial,7,170,aloud,old,yellow,1576.406605,None,1576.406605,None,4,7.1270587,1576.406605,None,7.1270587,1583.551464,None,1584.056153,None,1584.056153,None,n,0.1816876,1584.056153,None,0.1816876,,,Oct31Aloud1,68,2022_Oct_31_1534,ProdSingRedoBetween,2021.2.3,59.87357087
,,,,170,0,170,0,,,,,,,,,,,,,,,,,,,,,,1587.321899,None,,,,,,,,,,,,,,,,,enemy,170,171,aloud,new,null,1584.778451,None,1584.778451,None,1,1.835281,1584.778451,None,1.835281,1586.638943,None,1587.140977,None,1587.140977,None,n,0.1607888,1587.140977,None,0.1607888,,,Oct31Aloud1,68,2022_Oct_31_1534,ProdSingRedoBetween,2021.2.3,59.87357087
,,,,171,0,171,0,,,,,,,,,,,,,,,,,,,,,,1590.057858,None,,,,,,,,,,,,,,,,,addition,171,172,aloud,new,null,1587.835974,None,1587.835974,None,1,1.4977604,1587.835974,None,1.4977604,1589.35902,None,1589.879737,None,1589.879737,None,n,0.1580817,1589.879737,None,0.1580817,,,Oct31Aloud1,68,2022_Oct_31_1534,ProdSingRedoBetween,2021.2.3,59.87357087
,,,,172,0,172,0,,,,,,,,,,,,,,,,,,,,,,1593.644833,None,,,,,,,,,,,,,,,,,profession,154,173,aloud,new,null,1590.561517,None,1590.561517,None,2,2.4202826,1590.561517,None,2.4202826,1593.011802,None,1593.518189,None,1593.518189,None,n,0.0956901,1593.518189,None,0.0956901,,,Oct31Aloud1,68,2022_Oct_31_1534,ProdSingRedoBetween,2021.2.3,59.87357087
,,,,173,0,173,0,,,,,,,,,,,,,,,,,,,,,,1596.564421,None,,,,,,,,,,,,,,,,,resistance,109,174,aloud,new,null,1594.158275,None,1594.158275,None,1,1.7194791,1594.158275,None,1.7194791,1595.900506,None,1596.414353,None,1596.414353,None,n,0.1193961,1596.414353,None,0.1193961,,,Oct31Aloud1,68,2022_Oct_31_1534,ProdSingRedoBetween,2021.2.3,59.87357087
,,,,174,0,174,0,,,,,,,,,,,,,,,,,,,,,,1599.46732,None,,,,,,,,,,,,,,,,,provision,25,175,aloud,old,yellow,1597.06645,None,1597.06645,None,3,1.8272688,1597.06645,None,1.8272688,1598.920129,None,1599.439538,None,1599.439538,None,n,0.0062788,1599.439538,None,0.0062788,,,Oct31Aloud1,68,2022_Oct_31_1534,ProdSingRedoBetween,2021.2.3,59.87357087
,,,,175,0,175,0,,,,,,,,,,,,,,,,,,,,,,1602.637022,None,,,,,,,,,,,,,,,,,health,167,176,aloud,new,null,1599.973902,None,1599.973902,None,1,1.9838072,1599.973902,None,1.9838072,1601.988005,None,1602.503977,None,1602.503977,None,n,0.1176981,1602.503977,None,0.1176981,,,Oct31Aloud1,68,2022_Oct_31_1534,ProdSingRedoBetween,2021.2.3,59.87357087
,,,,176,0,176,0,,,,,,,,,,,,,,,,,,,,,,1605.106262,None,,,,,,,,,,,,,,,,,hunger,15,177,aloud,old,yellow,1603.144387,None,1603.144387,None,1,1.1092125,1603.144387,None,1.1092125,1604.272773,None,1604.774586,None,1604.774586,None,n,0.3111501,1604.774586,None,0.3111501,,,Oct31Aloud1,68,2022_Oct_31_1534,ProdSingRedoBetween,2021.2.3,59.87357087
,,,,177,0,177,0,,,,,,,,,,,,,,,,,,,,,,1608.211739,None,,,,,,,,,,,,,,,,,general,141,178,aloud,new,null,1605.615803,None,1605.615803,None,1,1.8539148,1605.615803,None,1.8539148,1607.493767,None,1608.017699,None,1608.017699,None,n,0.1640197,1608.017699,None,0.1640197,,,Oct31Aloud1,68,2022_Oct_31_1534,ProdSingRedoBetween,2021.2.3,59.87357087
,,,,178,0,178,0,,,,,,,,,,,,,,,,,,,,,,1610.561457,None,,,,,,,,,,,,,,,,,swift,157,179,aloud,new,null,1608.730021,None,1608.730021,None,1,1.195762,1608.730021,None,1.195762,1609.950725,None,1610.466264,None,1610.466264,None,n,0.0673773,1610.466264,None,0.0673773,,,Oct31Aloud1,68,2022_Oct_31_1534,ProdSingRedoBetween,2021.2.3,59.87357087
,,,,179,0,179,0,,,,,,,,,,,,,,,,,,,,,,1613.117011,None,,,,,,,,,,,,,,,,,union,134,180,aloud,new,null,1611.068091,None,1611.068091,None,2,1.3535914,1611.068091,None,1.3535914,1612.448647,None,1612.970451,None,1612.970451,None,n,0.1153443,1612.970451,None,0.1153443,,,Oct31Aloud1,68,2022_Oct_31_1534,ProdSingRedoBetween,2021.2.3,59.87357087
,,,,,,,,,,,,,,,,,,,,,,,,,,,,,,,,,,,,,,,,,,,,,,,,,,,,,,,,,,,,,,,,,,,,,,,,,1613.631819,None,,,,,,
