StudyLoop.thisRepN,StudyLoop.thisTrialN,StudyLoop.thisN,StudyLoop.thisIndex,TestLoop.thisRepN,TestLoop.thisTrialN,TestLoop.thisN,TestLoop.thisIndex,textCondition.started,textCondition.stopped,keyCondition.keys,keyCondition.rt,keyCondition.started,keyCondition.stopped,Condition,textWelcome.started,textWelcome.stopped,keyWelcome.keys,keyWelcome.rt,keyWelcome.started,keyWelcome.stopped,textAloud.started,textAloud.stopped,textSilent.started,textSilent.stopped,textSing.started,textSing.stopped,conditional_text.started,conditional_text.stopped,textBlank500.started,textBlank500.stopped,study_word,study_num,study_order,study_type,word_color,textStudy.started,textStudy.stopped,keyStudy.keys,keyStudy.started,keyStudy.stopped,textTestInstructions.started,textTestInstructions.stopped,key_resp_3.keys,key_resp_3.rt,key_resp_3.started,key_resp_3.stopped,test_word,test_num,test_order,test_condition,old_new_test,test_word_original_color,textConf.started,textConf.stopped,textConfScale.started,textConfScale.stopped,keyConf.keys,keyConf.rt,keyConf.started,keyConf.stopped,confidence response time,textTestBlank.started,textTestBlank.stopped,textRKN.started,textRKN.stopped,textRKNScale.started,textRKNScale.stopped,keyRKN.keys,keyRKN.rt,keyRKN.started,keyRKN.stopped,rkn response time,textEnd.started,textEnd.stopped,participant,session,date,expName,psychopyVersion,frameRate
,,,,,,,,89.8571912,None,b,1224.789825,89.8571912,None,,,,,,,,,,,,,,,,,,,,,,,,,,,,,,,,,,,,,,,,,,,,,,,,,,,,,,,,,,,,,,July22Aloud2,5,2022_Jul_22_1407,ProdSingRedoBetween,2021.2.3,60.11266316
,,,,,,,,,,,,,,AloudTest,1314.731884,None,space,12.7467646,1314.731884,None,,,,,,,,,,,,,,,,,,,,,,,,,,,,,,,,,,,,,,,,,,,,,,,,,,,,,,,July22Aloud2,5,2022_Jul_22_1407,ProdSingRedoBetween,2021.2.3,60.11266316
0,0,0,0,,,,,,,,,,,,,,,,,,1314.731884,None,1314.731884,None,1314.731884,None,1314.731884,None,1330.025498,None,religion,53,1,aloud,blue,1328.020471,None,None,1328.020471,None,,,,,,,,,,,,,,,,,,,,,,,,,,,,,,,,,,,July22Aloud2,5,2022_Jul_22_1407,ProdSingRedoBetween,2021.2.3,60.11266316
1,0,1,0,,,,,,,,,,,,,,,,,,,,,,,,,,1332.555694,None,character,80,2,aloud,red,1330.547933,None,None,1330.547933,None,,,,,,,,,,,,,,,,,,,,,,,,,,,,,,,,,,,July22Aloud2,5,2022_Jul_22_1407,ProdSingRedoBetween,2021.2.3,60.11266316
2,0,2,0,,,,,,,,,,,,,,,,,,,,,,,,,,1335.058464,None,detective,51,3,aloud,blue,1333.056105,None,None,1333.056105,None,,,,,,,,,,,,,,,,,,,,,,,,,,,,,,,,,,,July22Aloud2,5,2022_Jul_22_1407,ProdSingRedoBetween,2021.2.3,60.11266316
3,0,3,0,,,,,,,,,,,,,,,,,,,,,,,,,,1337.577653,None,universal,68,4,aloud,red,1335.583081,None,None,1335.583081,None,,,,,,,,,,,,,,,,,,,,,,,,,,,,,,,,,,,July22Aloud2,5,2022_Jul_22_1407,ProdSingRedoBetween,2021.2.3,60.11266316
4,0,4,0,,,,,,,,,,,,,,,,,,,,,,,,,,1340.096828,None,skill,89,5,aloud,red,1338.09069,None,None,1338.09069,None,,,,,,,,,,,,,,,,,,,,,,,,,,,,,,,,,,,July22Aloud2,5,2022_Jul_22_1407,ProdSingRedoBetween,2021.2.3,60.11266316
5,0,5,0,,,,,,,,,,,,,,,,,,,,,,,,,,1342.615981,None,hunger,6,6,aloud,yellow,1340.604424,None,None,1340.604424,None,,,,,,,,,,,,,,,,,,,,,,,,,,,,,,,,,,,July22Aloud2,5,2022_Jul_22_1407,ProdSingRedoBetween,2021.2.3,60.11266316
6,0,6,0,,,,,,,,,,,,,,,,,,,,,,,,,,1345.135218,None,sunset,44,7,aloud,blue,1343.126496,None,None,1343.126496,None,,,,,,,,,,,,,,,,,,,,,,,,,,,,,,,,,,,July22Aloud2,5,2022_Jul_22_1407,ProdSingRedoBetween,2021.2.3,60.11266316
7,0,7,0,,,,,,,,,,,,,,,,,,,,,,,,,,1347.654438,None,rural,4,8,aloud,yellow,1345.643192,None,None,1345.643192,None,,,,,,,,,,,,,,,,,,,,,,,,,,,,,,,,,,,July22Aloud2,5,2022_Jul_22_1407,ProdSingRedoBetween,2021.2.3,60.11266316
8,0,8,0,,,,,,,,,,,,,,,,,,,,,,,,,,1350.173575,None,master,33,9,aloud,blue,1348.164757,None,None,1348.164757,None,,,,,,,,,,,,,,,,,,,,,,,,,,,,,,,,,,,July22Aloud2,5,2022_Jul_22_1407,ProdSingRedoBetween,2021.2.3,60.11266316
9,0,9,0,,,,,,,,,,,,,,,,,,,,,,,,,,1352.692574,None,shape,36,10,aloud,blue,1350.68459,None,None,1350.68459,None,,,,,,,,,,,,,,,,,,,,,,,,,,,,,,,,,,,July22Aloud2,5,2022_Jul_22_1407,ProdSingRedoBetween,2021.2.3,60.11266316
10,0,10,0,,,,,,,,,,,,,,,,,,,,,,,,,,1355.211847,None,century,29,11,aloud,blue,1353.202159,None,None,1353.202159,None,,,,,,,,,,,,,,,,,,,,,,,,,,,,,,,,,,,July22Aloud2,5,2022_Jul_22_1407,ProdSingRedoBetween,2021.2.3,60.11266316
11,0,11,0,,,,,,,,,,,,,,,,,,,,,,,,,,1357.730857,None,theme,24,12,aloud,yellow,1355.721773,None,None,1355.721773,None,,,,,,,,,,,,,,,,,,,,,,,,,,,,,,,,,,,July22Aloud2,5,2022_Jul_22_1407,ProdSingRedoBetween,2021.2.3,60.11266316
12,0,12,0,,,,,,,,,,,,,,,,,,,,,,,,,,1360.250214,None,tough,50,13,aloud,blue,1358.242601,None,None,1358.242601,None,,,,,,,,,,,,,,,,,,,,,,,,,,,,,,,,,,,July22Aloud2,5,2022_Jul_22_1407,ProdSingRedoBetween,2021.2.3,60.11266316
13,0,13,0,,,,,,,,,,,,,,,,,,,,,,,,,,1362.769436,None,discussion,12,14,aloud,yellow,1360.759598,None,None,1360.759598,None,,,,,,,,,,,,,,,,,,,,,,,,,,,,,,,,,,,July22Aloud2,5,2022_Jul_22_1407,ProdSingRedoBetween,2021.2.3,60.11266316
14,0,14,0,,,,,,,,,,,,,,,,,,,,,,,,,,1365.288614,None,safety,83,15,aloud,red,1363.279414,None,None,1363.279414,None,,,,,,,,,,,,,,,,,,,,,,,,,,,,,,,,,,,July22Aloud2,5,2022_Jul_22_1407,ProdSingRedoBetween,2021.2.3,60.11266316
15,0,15,0,,,,,,,,,,,,,,,,,,,,,,,,,,1367.807823,None,season,27,16,aloud,yellow,1365.796345,None,None,1365.796345,None,,,,,,,,,,,,,,,,,,,,,,,,,,,,,,,,,,,July22Aloud2,5,2022_Jul_22_1407,ProdSingRedoBetween,2021.2.3,60.11266316
16,0,16,0,,,,,,,,,,,,,,,,,,,,,,,,,,1370.31034,None,grade,76,17,aloud,red,1368.308148,None,None,1368.308148,None,,,,,,,,,,,,,,,,,,,,,,,,,,,,,,,,,,,July22Aloud2,5,2022_Jul_22_1407,ProdSingRedoBetween,2021.2.3,60.11266316
17,0,17,0,,,,,,,,,,,,,,,,,,,,,,,,,,1372.829542,None,travel,52,18,aloud,blue,1370.823358,None,None,1370.823358,None,,,,,,,,,,,,,,,,,,,,,,,,,,,,,,,,,,,July22Aloud2,5,2022_Jul_22_1407,ProdSingRedoBetween,2021.2.3,60.11266316
18,0,18,0,,,,,,,,,,,,,,,,,,,,,,,,,,1375.348692,None,report,25,19,aloud,yellow,1373.339717,None,None,1373.339717,None,,,,,,,,,,,,,,,,,,,,,,,,,,,,,,,,,,,July22Aloud2,5,2022_Jul_22_1407,ProdSingRedoBetween,2021.2.3,60.11266316
19,0,19,0,,,,,,,,,,,,,,,,,,,,,,,,,,1377.867831,None,brief,10,20,aloud,yellow,1375.857483,None,None,1375.857483,None,,,,,,,,,,,,,,,,,,,,,,,,,,,,,,,,,,,July22Aloud2,5,2022_Jul_22_1407,ProdSingRedoBetween,2021.2.3,60.11266316
20,0,20,0,,,,,,,,,,,,,,,,,,,,,,,,,,1380.38701,None,minute,19,21,aloud,yellow,1378.37609,None,None,1378.37609,None,,,,,,,,,,,,,,,,,,,,,,,,,,,,,,,,,,,July22Aloud2,5,2022_Jul_22_1407,ProdSingRedoBetween,2021.2.3,60.11266316
21,0,21,0,,,,,,,,,,,,,,,,,,,,,,,,,,1382.906236,None,fight,82,22,aloud,red,1380.895437,None,None,1380.895437,None,,,,,,,,,,,,,,,,,,,,,,,,,,,,,,,,,,,July22Aloud2,5,2022_Jul_22_1407,ProdSingRedoBetween,2021.2.3,60.11266316
22,0,22,0,,,,,,,,,,,,,,,,,,,,,,,,,,1385.425392,None,level,32,23,aloud,blue,1383.417344,None,None,1383.417344,None,,,,,,,,,,,,,,,,,,,,,,,,,,,,,,,,,,,July22Aloud2,5,2022_Jul_22_1407,ProdSingRedoBetween,2021.2.3,60.11266316
23,0,23,0,,,,,,,,,,,,,,,,,,,,,,,,,,1387.944583,None,atmosphere,17,24,aloud,yellow,1385.936213,None,None,1385.936213,None,,,,,,,,,,,,,,,,,,,,,,,,,,,,,,,,,,,July22Aloud2,5,2022_Jul_22_1407,ProdSingRedoBetween,2021.2.3,60.11266316
24,0,24,0,,,,,,,,,,,,,,,,,,,,,,,,,,1390.463777,None,birth,42,25,aloud,blue,1388.452099,None,None,1388.452099,None,,,,,,,,,,,,,,,,,,,,,,,,,,,,,,,,,,,July22Aloud2,5,2022_Jul_22_1407,ProdSingRedoBetween,2021.2.3,60.11266316
25,0,25,0,,,,,,,,,,,,,,,,,,,,,,,,,,1392.982957,None,guide,28,26,aloud,yellow,1390.971435,None,None,1390.971435,None,,,,,,,,,,,,,,,,,,,,,,,,,,,,,,,,,,,July22Aloud2,5,2022_Jul_22_1407,ProdSingRedoBetween,2021.2.3,60.11266316
26,0,26,0,,,,,,,,,,,,,,,,,,,,,,,,,,1395.50211,None,strength,39,27,aloud,blue,1393.492836,None,None,1393.492836,None,,,,,,,,,,,,,,,,,,,,,,,,,,,,,,,,,,,July22Aloud2,5,2022_Jul_22_1407,ProdSingRedoBetween,2021.2.3,60.11266316
27,0,27,0,,,,,,,,,,,,,,,,,,,,,,,,,,1398.021288,None,color,73,28,aloud,red,1396.009601,None,None,1396.009601,None,,,,,,,,,,,,,,,,,,,,,,,,,,,,,,,,,,,July22Aloud2,5,2022_Jul_22_1407,ProdSingRedoBetween,2021.2.3,60.11266316
28,0,28,0,,,,,,,,,,,,,,,,,,,,,,,,,,1400.540475,None,quiet,7,29,aloud,yellow,1398.534044,None,None,1398.534044,None,,,,,,,,,,,,,,,,,,,,,,,,,,,,,,,,,,,July22Aloud2,5,2022_Jul_22_1407,ProdSingRedoBetween,2021.2.3,60.11266316
29,0,29,0,,,,,,,,,,,,,,,,,,,,,,,,,,1403.059686,None,story,14,30,aloud,yellow,1401.051316,None,None,1401.051316,None,,,,,,,,,,,,,,,,,,,,,,,,,,,,,,,,,,,July22Aloud2,5,2022_Jul_22_1407,ProdSingRedoBetween,2021.2.3,60.11266316
30,0,30,0,,,,,,,,,,,,,,,,,,,,,,,,,,1405.578887,None,leader,66,31,aloud,red,1403.565874,None,None,1403.565874,None,,,,,,,,,,,,,,,,,,,,,,,,,,,,,,,,,,,July22Aloud2,5,2022_Jul_22_1407,ProdSingRedoBetween,2021.2.3,60.11266316
31,0,31,0,,,,,,,,,,,,,,,,,,,,,,,,,,1408.098109,None,opening,63,32,aloud,red,1406.090031,None,None,1406.090031,None,,,,,,,,,,,,,,,,,,,,,,,,,,,,,,,,,,,July22Aloud2,5,2022_Jul_22_1407,ProdSingRedoBetween,2021.2.3,60.11266316
32,0,32,0,,,,,,,,,,,,,,,,,,,,,,,,,,1410.617218,None,south,54,33,aloud,blue,1408.608002,None,None,1408.608002,None,,,,,,,,,,,,,,,,,,,,,,,,,,,,,,,,,,,July22Aloud2,5,2022_Jul_22_1407,ProdSingRedoBetween,2021.2.3,60.11266316
33,0,33,0,,,,,,,,,,,,,,,,,,,,,,,,,,1413.136433,None,institute,79,34,aloud,red,1411.128539,None,None,1411.128539,None,,,,,,,,,,,,,,,,,,,,,,,,,,,,,,,,,,,July22Aloud2,5,2022_Jul_22_1407,ProdSingRedoBetween,2021.2.3,60.11266316
34,0,34,0,,,,,,,,,,,,,,,,,,,,,,,,,,1415.655556,None,still,1,35,aloud,yellow,1413.644894,None,None,1413.644894,None,,,,,,,,,,,,,,,,,,,,,,,,,,,,,,,,,,,July22Aloud2,5,2022_Jul_22_1407,ProdSingRedoBetween,2021.2.3,60.11266316
35,0,35,0,,,,,,,,,,,,,,,,,,,,,,,,,,1418.174742,None,principal,35,36,aloud,blue,1416.166365,None,None,1416.166365,None,,,,,,,,,,,,,,,,,,,,,,,,,,,,,,,,,,,July22Aloud2,5,2022_Jul_22_1407,ProdSingRedoBetween,2021.2.3,60.11266316
36,0,36,0,,,,,,,,,,,,,,,,,,,,,,,,,,1420.693764,None,exchange,23,37,aloud,yellow,1418.68911,None,None,1418.68911,None,,,,,,,,,,,,,,,,,,,,,,,,,,,,,,,,,,,July22Aloud2,5,2022_Jul_22_1407,ProdSingRedoBetween,2021.2.3,60.11266316
37,0,37,0,,,,,,,,,,,,,,,,,,,,,,,,,,1423.212787,None,addition,72,38,aloud,red,1421.204636,None,None,1421.204636,None,,,,,,,,,,,,,,,,,,,,,,,,,,,,,,,,,,,July22Aloud2,5,2022_Jul_22_1407,ProdSingRedoBetween,2021.2.3,60.11266316
38,0,38,0,,,,,,,,,,,,,,,,,,,,,,,,,,1425.732326,None,power,60,39,aloud,red,1423.732159,None,None,1423.732159,None,,,,,,,,,,,,,,,,,,,,,,,,,,,,,,,,,,,July22Aloud2,5,2022_Jul_22_1407,ProdSingRedoBetween,2021.2.3,60.11266316
39,0,39,0,,,,,,,,,,,,,,,,,,,,,,,,,,1428.251452,None,property,46,40,aloud,blue,1426.243473,None,None,1426.243473,None,,,,,,,,,,,,,,,,,,,,,,,,,,,,,,,,,,,July22Aloud2,5,2022_Jul_22_1407,ProdSingRedoBetween,2021.2.3,60.11266316
40,0,40,0,,,,,,,,,,,,,,,,,,,,,,,,,,1430.770653,None,write,77,41,aloud,red,1428.759124,None,None,1428.759124,None,,,,,,,,,,,,,,,,,,,,,,,,,,,,,,,,,,,July22Aloud2,5,2022_Jul_22_1407,ProdSingRedoBetween,2021.2.3,60.11266316
41,0,41,0,,,,,,,,,,,,,,,,,,,,,,,,,,1433.289833,None,education,37,42,aloud,blue,1431.280409,None,None,1431.280409,None,,,,,,,,,,,,,,,,,,,,,,,,,,,,,,,,,,,July22Aloud2,5,2022_Jul_22_1407,ProdSingRedoBetween,2021.2.3,60.11266316
42,0,42,0,,,,,,,,,,,,,,,,,,,,,,,,,,1435.80902,None,design,15,43,aloud,yellow,1433.799812,None,None,1433.799812,None,,,,,,,,,,,,,,,,,,,,,,,,,,,,,,,,,,,July22Aloud2,5,2022_Jul_22_1407,ProdSingRedoBetween,2021.2.3,60.11266316
43,0,43,0,,,,,,,,,,,,,,,,,,,,,,,,,,1438.328227,None,appearance,85,44,aloud,red,1436.319984,None,None,1436.319984,None,,,,,,,,,,,,,,,,,,,,,,,,,,,,,,,,,,,July22Aloud2,5,2022_Jul_22_1407,ProdSingRedoBetween,2021.2.3,60.11266316
44,0,44,0,,,,,,,,,,,,,,,,,,,,,,,,,,1440.847408,None,business,81,45,aloud,red,1438.839761,None,None,1438.839761,None,,,,,,,,,,,,,,,,,,,,,,,,,,,,,,,,,,,July22Aloud2,5,2022_Jul_22_1407,ProdSingRedoBetween,2021.2.3,60.11266316
45,0,45,0,,,,,,,,,,,,,,,,,,,,,,,,,,1443.366643,None,working,0,46,aloud,yellow,1441.36013,None,None,1441.36013,None,,,,,,,,,,,,,,,,,,,,,,,,,,,,,,,,,,,July22Aloud2,5,2022_Jul_22_1407,ProdSingRedoBetween,2021.2.3,60.11266316
46,0,46,0,,,,,,,,,,,,,,,,,,,,,,,,,,1445.885767,None,citizen,41,47,aloud,blue,1443.882952,None,None,1443.882952,None,,,,,,,,,,,,,,,,,,,,,,,,,,,,,,,,,,,July22Aloud2,5,2022_Jul_22_1407,ProdSingRedoBetween,2021.2.3,60.11266316
47,0,47,0,,,,,,,,,,,,,,,,,,,,,,,,,,1448.404922,None,portion,78,48,aloud,red,1446.395637,None,None,1446.395637,None,,,,,,,,,,,,,,,,,,,,,,,,,,,,,,,,,,,July22Aloud2,5,2022_Jul_22_1407,ProdSingRedoBetween,2021.2.3,60.11266316
48,0,48,0,,,,,,,,,,,,,,,,,,,,,,,,,,1450.924209,None,hearing,16,49,aloud,yellow,1448.911635,None,None,1448.911635,None,,,,,,,,,,,,,,,,,,,,,,,,,,,,,,,,,,,July22Aloud2,5,2022_Jul_22_1407,ProdSingRedoBetween,2021.2.3,60.11266316
49,0,49,0,,,,,,,,,,,,,,,,,,,,,,,,,,1453.442929,None,drove,58,50,aloud,blue,1451.434243,None,None,1451.434243,None,,,,,,,,,,,,,,,,,,,,,,,,,,,,,,,,,,,July22Aloud2,5,2022_Jul_22_1407,ProdSingRedoBetween,2021.2.3,60.11266316
50,0,50,0,,,,,,,,,,,,,,,,,,,,,,,,,,1455.962486,None,running,48,51,aloud,blue,1453.949437,None,None,1453.949437,None,,,,,,,,,,,,,,,,,,,,,,,,,,,,,,,,,,,July22Aloud2,5,2022_Jul_22_1407,ProdSingRedoBetween,2021.2.3,60.11266316
51,0,51,0,,,,,,,,,,,,,,,,,,,,,,,,,,1458.481691,None,series,31,52,aloud,blue,1456.472053,None,None,1456.472053,None,,,,,,,,,,,,,,,,,,,,,,,,,,,,,,,,,,,July22Aloud2,5,2022_Jul_22_1407,ProdSingRedoBetween,2021.2.3,60.11266316
52,0,52,0,,,,,,,,,,,,,,,,,,,,,,,,,,1461.00083,None,motion,88,53,aloud,red,1458.989644,None,None,1458.989644,None,,,,,,,,,,,,,,,,,,,,,,,,,,,,,,,,,,,July22Aloud2,5,2022_Jul_22_1407,ProdSingRedoBetween,2021.2.3,60.11266316
53,0,53,0,,,,,,,,,,,,,,,,,,,,,,,,,,1463.520017,None,touch,2,54,aloud,yellow,1461.50885,None,None,1461.50885,None,,,,,,,,,,,,,,,,,,,,,,,,,,,,,,,,,,,July22Aloud2,5,2022_Jul_22_1407,ProdSingRedoBetween,2021.2.3,60.11266316
54,0,54,0,,,,,,,,,,,,,,,,,,,,,,,,,,1466.0392,None,broke,26,55,aloud,yellow,1464.030985,None,None,1464.030985,None,,,,,,,,,,,,,,,,,,,,,,,,,,,,,,,,,,,July22Aloud2,5,2022_Jul_22_1407,ProdSingRedoBetween,2021.2.3,60.11266316
55,0,55,0,,,,,,,,,,,,,,,,,,,,,,,,,,1468.558407,None,mechanical,69,56,aloud,red,1466.546856,None,None,1466.546856,None,,,,,,,,,,,,,,,,,,,,,,,,,,,,,,,,,,,July22Aloud2,5,2022_Jul_22_1407,ProdSingRedoBetween,2021.2.3,60.11266316
56,0,56,0,,,,,,,,,,,,,,,,,,,,,,,,,,1471.077549,None,equipment,22,57,aloud,yellow,1469.071612,None,None,1469.071612,None,,,,,,,,,,,,,,,,,,,,,,,,,,,,,,,,,,,July22Aloud2,5,2022_Jul_22_1407,ProdSingRedoBetween,2021.2.3,60.11266316
57,0,57,0,,,,,,,,,,,,,,,,,,,,,,,,,,1473.596744,None,voice,47,58,aloud,blue,1471.5872,None,None,1471.5872,None,,,,,,,,,,,,,,,,,,,,,,,,,,,,,,,,,,,July22Aloud2,5,2022_Jul_22_1407,ProdSingRedoBetween,2021.2.3,60.11266316
58,0,58,0,,,,,,,,,,,,,,,,,,,,,,,,,,1476.099183,None,incident,18,59,aloud,yellow,1474.096996,None,None,1474.096996,None,,,,,,,,,,,,,,,,,,,,,,,,,,,,,,,,,,,July22Aloud2,5,2022_Jul_22_1407,ProdSingRedoBetween,2021.2.3,60.11266316
59,0,59,0,,,,,,,,,,,,,,,,,,,,,,,,,,1478.618412,None,union,5,60,aloud,yellow,1476.610062,None,None,1476.610062,None,,,,,,,,,,,,,,,,,,,,,,,,,,,,,,,,,,,July22Aloud2,5,2022_Jul_22_1407,ProdSingRedoBetween,2021.2.3,60.11266316
60,0,60,0,,,,,,,,,,,,,,,,,,,,,,,,,,1481.137606,None,meeting,61,61,aloud,red,1479.126158,None,None,1479.126158,None,,,,,,,,,,,,,,,,,,,,,,,,,,,,,,,,,,,July22Aloud2,5,2022_Jul_22_1407,ProdSingRedoBetween,2021.2.3,60.11266316
61,0,61,0,,,,,,,,,,,,,,,,,,,,,,,,,,1483.656743,None,weight,3,62,aloud,yellow,1481.647585,None,None,1481.647585,None,,,,,,,,,,,,,,,,,,,,,,,,,,,,,,,,,,,July22Aloud2,5,2022_Jul_22_1407,ProdSingRedoBetween,2021.2.3,60.11266316
62,0,62,0,,,,,,,,,,,,,,,,,,,,,,,,,,1486.175625,None,bitter,67,63,aloud,red,1484.167643,None,None,1484.167643,None,,,,,,,,,,,,,,,,,,,,,,,,,,,,,,,,,,,July22Aloud2,5,2022_Jul_22_1407,ProdSingRedoBetween,2021.2.3,60.11266316
63,0,63,0,,,,,,,,,,,,,,,,,,,,,,,,,,1488.678503,None,pattern,64,64,aloud,red,1486.676111,None,None,1486.676111,None,,,,,,,,,,,,,,,,,,,,,,,,,,,,,,,,,,,July22Aloud2,5,2022_Jul_22_1407,ProdSingRedoBetween,2021.2.3,60.11266316
64,0,64,0,,,,,,,,,,,,,,,,,,,,,,,,,,1491.197685,None,short,8,65,aloud,yellow,1489.190526,None,None,1489.190526,None,,,,,,,,,,,,,,,,,,,,,,,,,,,,,,,,,,,July22Aloud2,5,2022_Jul_22_1407,ProdSingRedoBetween,2021.2.3,60.11266316
65,0,65,0,,,,,,,,,,,,,,,,,,,,,,,,,,1493.716895,None,match,56,66,aloud,blue,1491.703715,None,None,1491.703715,None,,,,,,,,,,,,,,,,,,,,,,,,,,,,,,,,,,,July22Aloud2,5,2022_Jul_22_1407,ProdSingRedoBetween,2021.2.3,60.11266316
66,0,66,0,,,,,,,,,,,,,,,,,,,,,,,,,,1496.235757,None,under,45,67,aloud,blue,1494.224578,None,None,1494.224578,None,,,,,,,,,,,,,,,,,,,,,,,,,,,,,,,,,,,July22Aloud2,5,2022_Jul_22_1407,ProdSingRedoBetween,2021.2.3,60.11266316
67,0,67,0,,,,,,,,,,,,,,,,,,,,,,,,,,1498.755183,None,enemy,11,68,aloud,yellow,1496.746804,None,None,1496.746804,None,,,,,,,,,,,,,,,,,,,,,,,,,,,,,,,,,,,July22Aloud2,5,2022_Jul_22_1407,ProdSingRedoBetween,2021.2.3,60.11266316
68,0,68,0,,,,,,,,,,,,,,,,,,,,,,,,,,1501.274487,None,committee,86,69,aloud,red,1499.265273,None,None,1499.265273,None,,,,,,,,,,,,,,,,,,,,,,,,,,,,,,,,,,,July22Aloud2,5,2022_Jul_22_1407,ProdSingRedoBetween,2021.2.3,60.11266316
69,0,69,0,,,,,,,,,,,,,,,,,,,,,,,,,,1503.793552,None,industry,74,70,aloud,red,1501.784004,None,None,1501.784004,None,,,,,,,,,,,,,,,,,,,,,,,,,,,,,,,,,,,July22Aloud2,5,2022_Jul_22_1407,ProdSingRedoBetween,2021.2.3,60.11266316
70,0,70,0,,,,,,,,,,,,,,,,,,,,,,,,,,1506.296055,None,generation,71,71,aloud,red,1504.294112,None,None,1504.294112,None,,,,,,,,,,,,,,,,,,,,,,,,,,,,,,,,,,,July22Aloud2,5,2022_Jul_22_1407,ProdSingRedoBetween,2021.2.3,60.11266316
71,0,71,0,,,,,,,,,,,,,,,,,,,,,,,,,,1508.815267,None,trend,13,72,aloud,yellow,1506.805759,None,None,1506.805759,None,,,,,,,,,,,,,,,,,,,,,,,,,,,,,,,,,,,July22Aloud2,5,2022_Jul_22_1407,ProdSingRedoBetween,2021.2.3,60.11266316
72,0,72,0,,,,,,,,,,,,,,,,,,,,,,,,,,1511.334229,None,article,84,73,aloud,red,1509.318846,None,None,1509.318846,None,,,,,,,,,,,,,,,,,,,,,,,,,,,,,,,,,,,July22Aloud2,5,2022_Jul_22_1407,ProdSingRedoBetween,2021.2.3,60.11266316
73,0,73,0,,,,,,,,,,,,,,,,,,,,,,,,,,1513.853576,None,service,87,74,aloud,red,1511.84712,None,None,1511.84712,None,,,,,,,,,,,,,,,,,,,,,,,,,,,,,,,,,,,July22Aloud2,5,2022_Jul_22_1407,ProdSingRedoBetween,2021.2.3,60.11266316
74,0,74,0,,,,,,,,,,,,,,,,,,,,,,,,,,1516.356014,None,danger,21,75,aloud,yellow,1514.353921,None,None,1514.353921,None,,,,,,,,,,,,,,,,,,,,,,,,,,,,,,,,,,,July22Aloud2,5,2022_Jul_22_1407,ProdSingRedoBetween,2021.2.3,60.11266316
75,0,75,0,,,,,,,,,,,,,,,,,,,,,,,,,,1518.875223,None,agreement,30,76,aloud,blue,1516.867569,None,None,1516.867569,None,,,,,,,,,,,,,,,,,,,,,,,,,,,,,,,,,,,July22Aloud2,5,2022_Jul_22_1407,ProdSingRedoBetween,2021.2.3,60.11266316
76,0,76,0,,,,,,,,,,,,,,,,,,,,,,,,,,1521.394454,None,guard,20,77,aloud,yellow,1519.382703,None,None,1519.382703,None,,,,,,,,,,,,,,,,,,,,,,,,,,,,,,,,,,,July22Aloud2,5,2022_Jul_22_1407,ProdSingRedoBetween,2021.2.3,60.11266316
77,0,77,0,,,,,,,,,,,,,,,,,,,,,,,,,,1523.913665,None,concern,57,78,aloud,blue,1521.903404,None,None,1521.903404,None,,,,,,,,,,,,,,,,,,,,,,,,,,,,,,,,,,,July22Aloud2,5,2022_Jul_22_1407,ProdSingRedoBetween,2021.2.3,60.11266316
78,0,78,0,,,,,,,,,,,,,,,,,,,,,,,,,,1526.432607,None,literature,9,79,aloud,yellow,1524.420214,None,None,1524.420214,None,,,,,,,,,,,,,,,,,,,,,,,,,,,,,,,,,,,July22Aloud2,5,2022_Jul_22_1407,ProdSingRedoBetween,2021.2.3,60.11266316
79,0,79,0,,,,,,,,,,,,,,,,,,,,,,,,,,1528.952006,None,majority,43,80,aloud,blue,1526.950004,None,None,1526.950004,None,,,,,,,,,,,,,,,,,,,,,,,,,,,,,,,,,,,July22Aloud2,5,2022_Jul_22_1407,ProdSingRedoBetween,2021.2.3,60.11266316
80,0,80,0,,,,,,,,,,,,,,,,,,,,,,,,,,1531.471178,None,phrase,38,81,aloud,blue,1529.458114,None,None,1529.458114,None,,,,,,,,,,,,,,,,,,,,,,,,,,,,,,,,,,,July22Aloud2,5,2022_Jul_22_1407,ProdSingRedoBetween,2021.2.3,60.11266316
81,0,81,0,,,,,,,,,,,,,,,,,,,,,,,,,,1533.989959,None,stand,62,82,aloud,red,1531.980337,None,None,1531.980337,None,,,,,,,,,,,,,,,,,,,,,,,,,,,,,,,,,,,July22Aloud2,5,2022_Jul_22_1407,ProdSingRedoBetween,2021.2.3,60.11266316
82,0,82,0,,,,,,,,,,,,,,,,,,,,,,,,,,1536.492855,None,space,55,83,aloud,blue,1534.490961,None,None,1534.490961,None,,,,,,,,,,,,,,,,,,,,,,,,,,,,,,,,,,,July22Aloud2,5,2022_Jul_22_1407,ProdSingRedoBetween,2021.2.3,60.11266316
83,0,83,0,,,,,,,,,,,,,,,,,,,,,,,,,,1539.012131,None,length,34,84,aloud,blue,1537.003475,None,None,1537.003475,None,,,,,,,,,,,,,,,,,,,,,,,,,,,,,,,,,,,July22Aloud2,5,2022_Jul_22_1407,ProdSingRedoBetween,2021.2.3,60.11266316
84,0,84,0,,,,,,,,,,,,,,,,,,,,,,,,,,1541.531312,None,heavy,49,85,aloud,blue,1539.525188,None,None,1539.525188,None,,,,,,,,,,,,,,,,,,,,,,,,,,,,,,,,,,,July22Aloud2,5,2022_Jul_22_1407,ProdSingRedoBetween,2021.2.3,60.11266316
85,0,85,0,,,,,,,,,,,,,,,,,,,,,,,,,,1544.050407,None,month,40,86,aloud,blue,1542.040706,None,None,1542.040706,None,,,,,,,,,,,,,,,,,,,,,,,,,,,,,,,,,,,July22Aloud2,5,2022_Jul_22_1407,ProdSingRedoBetween,2021.2.3,60.11266316
86,0,86,0,,,,,,,,,,,,,,,,,,,,,,,,,,1546.569583,None,quarter,70,87,aloud,red,1544.560906,None,None,1544.560906,None,,,,,,,,,,,,,,,,,,,,,,,,,,,,,,,,,,,July22Aloud2,5,2022_Jul_22_1407,ProdSingRedoBetween,2021.2.3,60.11266316
87,0,87,0,,,,,,,,,,,,,,,,,,,,,,,,,,1549.088581,None,weather,59,88,aloud,yellow,1547.080462,None,None,1547.080462,None,,,,,,,,,,,,,,,,,,,,,,,,,,,,,,,,,,,July22Aloud2,5,2022_Jul_22_1407,ProdSingRedoBetween,2021.2.3,60.11266316
88,0,88,0,,,,,,,,,,,,,,,,,,,,,,,,,,1551.591218,None,bright,75,89,aloud,red,1549.590555,None,None,1549.590555,None,,,,,,,,,,,,,,,,,,,,,,,,,,,,,,,,,,,July22Aloud2,5,2022_Jul_22_1407,ProdSingRedoBetween,2021.2.3,60.11266316
89,0,89,0,,,,,,,,,,,,,,,,,,,,,,,,,,1554.110115,None,resistance,65,90,aloud,red,1552.104868,None,None,1552.104868,None,,,,,,,,,,,,,,,,,,,,,,,,,,,,,,,,,,,July22Aloud2,5,2022_Jul_22_1407,ProdSingRedoBetween,2021.2.3,60.11266316
,,,,,,,,,,,,,,,,,,,,,,,,,,,,,,,,,,,,,,,,,1554.611878,None,k,107.5147997,1554.611878,None,,,,,,,,,,,,,,,,,,,,,,,,,,,,,July22Aloud2,5,2022_Jul_22_1407,ProdSingRedoBetween,2021.2.3,60.11266316
,,,,0,0,0,0,,,,,,,,,,,,,,,,,,,,,,1674.591124,None,,,,,,,,,,,,,,,,,solution,167,1,aloud,new,null,1662.676072,None,1662.676072,None,4,8.3305074,1662.676072,None,8.3305074,1671.046637,None,1671.57095,None,1671.57095,None,f,2.9875057,1671.57095,None,2.9875057,,,July22Aloud2,5,2022_Jul_22_1407,ProdSingRedoBetween,2021.2.3,60.11266316
,,,,1,0,1,0,,,,,,,,,,,,,,,,,,,,,,1682.221305,None,,,,,,,,,,,,,,,,,general,143,2,aloud,new,null,1675.110628,None,1675.110628,None,5,4.3361354,1675.110628,None,4.3361354,1679.480425,None,1679.995708,None,1679.995708,None,f,2.1944612,1679.995708,None,2.1944612,,,July22Aloud2,5,2022_Jul_22_1407,ProdSingRedoBetween,2021.2.3,60.11266316
,,,,2,0,2,0,,,,,,,,,,,,,,,,,,,,,,1686.529707,None,,,,,,,,,,,,,,,,,opening,63,3,aloud,old,red,1682.727167,None,1682.727167,None,4,3.0314944,1682.727167,None,3.0314944,1685.793024,None,1686.304712,None,1686.304712,None,f,0.1978755,1686.304712,None,0.1978755,,,July22Aloud2,5,2022_Jul_22_1407,ProdSingRedoBetween,2021.2.3,60.11266316
,,,,3,0,3,0,,,,,,,,,,,,,,,,,,,,,,1692.572274,None,,,,,,,,,,,,,,,,,sunset,44,4,aloud,old,blue,1687.060781,None,1687.060781,None,2,2.9455788,1687.060781,None,2.9455788,1690.035377,None,1690.554204,None,1690.554204,None,n,1.988477,1690.554204,None,1.988477,,,July22Aloud2,5,2022_Jul_22_1407,ProdSingRedoBetween,2021.2.3,60.11266316
,,,,4,0,4,0,,,,,,,,,,,,,,,,,,,,,,1697.795206,None,,,,,,,,,,,,,,,,,rural,4,5,aloud,old,yellow,1693.092385,None,1693.092385,None,6,3.1221133,1693.092385,None,3.1221133,1696.252169,None,1696.759567,None,1696.759567,None,r,0.9988736,1696.759567,None,0.9988736,,,July22Aloud2,5,2022_Jul_22_1407,ProdSingRedoBetween,2021.2.3,60.11266316
,,,,5,0,5,0,,,,,,,,,,,,,,,,,,,,,,1702.282152,None,,,,,,,,,,,,,,,,,enemy,11,6,aloud,old,yellow,1698.3179,None,1698.3179,None,6,2.6484079,1698.3179,None,2.6484079,1701.004367,None,1701.514407,None,1701.514407,None,r,0.7320673,1701.514407,None,0.7320673,,,July22Aloud2,5,2022_Jul_22_1407,ProdSingRedoBetween,2021.2.3,60.11266316
,,,,6,0,6,0,,,,,,,,,,,,,,,,,,,,,,1707.471636,None,,,,,,,,,,,,,,,,,machinery,100,7,aloud,new,null,1702.81125,None,1702.81125,None,1,2.3150404,1702.81125,None,2.3150404,1705.149609,None,1705.67101,None,1705.67101,None,n,1.7754454,1705.67101,None,1.7754454,,,July22Aloud2,5,2022_Jul_22_1407,ProdSingRedoBetween,2021.2.3,60.11266316
,,,,7,0,7,0,,,,,,,,,,,,,,,,,,,,,,1711.370971,None,,,,,,,,,,,,,,,,,court,158,8,aloud,new,null,1707.991128,None,1707.991128,None,1,2.0154247,1707.991128,None,2.0154247,1710.045979,None,1710.555792,None,1710.555792,None,n,0.7946001,1710.555792,None,0.7946001,,,July22Aloud2,5,2022_Jul_22_1407,ProdSingRedoBetween,2021.2.3,60.11266316
,,,,8,0,8,0,,,,,,,,,,,,,,,,,,,,,,1716.726138,None,,,,,,,,,,,,,,,,,region,97,9,aloud,new,null,1711.896941,None,1711.896941,None,3,2.8052965,1711.896941,None,2.8052965,1714.721374,None,1715.233198,None,1715.233198,None,f,1.4692285,1715.233198,None,1.4692285,,,July22Aloud2,5,2022_Jul_22_1407,ProdSingRedoBetween,2021.2.3,60.11266316
,,,,9,0,9,0,,,,,,,,,,,,,,,,,,,,,,1722.223336,None,,,,,,,,,,,,,,,,,expansion,159,10,aloud,new,null,1717.245283,None,1717.245283,None,1,3.1294205,1717.245283,None,3.1294205,1720.412229,None,1720.918607,None,1720.918607,None,f,1.2719609,1720.918607,None,1.2719609,,,July22Aloud2,5,2022_Jul_22_1407,ProdSingRedoBetween,2021.2.3,60.11266316
,,,,10,0,10,0,,,,,,,,,,,,,,,,,,,,,,1726.673269,None,,,,,,,,,,,,,,,,,weight,3,11,aloud,old,yellow,1722.745661,None,1722.745661,None,6,2.5728314,1722.745661,None,2.5728314,1725.365861,None,1725.873854,None,1725.873854,None,r,0.7647328,1725.873854,None,0.7647328,,,July22Aloud2,5,2022_Jul_22_1407,ProdSingRedoBetween,2021.2.3,60.11266316
,,,,11,0,11,0,,,,,,,,,,,,,,,,,,,,,,1730.327632,None,,,,,,,,,,,,,,,,,principal,35,12,aloud,old,blue,1727.198508,None,1727.198508,None,6,2.4160179,1727.198508,None,2.4160179,1729.65405,None,1730.161441,None,1730.161441,None,r,0.1331446,1730.161441,None,0.1331446,,,July22Aloud2,5,2022_Jul_22_1407,ProdSingRedoBetween,2021.2.3,60.11266316
,,,,12,0,12,0,,,,,,,,,,,,,,,,,,,,,,1733.116906,None,,,,,,,,,,,,,,,,,threat,145,13,aloud,new,null,1730.849582,None,1730.849582,None,6,1.6130096,1730.849582,None,1.6130096,1732.504613,None,1733.015106,None,1733.015106,None,r,0.0714755,1733.015106,None,0.0714755,,,July22Aloud2,5,2022_Jul_22_1407,ProdSingRedoBetween,2021.2.3,60.11266316
,,,,13,0,13,0,,,,,,,,,,,,,,,,,,,,,,1736.930364,None,,,,,,,,,,,,,,,,,alert,135,14,aloud,new,null,1733.638929,None,1733.638929,None,6,2.7115692,1733.638929,None,2.7115692,1736.386952,None,1736.897211,None,1736.897211,None,r,0.0133419,1736.897211,None,0.0133419,,,July22Aloud2,5,2022_Jul_22_1407,ProdSingRedoBetween,2021.2.3,60.11266316
,,,,14,0,14,0,,,,,,,,,,,,,,,,,,,,,,1741.104789,None,,,,,,,,,,,,,,,,,republic,163,15,aloud,new,null,1737.459954,None,1737.459954,None,1,2.2585731,1737.459954,None,2.2585731,1739.762228,None,1740.272354,None,1740.272354,None,n,0.7982302,1740.272354,None,0.7982302,,,July22Aloud2,5,2022_Jul_22_1407,ProdSingRedoBetween,2021.2.3,60.11266316
,,,,15,0,15,0,,,,,,,,,,,,,,,,,,,,,,1746.502242,None,,,,,,,,,,,,,,,,,message,111,16,aloud,new,null,1741.626143,None,1741.626143,None,4,3.5960353,1741.626143,None,3.5960353,1745.251002,None,1745.751587,None,1745.751587,None,f,0.7266365,1745.751587,None,0.7266365,,,July22Aloud2,5,2022_Jul_22_1407,ProdSingRedoBetween,2021.2.3,60.11266316
,,,,16,0,16,0,,,,,,,,,,,,,,,,,,,,,,1750.051299,None,,,,,,,,,,,,,,,,,quiet,7,17,aloud,old,yellow,1747.004121,None,1747.004121,None,6,1.8184168,1747.004121,None,1.8184168,1748.857272,None,1749.364616,None,1749.364616,None,r,0.6578386,1749.364616,None,0.6578386,,,July22Aloud2,5,2022_Jul_22_1407,ProdSingRedoBetween,2021.2.3,60.11266316
,,,,17,0,17,0,,,,,,,,,,,,,,,,,,,,,,1753.369435,None,,,,,,,,,,,,,,,,,voice,47,18,aloud,old,blue,1750.572785,None,1750.572785,None,6,1.7695894,1750.572785,None,1.7695894,1752.368594,None,1752.883149,None,1752.883149,None,r,0.4594759,1752.883149,None,0.4594759,,,July22Aloud2,5,2022_Jul_22_1407,ProdSingRedoBetween,2021.2.3,60.11266316
,,,,18,0,18,0,,,,,,,,,,,,,,,,,,,,,,1756.830692,None,,,,,,,,,,,,,,,,,relation,90,19,aloud,new,null,1753.894518,None,1753.894518,None,3,2.3278682,1753.894518,None,2.3278682,1756.255277,None,1756.771231,None,1756.771231,None,f,0.043114,1756.771231,None,0.043114,,,July22Aloud2,5,2022_Jul_22_1407,ProdSingRedoBetween,2021.2.3,60.11266316
,,,,19,0,19,0,,,,,,,,,,,,,,,,,,,,,,1760.88553,None,,,,,,,,,,,,,,,,,count,150,20,aloud,new,null,1757.34412,None,1757.34412,None,2,2.8382759,1757.34412,None,2.8382759,1760.209412,None,1760.72343,None,1760.72343,None,f,0.1309366,1760.72343,None,0.1309366,,,July22Aloud2,5,2022_Jul_22_1407,ProdSingRedoBetween,2021.2.3,60.11266316
,,,,20,0,20,0,,,,,,,,,,,,,,,,,,,,,,1764.826286,None,,,,,,,,,,,,,,,,,nation,128,21,aloud,new,null,1761.413761,None,1761.413761,None,2,2.4327868,1761.413761,None,2.4327868,1763.889167,None,1764.408024,None,1764.408024,None,n,0.3825393,1764.408024,None,0.3825393,,,July22Aloud2,5,2022_Jul_22_1407,ProdSingRedoBetween,2021.2.3,60.11266316
,,,,21,0,21,0,,,,,,,,,,,,,,,,,,,,,,1768.38203,None,,,,,,,,,,,,,,,,,character,80,22,aloud,old,red,1765.351957,None,1765.351957,None,6,2.1185827,1765.351957,None,2.1185827,1767.506664,None,1768.01397,None,1768.01397,None,r,0.3445066,1768.01397,None,0.3445066,,,July22Aloud2,5,2022_Jul_22_1407,ProdSingRedoBetween,2021.2.3,60.11266316
,,,,22,0,22,0,,,,,,,,,,,,,,,,,,,,,,1773.019706,None,,,,,,,,,,,,,,,,,reach,126,23,aloud,new,null,1768.902513,None,1768.902513,None,3,2.2800692,1768.902513,None,2.2800692,1771.223644,None,1771.73137,None,1771.73137,None,f,1.2512321,1771.73137,None,1.2512321,,,July22Aloud2,5,2022_Jul_22_1407,ProdSingRedoBetween,2021.2.3,60.11266316
,,,,23,0,23,0,,,,,,,,,,,,,,,,,,,,,,1776.250948,None,,,,,,,,,,,,,,,,,concern,57,24,aloud,old,blue,1773.544139,None,1773.544139,None,6,1.9022984,1773.544139,None,1.9022984,1775.481235,None,1775.991217,None,1775.991217,None,r,0.2390749,1775.991217,None,0.2390749,,,July22Aloud2,5,2022_Jul_22_1407,ProdSingRedoBetween,2021.2.3,60.11266316
,,,,24,0,24,0,,,,,,,,,,,,,,,,,,,,,,1779.392763,None,,,,,,,,,,,,,,,,,science,119,25,aloud,new,null,1776.780602,None,1776.780602,None,1,1.5539285,1776.780602,None,1.5539285,1778.362938,None,1778.878293,None,1778.878293,None,n,0.4802593,1778.878293,None,0.4802593,,,July22Aloud2,5,2022_Jul_22_1407,ProdSingRedoBetween,2021.2.3,60.11266316
,,,,25,0,25,0,,,,,,,,,,,,,,,,,,,,,,1782.674529,None,,,,,,,,,,,,,,,,,addition,72,26,aloud,old,red,1779.916628,None,1779.916628,None,1,1.8817261,1779.916628,None,1.8817261,1781.827642,None,1782.34631,None,1782.34631,None,n,0.3080419,1782.34631,None,0.3080419,,,July22Aloud2,5,2022_Jul_22_1407,ProdSingRedoBetween,2021.2.3,60.11266316
,,,,26,0,26,0,,,,,,,,,,,,,,,,,,,,,,1785.377909,None,,,,,,,,,,,,,,,,,center,138,27,aloud,new,null,1783.201241,None,1783.201241,None,1,1.3492379,1783.201241,None,1.3492379,1784.588785,None,1785.096188,None,1785.096188,None,n,0.2623931,1785.096188,None,0.2623931,,,July22Aloud2,5,2022_Jul_22_1407,ProdSingRedoBetween,2021.2.3,60.11266316
,,,,27,0,27,0,,,,,,,,,,,,,,,,,,,,,,1787.89824,None,,,,,,,,,,,,,,,,,atmosphere,17,28,aloud,old,yellow,1785.907081,None,1785.907081,None,6,1.2512302,1785.907081,None,1.2512302,1787.191102,None,1787.700734,None,1787.700734,None,r,0.1697788,1787.700734,None,0.1697788,,,July22Aloud2,5,2022_Jul_22_1407,ProdSingRedoBetween,2021.2.3,60.11266316
,,,,28,0,28,0,,,,,,,,,,,,,,,,,,,,,,1790.598812,None,,,,,,,,,,,,,,,,,rapid,98,29,aloud,new,null,1788.429942,None,1788.429942,None,1,1.4243401,1788.429942,None,1.4243401,1789.888548,None,1790.406928,None,1790.406928,None,n,0.1676726,1790.406928,None,0.1676726,,,July22Aloud2,5,2022_Jul_22_1407,ProdSingRedoBetween,2021.2.3,60.11266316
,,,,29,0,29,0,,,,,,,,,,,,,,,,,,,,,,1795.893099,None,,,,,,,,,,,,,,,,,captain,127,30,aloud,new,null,1791.129209,None,1791.129209,None,5,3.9732332,1791.129209,None,3.9732332,1795.129204,None,1795.643295,None,1795.643295,None,f,0.2111917,1795.643295,None,0.2111917,,,July22Aloud2,5,2022_Jul_22_1407,ProdSingRedoBetween,2021.2.3,60.11266316
,,,,30,0,30,0,,,,,,,,,,,,,,,,,,,,,,1798.838753,None,,,,,,,,,,,,,,,,,author,170,31,aloud,new,null,1796.415098,None,1796.415098,None,1,1.7193843,1796.415098,None,1.7193843,1798.172976,None,1798.695783,None,1798.695783,None,n,0.1106846,1798.695783,None,0.1106846,,,July22Aloud2,5,2022_Jul_22_1407,ProdSingRedoBetween,2021.2.3,60.11266316
,,,,31,0,31,0,,,,,,,,,,,,,,,,,,,,,,1801.915778,None,,,,,,,,,,,,,,,,,recall,129,32,aloud,new,null,1799.352533,None,1799.352533,None,1,1.7419987,1799.352533,None,1.7419987,1801.139363,None,1801.650503,None,1801.650503,None,n,0.2358425,1801.650503,None,0.2358425,,,July22Aloud2,5,2022_Jul_22_1407,ProdSingRedoBetween,2021.2.3,60.11266316
,,,,32,0,32,0,,,,,,,,,,,,,,,,,,,,,,1804.829922,None,,,,,,,,,,,,,,,,,private,147,33,aloud,new,null,1802.443244,None,1802.443244,None,3,1.7549287,1802.443244,None,1.7549287,1804.227157,None,1804.727516,None,1804.727516,None,f,0.0787513,1804.727516,None,0.0787513,,,July22Aloud2,5,2022_Jul_22_1407,ProdSingRedoBetween,2021.2.3,60.11266316
,,,,33,0,33,0,,,,,,,,,,,,,,,,,,,,,,1809.732022,None,,,,,,,,,,,,,,,,,match,56,34,aloud,old,blue,1805.360357,None,1805.360357,None,6,3.2938027,1805.360357,None,3.2938027,1808.686224,None,1809.198236,None,1809.198236,None,r,0.5040221,1809.198236,None,0.5040221,,,July22Aloud2,5,2022_Jul_22_1407,ProdSingRedoBetween,2021.2.3,60.11266316
,,,,34,0,34,0,,,,,,,,,,,,,,,,,,,,,,1815.198091,None,,,,,,,,,,,,,,,,,passage,175,35,aloud,new,null,1810.232558,None,1810.232558,None,2,2.9580453,1810.232558,None,2.9580453,1813.24071,None,1813.758559,None,1813.758559,None,f,1.4079254,1813.758559,None,1.4079254,,,July22Aloud2,5,2022_Jul_22_1407,ProdSingRedoBetween,2021.2.3,60.11266316
,,,,35,0,35,0,,,,,,,,,,,,,,,,,,,,,,1818.465788,None,,,,,,,,,,,,,,,,,pattern,64,36,aloud,old,red,1815.72144,None,1815.72144,None,6,1.6849189,1815.72144,None,1.6849189,1817.436816,None,1817.948991,None,1817.948991,None,r,0.4894966,1817.948991,None,0.4894966,,,July22Aloud2,5,2022_Jul_22_1407,ProdSingRedoBetween,2021.2.3,60.11266316
,,,,36,0,36,0,,,,,,,,,,,,,,,,,,,,,,1821.428444,None,,,,,,,,,,,,,,,,,estate,106,37,aloud,new,null,1818.99168,None,1818.99168,None,1,1.5669833,1818.99168,None,1.5669833,1820.595432,None,1821.121564,None,1821.121564,None,n,0.2768025,1821.121564,None,0.2768025,,,July22Aloud2,5,2022_Jul_22_1407,ProdSingRedoBetween,2021.2.3,60.11266316
,,,,37,0,37,0,,,,,,,,,,,,,,,,,,,,,,1827.837707,None,,,,,,,,,,,,,,,,,dance,151,38,aloud,new,null,1821.942598,None,1821.942598,None,2,3.3198678,1821.942598,None,3.3198678,1825.295725,None,1825.805169,None,1825.805169,None,n,2.0092307,1825.805169,None,2.0092307,,,July22Aloud2,5,2022_Jul_22_1407,ProdSingRedoBetween,2021.2.3,60.11266316
,,,,38,0,38,0,,,,,,,,,,,,,,,,,,,,,,1831.577037,None,,,,,,,,,,,,,,,,,session,120,39,aloud,new,null,1828.363293,None,1828.363293,None,5,2.3471511,1828.363293,None,2.3471511,1830.75531,None,1831.261869,None,1831.261869,None,r,0.288637,1831.261869,None,0.288637,,,July22Aloud2,5,2022_Jul_22_1407,ProdSingRedoBetween,2021.2.3,60.11266316
,,,,39,0,39,0,,,,,,,,,,,,,,,,,,,,,,1835.800977,None,,,,,,,,,,,,,,,,,space,55,40,aloud,old,blue,1832.10014,None,1832.10014,None,6,2.6100387,1832.10014,None,2.6100387,1834.740646,None,1835.24092,None,1835.24092,None,r,0.5335139,1835.24092,None,0.5335139,,,July22Aloud2,5,2022_Jul_22_1407,ProdSingRedoBetween,2021.2.3,60.11266316
,,,,40,0,40,0,,,,,,,,,,,,,,,,,,,,,,1841.196809,None,,,,,,,,,,,,,,,,,provision,169,41,aloud,new,null,1836.328119,None,1836.328119,None,2,4.1903808,1836.328119,None,4.1903808,1840.565898,None,1841.072502,None,1841.072502,None,f,0.1097429,1841.072502,None,0.1097429,,,July22Aloud2,5,2022_Jul_22_1407,ProdSingRedoBetween,2021.2.3,60.11266316
,,,,41,0,41,0,,,,,,,,,,,,,,,,,,,,,,1844.019134,None,,,,,,,,,,,,,,,,,discussion,12,42,aloud,old,yellow,1841.71417,None,1841.71417,None,4,1.652361,1841.71417,None,1.652361,1843.397929,None,1843.911622,None,1843.911622,None,f,0.0866776,1843.911622,None,0.0866776,,,July22Aloud2,5,2022_Jul_22_1407,ProdSingRedoBetween,2021.2.3,60.11266316
,,,,42,0,42,0,,,,,,,,,,,,,,,,,,,,,,1846.812951,None,,,,,,,,,,,,,,,,,express,142,43,aloud,new,null,1844.549845,None,1844.549845,None,3,1.5606588,1844.549845,None,1.5606588,1846.156981,None,1846.683581,None,1846.683581,None,f,0.0907153,1846.683581,None,0.0907153,,,July22Aloud2,5,2022_Jul_22_1407,ProdSingRedoBetween,2021.2.3,60.11266316
,,,,43,0,43,0,,,,,,,,,,,,,,,,,,,,,,1849.61006,None,,,,,,,,,,,,,,,,,motion,88,44,aloud,old,red,1847.334321,None,1847.334321,None,5,1.6083438,1847.334321,None,1.6083438,1848.989242,None,1849.497198,None,1849.497198,None,r,0.077356,1849.497198,None,0.077356,,,July22Aloud2,5,2022_Jul_22_1407,ProdSingRedoBetween,2021.2.3,60.11266316
,,,,44,0,44,0,,,,,,,,,,,,,,,,,,,,,,1853.701021,None,,,,,,,,,,,,,,,,,tough,50,45,aloud,old,blue,1850.135678,None,1850.135678,None,2,2.8307285,1850.135678,None,2.8307285,1853.006794,None,1853.516353,None,1853.516353,None,f,0.1461501,1853.516353,None,0.1461501,,,July22Aloud2,5,2022_Jul_22_1407,ProdSingRedoBetween,2021.2.3,60.11266316
,,,,45,0,45,0,,,,,,,,,,,,,,,,,,,,,,1856.933773,None,,,,,,,,,,,,,,,,,working,0,46,aloud,old,yellow,1854.227507,None,1854.227507,None,2,1.8429753,1854.227507,None,1.8429753,1856.113228,None,1856.621638,None,1856.621638,None,n,0.2806891,1856.621638,None,0.2806891,,,July22Aloud2,5,2022_Jul_22_1407,ProdSingRedoBetween,2021.2.3,60.11266316
,,,,46,0,46,0,,,,,,,,,,,,,,,,,,,,,,1860.69337,None,,,,,,,,,,,,,,,,,agreement,30,47,aloud,old,blue,1857.459035,None,1857.459035,None,4,2.1154469,1857.459035,None,2.1154469,1859.614781,None,1860.127308,None,1860.127308,None,f,0.5271727,1860.127308,None,0.5271727,,,July22Aloud2,5,2022_Jul_22_1407,ProdSingRedoBetween,2021.2.3,60.11266316
,,,,47,0,47,0,,,,,,,,,,,,,,,,,,,,,,1863.812262,None,,,,,,,,,,,,,,,,,strength,39,48,aloud,old,blue,1861.214605,None,1861.214605,None,4,1.7438681,1861.214605,None,1.7438681,1862.996227,None,1863.514102,None,1863.514102,None,f,0.2604054,1863.514102,None,0.2604054,,,July22Aloud2,5,2022_Jul_22_1407,ProdSingRedoBetween,2021.2.3,60.11266316
,,,,48,0,48,0,,,,,,,,,,,,,,,,,,,,,,1866.522171,None,,,,,,,,,,,,,,,,,broke,26,49,aloud,old,yellow,1864.32292,None,1864.32292,None,1,1.4993388,1864.32292,None,1.4993388,1865.854325,None,1866.365984,None,1866.365984,None,n,0.1282503,1866.365984,None,0.1282503,,,July22Aloud2,5,2022_Jul_22_1407,ProdSingRedoBetween,2021.2.3,60.11266316
,,,,49,0,49,0,,,,,,,,,,,,,,,,,,,,,,1869.766723,None,,,,,,,,,,,,,,,,,committee,86,50,aloud,old,red,1867.035071,None,1867.035071,None,6,1.8354647,1867.035071,None,1.8354647,1868.902738,None,1869.415217,None,1869.415217,None,r,0.3275125,1869.415217,None,0.3275125,,,July22Aloud2,5,2022_Jul_22_1407,ProdSingRedoBetween,2021.2.3,60.11266316
,,,,50,0,50,0,,,,,,,,,,,,,,,,,,,,,,1872.811604,None,,,,,,,,,,,,,,,,,budget,148,51,aloud,new,null,1870.291114,None,1870.291114,None,3,1.7472062,1870.291114,None,1.7472062,1872.074125,None,1872.579292,None,1872.579292,None,n,0.2027594,1872.579292,None,0.2027594,,,July22Aloud2,5,2022_Jul_22_1407,ProdSingRedoBetween,2021.2.3,60.11266316
,,,,51,0,51,0,,,,,,,,,,,,,,,,,,,,,,1875.867533,None,,,,,,,,,,,,,,,,,volume,112,52,aloud,new,null,1873.318512,None,1873.318512,None,1,1.8555653,1873.318512,None,1.8555653,1875.197498,None,1875.698097,None,1875.698097,None,n,0.148492,1875.698097,None,0.148492,,,July22Aloud2,5,2022_Jul_22_1407,ProdSingRedoBetween,2021.2.3,60.11266316
,,,,52,0,52,0,,,,,,,,,,,,,,,,,,,,,,1878.687798,None,,,,,,,,,,,,,,,,,industry,74,53,aloud,old,red,1876.39488,None,1876.39488,None,6,1.3233835,1876.39488,None,1.3233835,1877.741295,None,1878.261935,None,1878.261935,None,r,0.4005162,1878.261935,None,0.4005162,,,July22Aloud2,5,2022_Jul_22_1407,ProdSingRedoBetween,2021.2.3,60.11266316
,,,,53,0,53,0,,,,,,,,,,,,,,,,,,,,,,1881.755536,None,,,,,,,,,,,,,,,,,bright,75,54,aloud,old,red,1879.213774,None,1879.213774,None,5,1.8806121,1879.213774,None,1.8806121,1881.126565,None,1881.645094,None,1881.645094,None,r,0.0811578,1881.645094,None,0.0811578,,,July22Aloud2,5,2022_Jul_22_1407,ProdSingRedoBetween,2021.2.3,60.11266316
,,,,54,0,54,0,,,,,,,,,,,,,,,,,,,,,,1884.491738,None,,,,,,,,,,,,,,,,,hunger,6,55,aloud,old,yellow,1882.269895,None,1882.269895,None,3,1.6167053,1882.269895,None,1.6167053,1883.922326,None,1884.431546,None,1884.431546,None,f,0.0387447,1884.431546,None,0.0387447,,,July22Aloud2,5,2022_Jul_22_1407,ProdSingRedoBetween,2021.2.3,60.11266316
,,,,55,0,55,0,,,,,,,,,,,,,,,,,,,,,,1887.434999,None,,,,,,,,,,,,,,,,,distance,110,56,aloud,new,null,1885.023139,None,1885.023139,None,4,1.6712613,1885.023139,None,1.6712613,1886.731203,None,1887.251953,None,1887.251953,None,f,0.1545424,1887.251953,None,0.1545424,,,July22Aloud2,5,2022_Jul_22_1407,ProdSingRedoBetween,2021.2.3,60.11266316
,,,,56,0,56,0,,,,,,,,,,,,,,,,,,,,,,1890.279195,None,,,,,,,,,,,,,,,,,majority,43,57,aloud,old,blue,1887.959918,None,1887.959918,None,4,1.6225261,1887.959918,None,1.6225261,1889.627209,None,1890.138851,None,1890.138851,None,f,0.1155055,1890.138851,None,0.1155055,,,July22Aloud2,5,2022_Jul_22_1407,ProdSingRedoBetween,2021.2.3,60.11266316
,,,,57,0,57,0,,,,,,,,,,,,,,,,,,,,,,1893.523209,None,,,,,,,,,,,,,,,,,universal,68,58,aloud,old,red,1890.796568,None,1890.796568,None,5,1.7856985,1890.796568,None,1.7856985,1892.618362,None,1893.125684,None,1893.125684,None,f,0.3607282,1893.125684,None,0.3607282,,,July22Aloud2,5,2022_Jul_22_1407,ProdSingRedoBetween,2021.2.3,60.11266316
,,,,58,0,58,0,,,,,,,,,,,,,,,,,,,,,,1896.770096,None,,,,,,,,,,,,,,,,,debate,144,59,aloud,new,null,1894.037585,None,1894.037585,None,2,2.0649834,1894.037585,None,2.0649834,1896.133517,None,1896.642318,None,1896.642318,None,f,0.0999339,1896.642318,None,0.0999339,,,July22Aloud2,5,2022_Jul_22_1407,ProdSingRedoBetween,2021.2.3,60.11266316
,,,,59,0,59,0,,,,,,,,,,,,,,,,,,,,,,1900.02987,None,,,,,,,,,,,,,,,,,tennis,149,60,aloud,new,null,1897.286834,None,1897.286834,None,1,1.3355504,1897.286834,None,1.3355504,1898.654183,None,1899.161742,None,1899.161742,None,n,0.8369381,1899.161742,None,0.8369381,,,July22Aloud2,5,2022_Jul_22_1407,ProdSingRedoBetween,2021.2.3,60.11266316
,,,,60,0,60,0,,,,,,,,,,,,,,,,,,,,,,1903.912761,None,,,,,,,,,,,,,,,,,testimony,155,61,aloud,new,null,1900.554871,None,1900.554871,None,1,2.4673442,1900.554871,None,2.4673442,1903.049963,None,1903.568445,None,1903.568445,None,n,0.3178356,1903.568445,None,0.3178356,,,July22Aloud2,5,2022_Jul_22_1407,ProdSingRedoBetween,2021.2.3,60.11266316
,,,,61,0,61,0,,,,,,,,,,,,,,,,,,,,,,1906.997321,None,,,,,,,,,,,,,,,,,appearance,85,62,aloud,old,red,1904.442593,None,1904.442593,None,3,1.8677231,1904.442593,None,1.8677231,1906.341337,None,1906.853712,None,1906.853712,None,f,0.1205,1906.853712,None,0.1205,,,July22Aloud2,5,2022_Jul_22_1407,ProdSingRedoBetween,2021.2.3,60.11266316
,,,,62,0,62,0,,,,,,,,,,,,,,,,,,,,,,1910.866296,None,,,,,,,,,,,,,,,,,exchange,23,63,aloud,old,yellow,1907.516217,None,1907.516217,None,5,1.9543395,1907.516217,None,1.9543395,1909.513643,None,1910.024012,None,1910.024012,None,f,0.8223382,1910.024012,None,0.8223382,,,July22Aloud2,5,2022_Jul_22_1407,ProdSingRedoBetween,2021.2.3,60.11266316
,,,,63,0,63,0,,,,,,,,,,,,,,,,,,,,,,1914.272897,None,,,,,,,,,,,,,,,,,report,25,64,aloud,old,yellow,1911.383236,None,1911.383236,None,6,1.2710062,1911.383236,None,1.2710062,1912.695162,None,1913.207526,None,1913.207526,None,r,1.0386997,1913.207526,None,1.0386997,,,July22Aloud2,5,2022_Jul_22_1407,ProdSingRedoBetween,2021.2.3,60.11266316
,,,,64,0,64,0,,,,,,,,,,,,,,,,,,,,,,1918.225467,None,,,,,,,,,,,,,,,,,length,34,65,aloud,old,blue,1914.799831,None,1914.799831,None,4,2.7106165,1914.799831,None,2.7106165,1917.553607,None,1918.062974,None,1918.062974,None,r,0.1432503,1918.062974,None,0.1432503,,,July22Aloud2,5,2022_Jul_22_1407,ProdSingRedoBetween,2021.2.3,60.11266316
,,,,65,0,65,0,,,,,,,,,,,,,,,,,,,,,,1921.817543,None,,,,,,,,,,,,,,,,,trend,13,66,aloud,old,yellow,1918.755806,None,1918.755806,None,5,2.0584399,1918.755806,None,2.0584399,1920.853288,None,1921.36737,None,1921.36737,None,f,0.4150986,1921.36737,None,0.4150986,,,July22Aloud2,5,2022_Jul_22_1407,ProdSingRedoBetween,2021.2.3,60.11266316
,,,,66,0,66,0,,,,,,,,,,,,,,,,,,,,,,1924.630026,None,,,,,,,,,,,,,,,,,guard,20,67,aloud,old,yellow,1922.340179,None,1922.340179,None,6,1.6659445,1922.340179,None,1.6659445,1924.036965,None,1924.546876,None,1924.546876,None,r,0.0672207,1924.546876,None,0.0672207,,,July22Aloud2,5,2022_Jul_22_1407,ProdSingRedoBetween,2021.2.3,60.11266316
,,,,67,0,67,0,,,,,,,,,,,,,,,,,,,,,,1927.443962,None,,,,,,,,,,,,,,,,,still,1,68,aloud,old,yellow,1925.143686,None,1925.143686,None,2,1.590819,1925.143686,None,1.590819,1926.780398,None,1927.292079,None,1927.292079,None,n,0.1223732,1927.292079,None,0.1223732,,,July22Aloud2,5,2022_Jul_22_1407,ProdSingRedoBetween,2021.2.3,60.11266316
,,,,68,0,68,0,,,,,,,,,,,,,,,,,,,,,,1930.378149,None,,,,,,,,,,,,,,,,,sound,94,69,aloud,new,null,1927.967994,None,1927.967994,None,2,1.4705411,1927.967994,None,1.4705411,1929.489595,None,1930.014734,None,1930.014734,None,n,0.327687,1930.014734,None,0.327687,,,July22Aloud2,5,2022_Jul_22_1407,ProdSingRedoBetween,2021.2.3,60.11266316
,,,,69,0,69,0,,,,,,,,,,,,,,,,,,,,,,1933.291189,None,,,,,,,,,,,,,,,,,drama,156,70,aloud,new,null,1930.901187,None,1930.901187,None,1,1.4490889,1930.901187,None,1.4490889,1932.37928,None,1932.893922,None,1932.893922,None,n,0.3683065,1932.893922,None,0.3683065,,,July22Aloud2,5,2022_Jul_22_1407,ProdSingRedoBetween,2021.2.3,60.11266316
,,,,70,0,70,0,,,,,,,,,,,,,,,,,,,,,,1935.858592,None,,,,,,,,,,,,,,,,,throw,168,71,aloud,new,null,1933.820883,None,1933.820883,None,1,1.3054234,1933.820883,None,1.3054234,1935.176348,None,1935.707054,None,1935.707054,None,n,0.1310015,1935.707054,None,0.1310015,,,July22Aloud2,5,2022_Jul_22_1407,ProdSingRedoBetween,2021.2.3,60.11266316
,,,,71,0,71,0,,,,,,,,,,,,,,,,,,,,,,1938.468519,None,,,,,,,,,,,,,,,,,trash,103,72,aloud,new,null,1936.366076,None,1936.366076,None,1,1.3599911,1936.366076,None,1.3599911,1937.755367,None,1938.260417,None,1938.260417,None,n,0.1539303,1938.260417,None,0.1539303,,,July22Aloud2,5,2022_Jul_22_1407,ProdSingRedoBetween,2021.2.3,60.11266316
,,,,72,0,72,0,,,,,,,,,,,,,,,,,,,,,,1942.993828,None,,,,,,,,,,,,,,,,,quarter,70,73,aloud,old,red,1938.980128,None,1938.980128,None,4,1.6742472,1938.980128,None,1.6742472,1940.699389,None,1941.222781,None,1941.222781,None,r,1.743577,1941.222781,None,1.743577,,,July22Aloud2,5,2022_Jul_22_1407,ProdSingRedoBetween,2021.2.3,60.11266316
,,,,73,0,73,0,,,,,,,,,,,,,,,,,,,,,,1946.276587,None,,,,,,,,,,,,,,,,,surface,176,74,aloud,new,null,1943.516797,None,1943.516797,None,4,1.561574,1943.516797,None,1.561574,1945.117476,None,1945.626101,None,1945.626101,None,f,0.6123273,1945.626101,None,0.6123273,,,July22Aloud2,5,2022_Jul_22_1407,ProdSingRedoBetween,2021.2.3,60.11266316
,,,,74,0,74,0,,,,,,,,,,,,,,,,,,,,,,1949.090805,None,,,,,,,,,,,,,,,,,article,84,75,aloud,old,red,1946.799856,None,1946.799856,None,6,1.5903976,1946.799856,None,1.5903976,1948.426919,None,1948.945591,None,1948.945591,None,r,0.1166589,1948.945591,None,0.1166589,,,July22Aloud2,5,2022_Jul_22_1407,ProdSingRedoBetween,2021.2.3,60.11266316
,,,,75,0,75,0,,,,,,,,,,,,,,,,,,,,,,1951.742249,None,,,,,,,,,,,,,,,,,afternoon,172,76,aloud,new,null,1949.619356,None,1949.619356,None,2,1.5309622,1949.619356,None,1.5309622,1951.184457,None,1951.69625,None,1951.69625,None,f,0.0219793,1951.69625,None,0.0219793,,,July22Aloud2,5,2022_Jul_22_1407,ProdSingRedoBetween,2021.2.3,60.11266316
,,,,76,0,76,0,,,,,,,,,,,,,,,,,,,,,,1954.176229,None,,,,,,,,,,,,,,,,,platform,122,77,aloud,new,null,1952.257475,None,1952.257475,None,1,1.2527566,1952.257475,None,1.2527566,1953.535689,None,1954.042773,None,1954.042773,None,n,0.1072573,1954.042773,None,0.1072573,,,July22Aloud2,5,2022_Jul_22_1407,ProdSingRedoBetween,2021.2.3,60.11266316
,,,,77,0,77,0,,,,,,,,,,,,,,,,,,,,,,1958.987935,None,,,,,,,,,,,,,,,,,generation,71,78,aloud,old,red,1954.676943,None,1954.676943,None,4,3.7374611,1954.676943,None,3.7374611,1958.445429,None,1958.953605,None,1958.953605,None,f,0.0047821,1958.953605,None,0.0047821,,,July22Aloud2,5,2022_Jul_22_1407,ProdSingRedoBetween,2021.2.3,60.11266316
,,,,78,0,78,0,,,,,,,,,,,,,,,,,,,,,,1962.053877,None,,,,,,,,,,,,,,,,,discovery,157,79,aloud,new,null,1959.516005,None,1959.516005,None,2,1.9143595,1959.516005,None,1.9143595,1961.472161,None,1961.991717,None,1961.991717,None,f,0.030565,1961.991717,None,0.030565,,,July22Aloud2,5,2022_Jul_22_1407,ProdSingRedoBetween,2021.2.3,60.11266316
,,,,79,0,79,0,,,,,,,,,,,,,,,,,,,,,,1964.861589,None,,,,,,,,,,,,,,,,,century,29,80,aloud,old,blue,1962.58235,None,1962.58235,None,3,1.6080358,1962.58235,None,1.6080358,1964.23966,None,1964.746132,None,1964.746132,None,f,0.0760998,1964.746132,None,0.0760998,,,July22Aloud2,5,2022_Jul_22_1407,ProdSingRedoBetween,2021.2.3,60.11266316
,,,,80,0,80,0,,,,,,,,,,,,,,,,,,,,,,1970.483952,None,,,,,,,,,,,,,,,,,season,27,81,aloud,old,yellow,1965.380608,None,1965.380608,None,4,4.1697726,1965.380608,None,4.1697726,1969.595935,None,1970.117622,None,1970.117622,None,r,0.3368305,1970.117622,None,0.3368305,,,July22Aloud2,5,2022_Jul_22_1407,ProdSingRedoBetween,2021.2.3,60.11266316
,,,,81,0,81,0,,,,,,,,,,,,,,,,,,,,,,1973.638472,None,,,,,,,,,,,,,,,,,balance,121,82,aloud,new,null,1971.006479,None,1971.006479,None,2,1.9201833,1971.006479,None,1.9201833,1972.961548,None,1973.469784,None,1973.469784,None,f,0.1286114,1973.469784,None,0.1286114,,,July22Aloud2,5,2022_Jul_22_1407,ProdSingRedoBetween,2021.2.3,60.11266316
,,,,82,0,82,0,,,,,,,,,,,,,,,,,,,,,,1977.751821,None,,,,,,,,,,,,,,,,,detective,51,83,aloud,old,blue,1974.16302,None,1974.16302,None,3,2.8511982,1974.16302,None,2.8511982,1977.047713,None,1977.556605,None,1977.556605,None,n,0.1619277,1977.556605,None,0.1619277,,,July22Aloud2,5,2022_Jul_22_1407,ProdSingRedoBetween,2021.2.3,60.11266316
,,,,83,0,83,0,,,,,,,,,,,,,,,,,,,,,,1981.48895,None,,,,,,,,,,,,,,,,,straight,132,84,aloud,new,null,1978.278637,None,1978.278637,None,1,2.343518,1978.278637,None,2.343518,1980.668699,None,1981.179174,None,1981.179174,None,n,0.2832011,1981.179174,None,0.2832011,,,July22Aloud2,5,2022_Jul_22_1407,ProdSingRedoBetween,2021.2.3,60.11266316
,,,,84,0,84,0,,,,,,,,,,,,,,,,,,,,,,1985.13182,None,,,,,,,,,,,,,,,,,education,37,85,aloud,old,blue,1982.020078,None,1982.020078,None,2,2.3299557,1982.020078,None,2.3299557,1984.373,None,1984.878801,None,1984.878801,None,n,0.215487,1984.878801,None,0.215487,,,July22Aloud2,5,2022_Jul_22_1407,ProdSingRedoBetween,2021.2.3,60.11266316
,,,,85,0,85,0,,,,,,,,,,,,,,,,,,,,,,1988.563399,None,,,,,,,,,,,,,,,,,employment,177,86,aloud,new,null,1985.658495,None,1985.658495,None,2,2.2758753,1985.658495,None,2.2758753,1987.972504,None,1988.487141,None,1988.487141,None,n,0.0551342,1988.487141,None,0.0551342,,,July22Aloud2,5,2022_Jul_22_1407,ProdSingRedoBetween,2021.2.3,60.11266316
,,,,86,0,86,0,,,,,,,,,,,,,,,,,,,,,,1991.851155,None,,,,,,,,,,,,,,,,,watch,125,87,aloud,new,null,1989.091195,None,1989.091195,None,6,1.987329,1989.091195,None,1.987329,1991.113978,None,1991.622804,None,1991.622804,None,r,0.2074246,1991.622804,None,0.2074246,,,July22Aloud2,5,2022_Jul_22_1407,ProdSingRedoBetween,2021.2.3,60.11266316
,,,,87,0,87,0,,,,,,,,,,,,,,,,,,,,,,1995.821169,None,,,,,,,,,,,,,,,,,title,101,88,aloud,new,null,1992.376624,None,1992.376624,None,3,2.4615901,1992.376624,None,2.4615901,1994.875666,None,1995.391457,None,1995.391457,None,f,0.3987736,1995.391457,None,0.3987736,,,July22Aloud2,5,2022_Jul_22_1407,ProdSingRedoBetween,2021.2.3,60.11266316
,,,,88,0,88,0,,,,,,,,,,,,,,,,,,,,,,1998.688406,None,,,,,,,,,,,,,,,,,religion,53,89,aloud,old,blue,1996.347444,None,1996.347444,None,5,1.4189253,1996.347444,None,1.4189253,1997.806053,None,1998.329417,None,1998.329417,None,r,0.332893,1998.329417,None,0.332893,,,July22Aloud2,5,2022_Jul_22_1407,ProdSingRedoBetween,2021.2.3,60.11266316
,,,,89,0,89,0,,,,,,,,,,,,,,,,,,,,,,2001.911905,None,,,,,,,,,,,,,,,,,safety,83,90,aloud,old,red,1999.204545,None,1999.204545,None,6,1.6176154,1999.204545,None,1.6176154,2000.851197,None,2001.371606,None,2001.371606,None,r,0.5144377,2001.371606,None,0.5144377,,,July22Aloud2,5,2022_Jul_22_1407,ProdSingRedoBetween,2021.2.3,60.11266316
,,,,90,0,90,0,,,,,,,,,,,,,,,,,,,,,,2005.395708,None,,,,,,,,,,,,,,,,,series,31,91,aloud,old,blue,2002.424446,None,2002.424446,None,6,2.2537063,2002.424446,None,2.2537063,2004.704287,None,2005.217043,None,2005.217043,None,r,0.1491673,2005.217043,None,0.1491673,,,July22Aloud2,5,2022_Jul_22_1407,ProdSingRedoBetween,2021.2.3,60.11266316
,,,,91,0,91,0,,,,,,,,,,,,,,,,,,,,,,2008.198979,None,,,,,,,,,,,,,,,,,build,179,92,aloud,new,null,2005.907363,None,2005.907363,None,2,1.6670886,2005.907363,None,1.6670886,2007.6009,None,2008.120203,None,2008.120203,None,f,0.0541626,2008.120203,None,0.0541626,,,July22Aloud2,5,2022_Jul_22_1407,ProdSingRedoBetween,2021.2.3,60.11266316
,,,,92,0,92,0,,,,,,,,,,,,,,,,,,,,,,2011.093218,None,,,,,,,,,,,,,,,,,phrase,38,93,aloud,old,blue,2008.729168,None,2008.729168,None,1,1.6771513,2008.729168,None,1.6771513,2010.44987,None,2010.957677,None,2010.957677,None,n,0.0967207,2010.957677,None,0.0967207,,,July22Aloud2,5,2022_Jul_22_1407,ProdSingRedoBetween,2021.2.3,60.11266316
,,,,93,0,93,0,,,,,,,,,,,,,,,,,,,,,,2015.327641,None,,,,,,,,,,,,,,,,,month,40,94,aloud,old,blue,2011.615516,None,2011.615516,None,1,2.9425184,2011.615516,None,2.9425184,2014.586559,None,2015.096391,None,2015.096391,None,n,0.1979288,2015.096391,None,0.1979288,,,July22Aloud2,5,2022_Jul_22_1407,ProdSingRedoBetween,2021.2.3,60.11266316
,,,,94,0,94,0,,,,,,,,,,,,,,,,,,,,,,2018.04352,None,,,,,,,,,,,,,,,,,trial,162,95,aloud,new,null,2015.852126,None,2015.852126,None,3,1.4742326,2015.852126,None,1.4742326,2017.368881,None,2017.880969,None,2017.880969,None,n,0.1331912,2017.880969,None,0.1331912,,,July22Aloud2,5,2022_Jul_22_1407,ProdSingRedoBetween,2021.2.3,60.11266316
,,,,95,0,95,0,,,,,,,,,,,,,,,,,,,,,,2022.316605,None,,,,,,,,,,,,,,,,,suspect,133,96,aloud,new,null,2018.573542,None,2018.573542,None,5,1.7687246,2018.573542,None,1.7687246,2020.377749,None,2020.886167,None,2020.886167,None,f,1.4081832,2020.886167,None,1.4081832,,,July22Aloud2,5,2022_Jul_22_1407,ProdSingRedoBetween,2021.2.3,60.11266316
,,,,96,0,96,0,,,,,,,,,,,,,,,,,,,,,,2025.287619,None,,,,,,,,,,,,,,,,,incident,18,97,aloud,old,yellow,2022.840313,None,2022.840313,None,6,1.5738777,2022.840313,None,1.5738777,2024.439097,None,2024.953461,None,2024.953461,None,f,0.3009267,2024.953461,None,0.3009267,,,July22Aloud2,5,2022_Jul_22_1407,ProdSingRedoBetween,2021.2.3,60.11266316
,,,,97,0,97,0,,,,,,,,,,,,,,,,,,,,,,2030.326312,None,,,,,,,,,,,,,,,,,welcome,124,98,aloud,new,null,2025.809144,None,2025.809144,None,3,3.5492043,2025.809144,None,3.5492043,2029.400265,None,2029.907457,None,2029.907457,None,f,0.3868808,2029.907457,None,0.3868808,,,July22Aloud2,5,2022_Jul_22_1407,ProdSingRedoBetween,2021.2.3,60.11266316
,,,,98,0,98,0,,,,,,,,,,,,,,,,,,,,,,2033.127597,None,,,,,,,,,,,,,,,,,short,8,99,aloud,old,yellow,2030.854254,None,2030.854254,None,6,1.5358459,2030.854254,None,1.5358459,2032.428259,None,2032.945164,None,2032.945164,None,r,0.1570936,2032.945164,None,0.1570936,,,July22Aloud2,5,2022_Jul_22_1407,ProdSingRedoBetween,2021.2.3,60.11266316
,,,,99,0,99,0,,,,,,,,,,,,,,,,,,,,,,2035.699029,None,,,,,,,,,,,,,,,,,fight,82,100,aloud,old,red,2033.652409,None,2033.652409,None,6,1.2097074,2033.652409,None,1.2097074,2034.8947,None,2035.413639,None,2035.413639,None,r,0.2488014,2035.413639,None,0.2488014,,,July22Aloud2,5,2022_Jul_22_1407,ProdSingRedoBetween,2021.2.3,60.11266316
,,,,100,0,100,0,,,,,,,,,,,,,,,,,,,,,,2038.500319,None,,,,,,,,,,,,,,,,,junior,140,101,aloud,new,null,2036.225843,None,2036.225843,None,1,1.4844217,2036.225843,None,1.4844217,2037.735416,None,2038.249485,None,2038.249485,None,n,0.2288644,2038.249485,None,0.2288644,,,July22Aloud2,5,2022_Jul_22_1407,ProdSingRedoBetween,2021.2.3,60.11266316
,,,,101,0,101,0,,,,,,,,,,,,,,,,,,,,,,2041.541659,None,,,,,,,,,,,,,,,,,dozen,141,102,aloud,new,null,2039.024659,None,2039.024659,None,1,1.5976689,2039.024659,None,1.5976689,2040.662932,None,2041.171742,None,2041.171742,None,n,0.3385878,2041.171742,None,0.3385878,,,July22Aloud2,5,2022_Jul_22_1407,ProdSingRedoBetween,2021.2.3,60.11266316
,,,,102,0,102,0,,,,,,,,,,,,,,,,,,,,,,2044.366573,None,,,,,,,,,,,,,,,,,personnel,117,103,aloud,new,null,2042.067993,None,2042.067993,None,2,1.5461498,2042.067993,None,1.5461498,2043.643196,None,2044.149452,None,2044.149452,None,f,0.2006702,2044.149452,None,0.2006702,,,July22Aloud2,5,2022_Jul_22_1407,ProdSingRedoBetween,2021.2.3,60.11266316
,,,,103,0,103,0,,,,,,,,,,,,,,,,,,,,,,2048.952844,None,,,,,,,,,,,,,,,,,color,73,104,aloud,old,red,2044.878375,None,2044.878375,None,4,3.1679634,2044.878375,None,3.1679634,2048.08268,None,2048.595259,None,2048.595259,None,f,0.3231053,2048.595259,None,0.3231053,,,July22Aloud2,5,2022_Jul_22_1407,ProdSingRedoBetween,2021.2.3,60.11266316
,,,,104,0,104,0,,,,,,,,,,,,,,,,,,,,,,2051.859518,None,,,,,,,,,,,,,,,,,novel,99,105,aloud,new,null,2049.469924,None,2049.469924,None,1,1.336369,2049.469924,None,1.336369,2050.831548,None,2051.349352,None,2051.349352,None,n,0.4887473,2051.349352,None,0.4887473,,,July22Aloud2,5,2022_Jul_22_1407,ProdSingRedoBetween,2021.2.3,60.11266316
,,,,105,0,105,0,,,,,,,,,,,,,,,,,,,,,,2055.894348,None,,,,,,,,,,,,,,,,,birth,42,106,aloud,old,blue,2052.386644,None,2052.386644,None,3,2.0916667,2052.386644,None,2.0916667,2054.506987,None,2055.016588,None,2055.016588,None,r,0.8533507,2055.016588,None,0.8533507,,,July22Aloud2,5,2022_Jul_22_1407,ProdSingRedoBetween,2021.2.3,60.11266316
,,,,106,0,106,0,,,,,,,,,,,,,,,,,,,,,,2058.751054,None,,,,,,,,,,,,,,,,,union,5,107,aloud,old,yellow,2056.410347,None,2056.410347,None,5,1.4279667,2056.410347,None,1.4279667,2057.873854,None,2058.385668,None,2058.385668,None,r,0.3404603,2058.385668,None,0.3404603,,,July22Aloud2,5,2022_Jul_22_1407,ProdSingRedoBetween,2021.2.3,60.11266316
,,,,107,0,107,0,,,,,,,,,,,,,,,,,,,,,,2061.857892,None,,,,,,,,,,,,,,,,,minute,19,108,aloud,old,yellow,2059.276154,None,2059.276154,None,3,1.6743152,2059.276154,None,1.6743152,2060.98467,None,2061.496458,None,2061.496458,None,f,0.3338912,2061.496458,None,0.3338912,,,July22Aloud2,5,2022_Jul_22_1407,ProdSingRedoBetween,2021.2.3,60.11266316
,,,,108,0,108,0,,,,,,,,,,,,,,,,,,,,,,2064.80428,None,,,,,,,,,,,,,,,,,judge,104,109,aloud,new,null,2062.381091,None,2062.381091,None,5,1.3608843,2062.381091,None,1.3608843,2063.769202,None,2064.269529,None,2064.269529,None,f,0.5044647,2064.269529,None,0.5044647,,,July22Aloud2,5,2022_Jul_22_1407,ProdSingRedoBetween,2021.2.3,60.11266316
,,,,109,0,109,0,,,,,,,,,,,,,,,,,,,,,,2067.816844,None,,,,,,,,,,,,,,,,,contract,173,110,aloud,new,null,2065.30395,None,2065.30395,None,3,1.5824262,2065.30395,None,1.5824262,2066.924947,None,2067.446878,None,2067.446878,None,f,0.3435947,2067.446878,None,0.3435947,,,July22Aloud2,5,2022_Jul_22_1407,ProdSingRedoBetween,2021.2.3,60.11266316
,,,,110,0,110,0,,,,,,,,,,,,,,,,,,,,,,2070.517245,None,,,,,,,,,,,,,,,,,service,87,111,aloud,old,red,2068.347117,None,2068.347117,None,6,1.5070686,2068.347117,None,1.5070686,2069.888946,None,2070.401524,None,2070.401524,None,r,0.0766799,2070.401524,None,0.0766799,,,July22Aloud2,5,2022_Jul_22_1407,ProdSingRedoBetween,2021.2.3,60.11266316
,,,,111,0,111,0,,,,,,,,,,,,,,,,,,,,,,2075.790533,None,,,,,,,,,,,,,,,,,portion,78,112,aloud,old,red,2071.044001,None,2071.044001,None,6,4.0822407,2071.044001,None,4.0822407,2075.159108,None,2075.675044,None,2075.675044,None,r,0.0830772,2075.675044,None,0.0830772,,,July22Aloud2,5,2022_Jul_22_1407,ProdSingRedoBetween,2021.2.3,60.11266316
,,,,112,0,112,0,,,,,,,,,,,,,,,,,,,,,,2078.727479,None,,,,,,,,,,,,,,,,,career,146,113,aloud,new,null,2076.312965,None,2076.312965,None,3,1.5011027,2076.312965,None,1.5011027,2077.83629,None,2078.357647,None,2078.357647,None,f,0.3445919,2078.357647,None,0.3445919,,,July22Aloud2,5,2022_Jul_22_1407,ProdSingRedoBetween,2021.2.3,60.11266316
,,,,113,0,113,0,,,,,,,,,,,,,,,,,,,,,,2081.995195,None,,,,,,,,,,,,,,,,,period,113,114,aloud,new,null,2079.250615,None,2079.250615,None,5,2.0279281,2079.250615,None,2.0279281,2081.319966,None,2081.829211,None,2081.829211,None,r,0.1370837,2081.829211,None,0.1370837,,,July22Aloud2,5,2022_Jul_22_1407,ProdSingRedoBetween,2021.2.3,60.11266316
,,,,114,0,114,0,,,,,,,,,,,,,,,,,,,,,,2084.772019,None,,,,,,,,,,,,,,,,,power,60,115,aloud,old,red,2082.520385,None,2082.520385,None,2,1.6457193,2082.520385,None,1.6457193,2084.200135,None,2084.717137,None,2084.717137,None,n,0.0251491,2084.717137,None,0.0251491,,,July22Aloud2,5,2022_Jul_22_1407,ProdSingRedoBetween,2021.2.3,60.11266316
,,,,115,0,115,0,,,,,,,,,,,,,,,,,,,,,,2087.433196,None,,,,,,,,,,,,,,,,,brief,10,116,aloud,old,yellow,2085.287797,None,2085.287797,None,3,1.4704472,2085.287797,None,1.4704472,2086.792248,None,2087.300496,None,2087.300496,None,f,0.0977667,2087.300496,None,0.0977667,,,July22Aloud2,5,2022_Jul_22_1407,ProdSingRedoBetween,2021.2.3,60.11266316
,,,,116,0,116,0,,,,,,,,,,,,,,,,,,,,,,2090.454306,None,,,,,,,,,,,,,,,,,history,166,117,aloud,new,null,2087.955829,None,2087.955829,None,4,1.8105243,2087.955829,None,1.8105243,2089.812176,None,2090.32036,None,2090.32036,None,f,0.1098988,2090.32036,None,0.1098988,,,July22Aloud2,5,2022_Jul_22_1407,ProdSingRedoBetween,2021.2.3,60.11266316
,,,,117,0,117,0,,,,,,,,,,,,,,,,,,,,,,2094.574011,None,,,,,,,,,,,,,,,,,meeting,61,118,aloud,old,red,2090.976032,None,2090.976032,None,5,1.9021911,2090.976032,None,1.9021911,2092.914882,None,2093.421463,None,2093.421463,None,r,1.1291396,2093.421463,None,1.1291396,,,July22Aloud2,5,2022_Jul_22_1407,ProdSingRedoBetween,2021.2.3,60.11266316
,,,,118,0,118,0,,,,,,,,,,,,,,,,,,,,,,2097.796822,None,,,,,,,,,,,,,,,,,hearing,16,119,aloud,old,yellow,2095.09781,None,2095.09781,None,5,1.9004138,2095.09781,None,1.9004138,2097.034646,None,2097.540917,None,2097.540917,None,r,0.2253816,2097.540917,None,0.2253816,,,July22Aloud2,5,2022_Jul_22_1407,ProdSingRedoBetween,2021.2.3,60.11266316
,,,,119,0,119,0,,,,,,,,,,,,,,,,,,,,,,2100.547422,None,,,,,,,,,,,,,,,,,citizen,41,120,aloud,old,blue,2098.316744,None,2098.316744,None,6,1.4335552,2098.316744,None,1.4335552,2099.792602,None,2100.313877,None,2100.313877,None,r,0.1963116,2100.313877,None,0.1963116,,,July22Aloud2,5,2022_Jul_22_1407,ProdSingRedoBetween,2021.2.3,60.11266316
,,,,120,0,120,0,,,,,,,,,,,,,,,,,,,,,,2104.225931,None,,,,,,,,,,,,,,,,,school,178,121,aloud,new,null,2101.072338,None,2101.072338,None,4,1.7818737,2101.072338,None,1.7818737,2102.892281,None,2103.399072,None,2103.399072,None,f,0.8068706,2103.399072,None,0.8068706,,,July22Aloud2,5,2022_Jul_22_1407,ProdSingRedoBetween,2021.2.3,60.11266316
,,,,121,0,121,0,,,,,,,,,,,,,,,,,,,,,,2108.273962,None,,,,,,,,,,,,,,,,,smooth,118,122,aloud,new,null,2104.727056,None,2104.727056,None,2,1.4311288,2104.727056,None,1.4311288,2106.193935,None,2106.704519,None,2106.704519,None,f,1.5337963,2106.704519,None,1.5337963,,,July22Aloud2,5,2022_Jul_22_1407,ProdSingRedoBetween,2021.2.3,60.11266316
,,,,122,0,122,0,,,,,,,,,,,,,,,,,,,,,,2111.123766,None,,,,,,,,,,,,,,,,,crisis,123,123,aloud,new,null,2108.797502,None,2108.797502,None,1,1.2726849,2108.797502,None,1.2726849,2110.114644,None,2110.62433,None,2110.62433,None,n,0.4699116,2110.62433,None,0.4699116,,,July22Aloud2,5,2022_Jul_22_1407,ProdSingRedoBetween,2021.2.3,60.11266316
,,,,123,0,123,0,,,,,,,,,,,,,,,,,,,,,,2113.65579,None,,,,,,,,,,,,,,,,,south,54,124,aloud,old,blue,2111.649528,None,2111.649528,None,1,1.1487264,2111.649528,None,1.1487264,2112.835393,None,2113.341791,None,2113.341791,None,n,0.2882452,2113.341791,None,0.2882452,,,July22Aloud2,5,2022_Jul_22_1407,ProdSingRedoBetween,2021.2.3,60.11266316
,,,,124,0,124,0,,,,,,,,,,,,,,,,,,,,,,2116.281152,None,,,,,,,,,,,,,,,,,theme,24,125,aloud,old,yellow,2114.182044,None,2114.182044,None,1,1.2081079,2114.182044,None,1.2081079,2115.427749,None,2115.942309,None,2115.942309,None,n,0.3119908,2115.942309,None,0.3119908,,,July22Aloud2,5,2022_Jul_22_1407,ProdSingRedoBetween,2021.2.3,60.11266316
,,,,125,0,125,0,,,,,,,,,,,,,,,,,,,,,,2118.728041,None,,,,,,,,,,,,,,,,,order,91,126,aloud,new,null,2116.801758,None,2116.801758,None,1,1.2765786,2116.801758,None,1.2765786,2118.120595,None,2118.630997,None,2118.630997,None,n,0.063127,2118.630997,None,0.063127,,,July22Aloud2,5,2022_Jul_22_1407,ProdSingRedoBetween,2021.2.3,60.11266316
,,,,126,0,126,0,,,,,,,,,,,,,,,,,,,,,,2121.517621,None,,,,,,,,,,,,,,,,,primary,105,127,aloud,new,null,2119.261462,None,2119.261462,None,3,1.5367864,2119.261462,None,1.5367864,2120.847726,None,2121.367363,None,2121.367363,None,f,0.1267745,2121.367363,None,0.1267745,,,July22Aloud2,5,2022_Jul_22_1407,ProdSingRedoBetween,2021.2.3,60.11266316
,,,,127,0,127,0,,,,,,,,,,,,,,,,,,,,,,2124.319443,None,,,,,,,,,,,,,,,,,touch,2,128,aloud,old,yellow,2122.040132,None,2122.040132,None,5,1.6300696,2122.040132,None,1.6300696,2123.714466,None,2124.236903,None,2124.236903,None,r,0.0574371,2124.236903,None,0.0574371,,,July22Aloud2,5,2022_Jul_22_1407,ProdSingRedoBetween,2021.2.3,60.11266316
,,,,128,0,128,0,,,,,,,,,,,,,,,,,,,,,,2127.048808,None,,,,,,,,,,,,,,,,,write,77,129,aloud,old,red,2124.843473,None,2124.843473,None,3,1.4826928,2124.843473,None,1.4826928,2126.364882,None,2126.865475,None,2126.865475,None,f,0.1564461,2126.865475,None,0.1564461,,,July22Aloud2,5,2022_Jul_22_1407,ProdSingRedoBetween,2021.2.3,60.11266316
,,,,129,0,129,0,,,,,,,,,,,,,,,,,,,,,,2129.885074,None,,,,,,,,,,,,,,,,,minor,171,130,aloud,new,null,2127.549411,None,2127.549411,None,4,1.6564714,2127.549411,None,1.6564714,2129.244668,None,2129.751617,None,2129.751617,None,f,0.1022935,2129.751617,None,0.1022935,,,July22Aloud2,5,2022_Jul_22_1407,ProdSingRedoBetween,2021.2.3,60.11266316
,,,,130,0,130,0,,,,,,,,,,,,,,,,,,,,,,2132.30584,None,,,,,,,,,,,,,,,,,agency,174,131,aloud,new,null,2130.402295,None,2130.402295,None,1,1.227855,2130.402295,None,1.227855,2131.65359,None,2132.165484,None,2132.165484,None,n,0.1127158,2132.165484,None,0.1127158,,,July22Aloud2,5,2022_Jul_22_1407,ProdSingRedoBetween,2021.2.3,60.11266316
,,,,131,0,131,0,,,,,,,,,,,,,,,,,,,,,,2135.884538,None,,,,,,,,,,,,,,,,,guide,28,132,aloud,old,yellow,2132.819055,None,2132.819055,None,6,2.1712616,2132.819055,None,2.1712616,2135.023411,None,2135.532278,None,2135.532278,None,f,0.3140125,2135.532278,None,0.3140125,,,July22Aloud2,5,2022_Jul_22_1407,ProdSingRedoBetween,2021.2.3,60.11266316
,,,,132,0,132,0,,,,,,,,,,,,,,,,,,,,,,2139.434392,None,,,,,,,,,,,,,,,,,equipment,22,133,aloud,old,yellow,2136.412878,None,2136.412878,None,2,1.5853794,2136.412878,None,1.5853794,2138.046263,None,2138.553374,None,2138.553374,None,f,0.8530112,2138.553374,None,0.8530112,,,July22Aloud2,5,2022_Jul_22_1407,ProdSingRedoBetween,2021.2.3,60.11266316
,,,,133,0,133,0,,,,,,,,,,,,,,,,,,,,,,2143.95026,None,,,,,,,,,,,,,,,,,running,48,134,aloud,old,blue,2139.955009,None,2139.955009,None,2,2.47511,2139.955009,None,2.47511,2142.462469,None,2142.9716,None,2142.9716,None,n,0.9466328,2142.9716,None,0.9466328,,,July22Aloud2,5,2022_Jul_22_1407,ProdSingRedoBetween,2021.2.3,60.11266316
,,,,134,0,134,0,,,,,,,,,,,,,,,,,,,,,,2146.704952,None,,,,,,,,,,,,,,,,,weather,59,135,aloud,old,yellow,2144.466115,None,2144.466115,None,3,1.5240829,2144.466115,None,1.5240829,2146.028588,None,2146.54328,None,2146.54328,None,f,0.1347998,2146.54328,None,0.1347998,,,July22Aloud2,5,2022_Jul_22_1407,ProdSingRedoBetween,2021.2.3,60.11266316
,,,,135,0,135,0,,,,,,,,,,,,,,,,,,,,,,2149.544077,None,,,,,,,,,,,,,,,,,story,14,136,aloud,old,yellow,2147.233073,None,2147.233073,None,4,1.6051023,2147.233073,None,1.6051023,2148.871814,None,2149.382038,None,2149.382038,None,f,0.1281844,2149.382038,None,0.1281844,,,July22Aloud2,5,2022_Jul_22_1407,ProdSingRedoBetween,2021.2.3,60.11266316
,,,,136,0,136,0,,,,,,,,,,,,,,,,,,,,,,2152.824537,None,,,,,,,,,,,,,,,,,travel,52,137,aloud,old,blue,2150.068535,None,2150.068535,None,5,1.737589,2150.068535,None,1.737589,2151.841266,None,2152.349742,None,2152.349742,None,f,0.4482716,2152.349742,None,0.4482716,,,July22Aloud2,5,2022_Jul_22_1407,ProdSingRedoBetween,2021.2.3,60.11266316
,,,,137,0,137,0,,,,,,,,,,,,,,,,,,,,,,2156.129862,None,,,,,,,,,,,,,,,,,leader,66,138,aloud,old,red,2153.340026,None,2153.340026,None,4,2.0581729,2153.340026,None,2.0581729,2155.442362,None,2155.948996,None,2155.948996,None,f,0.1611679,2155.948996,None,0.1611679,,,July22Aloud2,5,2022_Jul_22_1407,ProdSingRedoBetween,2021.2.3,60.11266316
,,,,138,0,138,0,,,,,,,,,,,,,,,,,,,,,,2159.837358,None,,,,,,,,,,,,,,,,,course,114,139,aloud,new,null,2156.687268,None,2156.687268,None,2,2.4388886,2156.687268,None,2.4388886,2159.160243,None,2159.673748,None,2159.673748,None,f,0.1324942,2159.673748,None,0.1324942,,,July22Aloud2,5,2022_Jul_22_1407,ProdSingRedoBetween,2021.2.3,60.11266316
,,,,139,0,139,0,,,,,,,,,,,,,,,,,,,,,,2163.270889,None,,,,,,,,,,,,,,,,,thing,92,140,aloud,new,null,2160.361228,None,2160.361228,None,1,1.3891037,2160.361228,None,1.3891037,2161.776884,None,2162.292413,None,2162.292413,None,n,0.9457414,2162.292413,None,0.9457414,,,July22Aloud2,5,2022_Jul_22_1407,ProdSingRedoBetween,2021.2.3,60.11266316
,,,,140,0,140,0,,,,,,,,,,,,,,,,,,,,,,2166.157173,None,,,,,,,,,,,,,,,,,grade,76,141,aloud,old,red,2163.798343,None,2163.798343,None,3,1.5679601,2163.798343,None,1.5679601,2165.407617,None,2165.928133,None,2165.928133,None,f,0.1979586,2165.928133,None,0.1979586,,,July22Aloud2,5,2022_Jul_22_1407,ProdSingRedoBetween,2021.2.3,60.11266316
,,,,141,0,141,0,,,,,,,,,,,,,,,,,,,,,,2169.110184,None,,,,,,,,,,,,,,,,,cross,116,142,aloud,new,null,2166.687353,None,2166.687353,None,2,1.7508239,2166.687353,None,1.7508239,2168.468625,None,2168.983849,None,2168.983849,None,n,0.1022373,2168.983849,None,0.1022373,,,July22Aloud2,5,2022_Jul_22_1407,ProdSingRedoBetween,2021.2.3,60.11266316
,,,,142,0,142,0,,,,,,,,,,,,,,,,,,,,,,2172.078399,None,,,,,,,,,,,,,,,,,skill,89,143,aloud,old,red,2169.640747,None,2169.640747,None,2,1.6373067,2169.640747,None,1.6373067,2171.302165,None,2171.820584,None,2171.820584,None,f,0.241469,2171.820584,None,0.241469,,,July22Aloud2,5,2022_Jul_22_1407,ProdSingRedoBetween,2021.2.3,60.11266316
,,,,143,0,143,0,,,,,,,,,,,,,,,,,,,,,,2175.57229,None,,,,,,,,,,,,,,,,,subject,96,144,aloud,new,null,2172.592937,None,2172.592937,None,5,2.1250858,2172.592937,None,2.1250858,2174.754849,None,2175.273628,None,2175.273628,None,f,0.2687955,2175.273628,None,0.2687955,,,July22Aloud2,5,2022_Jul_22_1407,ProdSingRedoBetween,2021.2.3,60.11266316
,,,,144,0,144,0,,,,,,,,,,,,,,,,,,,,,,2178.834778,None,,,,,,,,,,,,,,,,,property,46,145,aloud,old,blue,2176.096812,None,2176.096812,None,3,1.9253728,2176.096812,None,1.9253728,2178.067552,None,2178.575703,None,2178.575703,None,f,0.2303334,2178.575703,None,0.2303334,,,July22Aloud2,5,2022_Jul_22_1407,ProdSingRedoBetween,2021.2.3,60.11266316
,,,,145,0,145,0,,,,,,,,,,,,,,,,,,,,,,2181.703399,None,,,,,,,,,,,,,,,,,bureau,153,146,aloud,new,null,2179.349097,None,2179.349097,None,1,1.6489982,2179.349097,None,1.6489982,2181.03307,None,2181.54285,None,2181.54285,None,n,0.1431314,2181.54285,None,0.1431314,,,July22Aloud2,5,2022_Jul_22_1407,ProdSingRedoBetween,2021.2.3,60.11266316
,,,,146,0,146,0,,,,,,,,,,,,,,,,,,,,,,2184.42395,None,,,,,,,,,,,,,,,,,business,81,147,aloud,old,red,2182.208567,None,2182.208567,None,1,1.5655263,2182.208567,None,1.5655263,2183.81471,None,2184.332786,None,2184.332786,None,n,0.0652307,2184.332786,None,0.0652307,,,July22Aloud2,5,2022_Jul_22_1407,ProdSingRedoBetween,2021.2.3,60.11266316
,,,,147,0,147,0,,,,,,,,,,,,,,,,,,,,,,2187.080065,None,,,,,,,,,,,,,,,,,plane,115,148,aloud,new,null,2184.939354,None,2184.939354,None,1,1.3146984,2184.939354,None,1.3146984,2186.284147,None,2186.800989,None,2186.800989,None,n,0.2450963,2186.800989,None,0.2450963,,,July22Aloud2,5,2022_Jul_22_1407,ProdSingRedoBetween,2021.2.3,60.11266316
,,,,148,0,148,0,,,,,,,,,,,,,,,,,,,,,,2190.429653,None,,,,,,,,,,,,,,,,,master,33,149,aloud,old,blue,2187.606933,None,2187.606933,None,6,2.1193993,2187.606933,None,2.1193993,2189.763311,None,2190.288815,None,2190.288815,None,r,0.1171004,2190.288815,None,0.1171004,,,July22Aloud2,5,2022_Jul_22_1407,ProdSingRedoBetween,2021.2.3,60.11266316
,,,,149,0,149,0,,,,,,,,,,,,,,,,,,,,,,2193.788257,None,,,,,,,,,,,,,,,,,defeat,93,150,aloud,new,null,2190.944667,None,2190.944667,None,3,2.0932225,2190.944667,None,2.0932225,2193.066606,None,2193.597501,None,2193.597501,None,r,0.1603792,2193.597501,None,0.1603792,,,July22Aloud2,5,2022_Jul_22_1407,ProdSingRedoBetween,2021.2.3,60.11266316
,,,,150,0,150,0,,,,,,,,,,,,,,,,,,,,,,2198.089828,None,,,,,,,,,,,,,,,,,beginning,109,151,aloud,new,null,2194.299518,None,2194.299518,None,2,2.9547339,2194.299518,None,2.9547339,2197.279875,None,2197.794283,None,2197.794283,None,n,0.2758708,2197.794283,None,0.2758708,,,July22Aloud2,5,2022_Jul_22_1407,ProdSingRedoBetween,2021.2.3,60.11266316
,,,,151,0,151,0,,,,,,,,,,,,,,,,,,,,,,2202.108381,None,,,,,,,,,,,,,,,,,literature,9,152,aloud,old,yellow,2198.618677,None,2198.618677,None,4,2.7473472,2198.618677,None,2.7473472,2201.403909,None,2201.915096,None,2201.915096,None,f,0.1630399,2201.915096,None,0.1630399,,,July22Aloud2,5,2022_Jul_22_1407,ProdSingRedoBetween,2021.2.3,60.11266316
,,,,152,0,152,0,,,,,,,,,,,,,,,,,,,,,,2204.543725,None,,,,,,,,,,,,,,,,,angle,164,153,aloud,new,null,2202.623374,None,2202.623374,None,1,1.2549513,2202.623374,None,1.2549513,2203.926562,None,2204.435369,None,2204.435369,None,n,0.0906223,2204.435369,None,0.0906223,,,July22Aloud2,5,2022_Jul_22_1407,ProdSingRedoBetween,2021.2.3,60.11266316
,,,,153,0,153,0,,,,,,,,,,,,,,,,,,,,,,2208.503559,None,,,,,,,,,,,,,,,,,dispute,136,154,aloud,new,null,2205.060325,None,2205.060325,None,3,2.3618243,2205.060325,None,2.3618243,2207.46399,None,2207.97437,None,2207.97437,None,f,0.5038238,2207.97437,None,0.5038238,,,July22Aloud2,5,2022_Jul_22_1407,ProdSingRedoBetween,2021.2.3,60.11266316
,,,,154,0,154,0,,,,,,,,,,,,,,,,,,,,,,2211.509489,None,,,,,,,,,,,,,,,,,finance,108,155,aloud,new,null,2209.02775,None,2209.02775,None,2,1.8344963,2209.02775,None,1.8344963,2210.89799,None,2211.408724,None,2211.408724,None,f,0.0614781,2211.408724,None,0.0614781,,,July22Aloud2,5,2022_Jul_22_1407,ProdSingRedoBetween,2021.2.3,60.11266316
,,,,155,0,155,0,,,,,,,,,,,,,,,,,,,,,,2214.694943,None,,,,,,,,,,,,,,,,,substance,95,156,aloud,new,null,2212.033218,None,2212.033218,None,1,2.0050262,2212.033218,None,2.0050262,2214.087091,None,2214.594802,None,2214.594802,None,n,0.0755021,2214.594802,None,0.0755021,,,July22Aloud2,5,2022_Jul_22_1407,ProdSingRedoBetween,2021.2.3,60.11266316
,,,,156,0,156,0,,,,,,,,,,,,,,,,,,,,,,2220.586461,None,,,,,,,,,,,,,,,,,shape,36,157,aloud,old,blue,2215.220645,None,2215.220645,None,3,2.4978288,2215.220645,None,2.4978288,2217.757005,None,2218.265338,None,2218.265338,None,f,2.2848677,2218.265338,None,2.2848677,,,July22Aloud2,5,2022_Jul_22_1407,ProdSingRedoBetween,2021.2.3,60.11266316
,,,,157,0,157,0,,,,,,,,,,,,,,,,,,,,,,2224.262493,None,,,,,,,,,,,,,,,,,member,139,158,aloud,new,null,2221.100278,None,2221.100278,None,5,2.0819219,2221.100278,None,2.0819219,2223.226394,None,2223.737192,None,2223.737192,None,f,0.5086234,2223.737192,None,0.5086234,,,July22Aloud2,5,2022_Jul_22_1407,ProdSingRedoBetween,2021.2.3,60.11266316
,,,,158,0,158,0,,,,,,,,,,,,,,,,,,,,,,2228.219381,None,,,,,,,,,,,,,,,,,error,154,159,aloud,new,null,2224.763419,None,2224.763419,None,1,2.6826692,2224.763419,None,2.6826692,2227.473791,None,2227.990497,None,2227.990497,None,n,0.207709,2227.990497,None,0.207709,,,July22Aloud2,5,2022_Jul_22_1407,ProdSingRedoBetween,2021.2.3,60.11266316
,,,,159,0,159,0,,,,,,,,,,,,,,,,,,,,,,2231.089947,None,,,,,,,,,,,,,,,,,prime,152,160,aloud,new,null,2228.745302,None,2228.745302,None,2,1.5009188,2228.745302,None,1.5009188,2230.280499,None,2230.794502,None,2230.794502,None,n,0.2756015,2230.794502,None,0.2756015,,,July22Aloud2,5,2022_Jul_22_1407,ProdSingRedoBetween,2021.2.3,60.11266316
,,,,160,0,160,0,,,,,,,,,,,,,,,,,,,,,,2234.231449,None,,,,,,,,,,,,,,,,,heavy,49,161,aloud,old,blue,2231.616798,None,2231.616798,None,5,1.7733554,2231.616798,None,1.7733554,2233.424267,None,2233.929966,None,2233.929966,None,r,0.2764406,2233.929966,None,0.2764406,,,July22Aloud2,5,2022_Jul_22_1407,ProdSingRedoBetween,2021.2.3,60.11266316
,,,,161,0,161,0,,,,,,,,,,,,,,,,,,,,,,2237.545311,None,,,,,,,,,,,,,,,,,design,15,162,aloud,old,yellow,2234.754812,None,2234.754812,None,4,1.5950911,2234.754812,None,1.5950911,2236.385307,None,2236.903422,None,2236.903422,None,f,0.6227362,2236.903422,None,0.6227362,,,July22Aloud2,5,2022_Jul_22_1407,ProdSingRedoBetween,2021.2.3,60.11266316
,,,,162,0,162,0,,,,,,,,,,,,,,,,,,,,,,2240.170101,None,,,,,,,,,,,,,,,,,under,45,163,aloud,old,blue,2238.071922,None,2238.071922,None,2,1.3263913,2238.071922,None,1.3263913,2239.443985,None,2239.953432,None,2239.953432,None,n,0.1807129,2239.953432,None,0.1807129,,,July22Aloud2,5,2022_Jul_22_1407,ProdSingRedoBetween,2021.2.3,60.11266316
,,,,163,0,163,0,,,,,,,,,,,,,,,,,,,,,,2243.902025,None,,,,,,,,,,,,,,,,,bitter,67,164,aloud,old,red,2240.693939,None,2240.693939,None,6,1.7921857,2240.693939,None,1.7921857,2242.523584,None,2243.042722,None,2243.042722,None,r,0.8273274,2243.042722,None,0.8273274,,,July22Aloud2,5,2022_Jul_22_1407,ProdSingRedoBetween,2021.2.3,60.11266316
,,,,164,0,164,0,,,,,,,,,,,,,,,,,,,,,,2247.670393,None,,,,,,,,,,,,,,,,,drove,58,165,aloud,old,blue,2244.42992,None,2244.42992,None,6,1.4883988,2244.42992,None,1.4883988,2245.94594,None,2246.458918,None,2246.458918,None,f,1.1792332,2246.458918,None,1.1792332,,,July22Aloud2,5,2022_Jul_22_1407,ProdSingRedoBetween,2021.2.3,60.11266316
,,,,165,0,165,0,,,,,,,,,,,,,,,,,,,,,,2251.063551,None,,,,,,,,,,,,,,,,,institute,79,166,aloud,old,red,2248.183563,None,2248.183563,None,4,1.9666722,2248.183563,None,1.9666722,2250.194245,None,2250.715391,None,2250.715391,None,r,0.3148128,2250.715391,None,0.3148128,,,July22Aloud2,5,2022_Jul_22_1407,ProdSingRedoBetween,2021.2.3,60.11266316
,,,,166,0,166,0,,,,,,,,,,,,,,,,,,,,,,2253.698893,None,,,,,,,,,,,,,,,,,edition,161,167,aloud,new,null,2251.587978,None,2251.587978,None,1,1.3942162,2251.587978,None,1.3942162,2253.024294,None,2253.530697,None,2253.530697,None,n,0.1314859,2253.530697,None,0.1314859,,,July22Aloud2,5,2022_Jul_22_1407,ProdSingRedoBetween,2021.2.3,60.11266316
,,,,167,0,167,0,,,,,,,,,,,,,,,,,,,,,,2256.844986,None,,,,,,,,,,,,,,,,,harmony,160,168,aloud,new,null,2254.213823,None,2254.213823,None,2,1.7120682,2254.213823,None,1.7120682,2255.953665,None,2256.477676,None,2256.477676,None,f,0.3521423,2256.477676,None,0.3521423,,,July22Aloud2,5,2022_Jul_22_1407,ProdSingRedoBetween,2021.2.3,60.11266316
,,,,168,0,168,0,,,,,,,,,,,,,,,,,,,,,,2261.651344,None,,,,,,,,,,,,,,,,,graduate,102,169,aloud,new,null,2257.345776,None,2257.345776,None,4,3.6362585,2257.345776,None,3.6362585,2261.009917,None,2261.523448,None,2261.523448,None,f,0.1065286,2261.523448,None,0.1065286,,,July22Aloud2,5,2022_Jul_22_1407,ProdSingRedoBetween,2021.2.3,60.11266316
,,,,169,0,169,0,,,,,,,,,,,,,,,,,,,,,,2264.072423,None,,,,,,,,,,,,,,,,,couch,130,170,aloud,new,null,2262.164318,None,2262.164318,None,2,1.1058294,2262.164318,None,1.1058294,2263.300921,None,2263.809871,None,2263.809871,None,f,0.2364609,2263.809871,None,0.2364609,,,July22Aloud2,5,2022_Jul_22_1407,ProdSingRedoBetween,2021.2.3,60.11266316
,,,,170,0,170,0,,,,,,,,,,,,,,,,,,,,,,2269.547289,None,,,,,,,,,,,,,,,,,mechanical,69,171,aloud,old,red,2264.602207,None,2264.602207,None,4,3.7077088,2264.602207,None,3.7077088,2268.339816,None,2268.849982,None,2268.849982,None,f,0.660315,2268.849982,None,0.660315,,,July22Aloud2,5,2022_Jul_22_1407,ProdSingRedoBetween,2021.2.3,60.11266316
,,,,171,0,171,0,,,,,,,,,,,,,,,,,,,,,,2272.396577,None,,,,,,,,,,,,,,,,,stand,62,172,aloud,old,red,2270.072331,None,2270.072331,None,3,1.4857744,2270.072331,None,1.4857744,2271.585152,None,2272.103231,None,2272.103231,None,f,0.2707468,2272.103231,None,0.2707468,,,July22Aloud2,5,2022_Jul_22_1407,ProdSingRedoBetween,2021.2.3,60.11266316
,,,,172,0,172,0,,,,,,,,,,,,,,,,,,,,,,2275.196818,None,,,,,,,,,,,,,,,,,gesture,134,173,aloud,new,null,2272.926524,None,2272.926524,None,5,1.6714597,2272.926524,None,1.6714597,2274.621399,None,2275.139282,None,2275.139282,None,r,0.0266386,2275.139282,None,0.0266386,,,July22Aloud2,5,2022_Jul_22_1407,ProdSingRedoBetween,2021.2.3,60.11266316
,,,,173,0,173,0,,,,,,,,,,,,,,,,,,,,,,2277.771136,None,,,,,,,,,,,,,,,,,resistance,65,174,aloud,old,red,2275.71434,None,2275.71434,None,4,1.2597542,2275.71434,None,1.2597542,2277.009622,None,2277.52414,None,2277.52414,None,f,0.2181202,2277.52414,None,0.2181202,,,July22Aloud2,5,2022_Jul_22_1407,ProdSingRedoBetween,2021.2.3,60.11266316
,,,,174,0,174,0,,,,,,,,,,,,,,,,,,,,,,2281.371997,None,,,,,,,,,,,,,,,,,revolution,165,175,aloud,new,null,2278.298925,None,2278.298925,None,2,2.2831788,2278.298925,None,2.2831788,2280.617308,None,2281.12726,None,2281.12726,None,n,0.2227391,2281.12726,None,0.2227391,,,July22Aloud2,5,2022_Jul_22_1407,ProdSingRedoBetween,2021.2.3,60.11266316
,,,,175,0,175,0,,,,,,,,,,,,,,,,,,,,,,2284.932451,None,,,,,,,,,,,,,,,,,level,32,176,aloud,old,blue,2281.906001,None,2281.906001,None,4,1.3560135,2281.906001,None,1.3560135,2283.29704,None,2283.814527,None,2283.814527,None,f,1.0876101,2283.814527,None,1.0876101,,,July22Aloud2,5,2022_Jul_22_1407,ProdSingRedoBetween,2021.2.3,60.11266316
,,,,176,0,176,0,,,,,,,,,,,,,,,,,,,,,,2288.144541,None,,,,,,,,,,,,,,,,,danger,21,177,aloud,old,yellow,2285.451275,None,2285.451275,None,6,1.7949437,2285.451275,None,1.7949437,2287.291525,None,2287.799887,None,2287.799887,None,r,0.3180716,2287.799887,None,0.3180716,,,July22Aloud2,5,2022_Jul_22_1407,ProdSingRedoBetween,2021.2.3,60.11266316
,,,,177,0,177,0,,,,,,,,,,,,,,,,,,,,,,2291.314427,None,,,,,,,,,,,,,,,,,quick,107,178,aloud,new,null,2288.660452,None,2288.660452,None,3,1.5696364,2288.660452,None,1.5696364,2290.262789,None,2290.773213,None,2290.773213,None,n,0.5127537,2290.773213,None,0.5127537,,,July22Aloud2,5,2022_Jul_22_1407,ProdSingRedoBetween,2021.2.3,60.11266316
,,,,178,0,178,0,,,,,,,,,,,,,,,,,,,,,,2294.219518,None,,,,,,,,,,,,,,,,,frank,137,179,aloud,new,null,2291.832603,None,2291.832603,None,1,1.3656018,2291.832603,None,1.3656018,2293.229057,None,2293.742109,None,2293.742109,None,n,0.4559265,2293.742109,None,0.4559265,,,July22Aloud2,5,2022_Jul_22_1407,ProdSingRedoBetween,2021.2.3,60.11266316
,,,,179,0,179,0,,,,,,,,,,,,,,,,,,,,,,2297.218754,None,,,,,,,,,,,,,,,,,notice,131,180,aloud,new,null,2294.744203,None,2294.744203,None,5,1.8696103,2294.744203,None,1.8696103,2296.637242,None,2297.157719,None,2297.157719,None,r,0.0403372,2297.157719,None,0.0403372,,,July22Aloud2,5,2022_Jul_22_1407,ProdSingRedoBetween,2021.2.3,60.11266316
,,,,,,,,,,,,,,,,,,,,,,,,,,,,,,,,,,,,,,,,,,,,,,,,,,,,,,,,,,,,,,,,,,,,,,,,,2297.720465,None,,,,,,
