StudyLoop.thisRepN,StudyLoop.thisTrialN,StudyLoop.thisN,StudyLoop.thisIndex,TestLoop.thisRepN,TestLoop.thisTrialN,TestLoop.thisN,TestLoop.thisIndex,textCondition.started,textCondition.stopped,keyCondition.keys,keyCondition.rt,keyCondition.started,keyCondition.stopped,Condition,textWelcome.started,textWelcome.stopped,keyWelcome.keys,keyWelcome.rt,keyWelcome.started,keyWelcome.stopped,textAloud.started,textAloud.stopped,textSilent.started,textSilent.stopped,textSing.started,textSing.stopped,conditional_text.started,conditional_text.stopped,textBlank500.started,textBlank500.stopped,study_word,study_num,study_order,study_type,word_color,textStudy.started,textStudy.stopped,keyStudy.keys,keyStudy.started,keyStudy.stopped,textTestInstructions.started,textTestInstructions.stopped,key_resp_3.keys,key_resp_3.rt,key_resp_3.started,key_resp_3.stopped,test_word,test_num,test_order,test_condition,old_new_test,test_word_original_color,textConf.started,textConf.stopped,textConfScale.started,textConfScale.stopped,keyConf.keys,keyConf.rt,keyConf.started,keyConf.stopped,confidence response time,textTestBlank.started,textTestBlank.stopped,textRKN.started,textRKN.stopped,textRKNScale.started,textRKNScale.stopped,keyRKN.keys,keyRKN.rt,keyRKN.started,keyRKN.stopped,rkn response time,textEnd.started,textEnd.stopped,participant,session,date,expName,psychopyVersion,frameRate,
,,,,,,,,25.645946600000002,None,b,6.8044346000000075,25.645946600000002,None,,,,,,,,,,,,,,,,,,,,,,,,,,,,,,,,,,,,,,,,,,,,,,,,,,,,,,,,,,,,,,Aloud11,001,2022_Aug_03_1425,ProdSingRedoBetween,2021.2.3,59.89515951278931,
,,,,,,,,,,,,,,AloudTest,32.4982852,None,space,161.6719583,32.4982852,None,,,,,,,,,,,,,,,,,,,,,,,,,,,,,,,,,,,,,,,,,,,,,,,,,,,,,,,Aloud11,001,2022_Aug_03_1425,ProdSingRedoBetween,2021.2.3,59.89515951278931,
0,0,0,0,,,,,,,,,,,,,,,,,,32.4982852,None,32.4982852,None,32.4982852,None,32.4982852,None,196.71892029999998,None,balance,23,1,aloud,yellow,194.70864699999998,None,None,194.70864699999998,None,,,,,,,,,,,,,,,,,,,,,,,,,,,,,,,,,,,Aloud11,001,2022_Aug_03_1425,ProdSingRedoBetween,2021.2.3,59.89515951278931,
1,0,1,0,,,,,,,,,,,,,,,,,,,,,,,,,,199.2214229,None,working,84,2,aloud,red,197.22192590000003,None,None,197.22192590000003,None,,,,,,,,,,,,,,,,,,,,,,,,,,,,,,,,,,,Aloud11,001,2022_Aug_03_1425,ProdSingRedoBetween,2021.2.3,59.89515951278931,
2,0,2,0,,,,,,,,,,,,,,,,,,,,,,,,,,201.72398629999998,None,pattern,61,3,aloud,red,199.72188900000003,None,None,199.72188900000003,None,,,,,,,,,,,,,,,,,,,,,,,,,,,,,,,,,,,Aloud11,001,2022_Aug_03_1425,ProdSingRedoBetween,2021.2.3,59.89515951278931,
3,0,3,0,,,,,,,,,,,,,,,,,,,,,,,,,,204.24309540000002,None,comedy,45,4,aloud,blue,202.22912480000002,None,None,202.22912480000002,None,,,,,,,,,,,,,,,,,,,,,,,,,,,,,,,,,,,Aloud11,001,2022_Aug_03_1425,ProdSingRedoBetween,2021.2.3,59.89515951278931,
4,0,4,0,,,,,,,,,,,,,,,,,,,,,,,,,,206.74558059999998,None,scene,43,5,aloud,blue,204.7432554,None,None,204.7432554,None,,,,,,,,,,,,,,,,,,,,,,,,,,,,,,,,,,,Aloud11,001,2022_Aug_03_1425,ProdSingRedoBetween,2021.2.3,59.89515951278931,
5,0,5,0,,,,,,,,,,,,,,,,,,,,,,,,,,209.2647791,None,collection,69,6,aloud,red,207.25042100000002,None,None,207.25042100000002,None,,,,,,,,,,,,,,,,,,,,,,,,,,,,,,,,,,,Aloud11,001,2022_Aug_03_1425,ProdSingRedoBetween,2021.2.3,59.89515951278931,
6,0,6,0,,,,,,,,,,,,,,,,,,,,,,,,,,211.7672013,None,republic,19,7,aloud,yellow,209.76524139999998,None,None,209.76524139999998,None,,,,,,,,,,,,,,,,,,,,,,,,,,,,,,,,,,,Aloud11,001,2022_Aug_03_1425,ProdSingRedoBetween,2021.2.3,59.89515951278931,
7,0,7,0,,,,,,,,,,,,,,,,,,,,,,,,,,214.26975320000003,None,write,79,8,aloud,red,212.26772599999998,None,None,212.26772599999998,None,,,,,,,,,,,,,,,,,,,,,,,,,,,,,,,,,,,Aloud11,001,2022_Aug_03_1425,ProdSingRedoBetween,2021.2.3,59.89515951278931,
8,0,8,0,,,,,,,,,,,,,,,,,,,,,,,,,,216.77218370000003,None,space,64,9,aloud,red,214.77238520000003,None,None,214.77238520000003,None,,,,,,,,,,,,,,,,,,,,,,,,,,,,,,,,,,,Aloud11,001,2022_Aug_03_1425,ProdSingRedoBetween,2021.2.3,59.89515951278931,
9,0,9,0,,,,,,,,,,,,,,,,,,,,,,,,,,219.29137609999998,None,damage,37,10,aloud,blue,217.27601950000002,None,None,217.27601950000002,None,,,,,,,,,,,,,,,,,,,,,,,,,,,,,,,,,,,Aloud11,001,2022_Aug_03_1425,ProdSingRedoBetween,2021.2.3,59.89515951278931,
10,0,10,0,,,,,,,,,,,,,,,,,,,,,,,,,,221.79388620000003,None,narrow,44,11,aloud,blue,219.7919084,None,None,219.7919084,None,,,,,,,,,,,,,,,,,,,,,,,,,,,,,,,,,,,Aloud11,001,2022_Aug_03_1425,ProdSingRedoBetween,2021.2.3,59.89515951278931,
11,0,11,0,,,,,,,,,,,,,,,,,,,,,,,,,,224.29625370000002,None,blind,75,12,aloud,red,222.2945102,None,None,222.2945102,None,,,,,,,,,,,,,,,,,,,,,,,,,,,,,,,,,,,Aloud11,001,2022_Aug_03_1425,ProdSingRedoBetween,2021.2.3,59.89515951278931,
12,0,12,0,,,,,,,,,,,,,,,,,,,,,,,,,,226.815765,None,interview,70,13,aloud,red,224.80720780000001,None,None,224.80720780000001,None,,,,,,,,,,,,,,,,,,,,,,,,,,,,,,,,,,,Aloud11,001,2022_Aug_03_1425,ProdSingRedoBetween,2021.2.3,59.89515951278931,
13,0,13,0,,,,,,,,,,,,,,,,,,,,,,,,,,229.31806360000002,None,color,36,14,aloud,blue,227.31733430000003,None,None,227.31733430000003,None,,,,,,,,,,,,,,,,,,,,,,,,,,,,,,,,,,,Aloud11,001,2022_Aug_03_1425,ProdSingRedoBetween,2021.2.3,59.89515951278931,
14,0,14,0,,,,,,,,,,,,,,,,,,,,,,,,,,231.8205999,None,century,30,15,aloud,blue,229.8184759,None,None,229.8184759,None,,,,,,,,,,,,,,,,,,,,,,,,,,,,,,,,,,,Aloud11,001,2022_Aug_03_1425,ProdSingRedoBetween,2021.2.3,59.89515951278931,
15,0,15,0,,,,,,,,,,,,,,,,,,,,,,,,,,234.323061,None,science,17,16,aloud,yellow,232.3211597,None,None,232.3211597,None,,,,,,,,,,,,,,,,,,,,,,,,,,,,,,,,,,,Aloud11,001,2022_Aug_03_1425,ProdSingRedoBetween,2021.2.3,59.89515951278931,
16,0,16,0,,,,,,,,,,,,,,,,,,,,,,,,,,236.84231900000003,None,distance,24,17,aloud,yellow,234.8285977,None,None,234.8285977,None,,,,,,,,,,,,,,,,,,,,,,,,,,,,,,,,,,,Aloud11,001,2022_Aug_03_1425,ProdSingRedoBetween,2021.2.3,59.89515951278931,
17,0,17,0,,,,,,,,,,,,,,,,,,,,,,,,,,239.3448169,None,block,76,18,aloud,red,237.34531529999998,None,None,237.34531529999998,None,,,,,,,,,,,,,,,,,,,,,,,,,,,,,,,,,,,Aloud11,001,2022_Aug_03_1425,ProdSingRedoBetween,2021.2.3,59.89515951278931,
18,0,18,0,,,,,,,,,,,,,,,,,,,,,,,,,,241.8641295,None,member,41,19,aloud,blue,239.85004370000001,None,None,239.85004370000001,None,,,,,,,,,,,,,,,,,,,,,,,,,,,,,,,,,,,Aloud11,001,2022_Aug_03_1425,ProdSingRedoBetween,2021.2.3,59.89515951278931,
19,0,19,0,,,,,,,,,,,,,,,,,,,,,,,,,,244.3832908,None,employment,65,20,aloud,red,242.3730723,None,None,242.3730723,None,,,,,,,,,,,,,,,,,,,,,,,,,,,,,,,,,,,Aloud11,001,2022_Aug_03_1425,ProdSingRedoBetween,2021.2.3,59.89515951278931,
20,0,20,0,,,,,,,,,,,,,,,,,,,,,,,,,,246.90236020000003,None,second,46,21,aloud,blue,244.8880304,None,None,244.8880304,None,,,,,,,,,,,,,,,,,,,,,,,,,,,,,,,,,,,Aloud11,001,2022_Aug_03_1425,ProdSingRedoBetween,2021.2.3,59.89515951278931,
21,0,21,0,,,,,,,,,,,,,,,,,,,,,,,,,,249.40480939999998,None,under,88,22,aloud,red,247.40263090000002,None,None,247.40263090000002,None,,,,,,,,,,,,,,,,,,,,,,,,,,,,,,,,,,,Aloud11,001,2022_Aug_03_1425,ProdSingRedoBetween,2021.2.3,59.89515951278931,
22,0,22,0,,,,,,,,,,,,,,,,,,,,,,,,,,251.92414150000002,None,course,16,23,aloud,yellow,249.9168586,None,None,249.9168586,None,,,,,,,,,,,,,,,,,,,,,,,,,,,,,,,,,,,Aloud11,001,2022_Aug_03_1425,ProdSingRedoBetween,2021.2.3,59.89515951278931,
23,0,23,0,,,,,,,,,,,,,,,,,,,,,,,,,,254.4263014,None,candidate,87,24,aloud,red,252.42457059999998,None,None,252.42457059999998,None,,,,,,,,,,,,,,,,,,,,,,,,,,,,,,,,,,,Aloud11,001,2022_Aug_03_1425,ProdSingRedoBetween,2021.2.3,59.89515951278931,
24,0,24,0,,,,,,,,,,,,,,,,,,,,,,,,,,256.9290267,None,salary,47,25,aloud,blue,254.92672520000002,None,None,254.92672520000002,None,,,,,,,,,,,,,,,,,,,,,,,,,,,,,,,,,,,Aloud11,001,2022_Aug_03_1425,ProdSingRedoBetween,2021.2.3,59.89515951278931,
25,0,25,0,,,,,,,,,,,,,,,,,,,,,,,,,,259.4314858,None,quantity,9,26,aloud,yellow,257.4312071,None,None,257.4312071,None,,,,,,,,,,,,,,,,,,,,,,,,,,,,,,,,,,,Aloud11,001,2022_Aug_03_1425,ProdSingRedoBetween,2021.2.3,59.89515951278931,
26,0,26,0,,,,,,,,,,,,,,,,,,,,,,,,,,261.9341398,None,society,53,27,aloud,blue,259.9324696,None,None,259.9324696,None,,,,,,,,,,,,,,,,,,,,,,,,,,,,,,,,,,,Aloud11,001,2022_Aug_03_1425,ProdSingRedoBetween,2021.2.3,59.89515951278931,
27,0,27,0,,,,,,,,,,,,,,,,,,,,,,,,,,264.4532894,None,strain,39,28,aloud,blue,262.438474,None,None,262.438474,None,,,,,,,,,,,,,,,,,,,,,,,,,,,,,,,,,,,Aloud11,001,2022_Aug_03_1425,ProdSingRedoBetween,2021.2.3,59.89515951278931,
28,0,28,0,,,,,,,,,,,,,,,,,,,,,,,,,,266.9558402,None,rough,62,29,aloud,red,264.9537892,None,None,264.9537892,None,,,,,,,,,,,,,,,,,,,,,,,,,,,,,,,,,,,Aloud11,001,2022_Aug_03_1425,ProdSingRedoBetween,2021.2.3,59.89515951278931,
29,0,29,0,,,,,,,,,,,,,,,,,,,,,,,,,,269.4583088,None,track,15,30,aloud,yellow,267.4585727,None,None,267.4585727,None,,,,,,,,,,,,,,,,,,,,,,,,,,,,,,,,,,,Aloud11,001,2022_Aug_03_1425,ProdSingRedoBetween,2021.2.3,59.89515951278931,
30,0,30,0,,,,,,,,,,,,,,,,,,,,,,,,,,271.9774674,None,committee,71,31,aloud,red,269.9639986,None,None,269.9639986,None,,,,,,,,,,,,,,,,,,,,,,,,,,,,,,,,,,,Aloud11,001,2022_Aug_03_1425,ProdSingRedoBetween,2021.2.3,59.89515951278931,
31,0,31,0,,,,,,,,,,,,,,,,,,,,,,,,,,274.4799391,None,silence,78,32,aloud,red,272.4791618,None,None,272.4791618,None,,,,,,,,,,,,,,,,,,,,,,,,,,,,,,,,,,,Aloud11,001,2022_Aug_03_1425,ProdSingRedoBetween,2021.2.3,59.89515951278931,
32,0,32,0,,,,,,,,,,,,,,,,,,,,,,,,,,276.98209380000003,None,enemy,32,33,aloud,blue,274.9804116,None,None,274.9804116,None,,,,,,,,,,,,,,,,,,,,,,,,,,,,,,,,,,,Aloud11,001,2022_Aug_03_1425,ProdSingRedoBetween,2021.2.3,59.89515951278931,
33,0,33,0,,,,,,,,,,,,,,,,,,,,,,,,,,279.5015599,None,community,49,34,aloud,blue,277.4863228,None,None,277.4863228,None,,,,,,,,,,,,,,,,,,,,,,,,,,,,,,,,,,,Aloud11,001,2022_Aug_03_1425,ProdSingRedoBetween,2021.2.3,59.89515951278931,
34,0,34,0,,,,,,,,,,,,,,,,,,,,,,,,,,282.0208667,None,clear,27,35,aloud,yellow,280.0068716,None,None,280.0068716,None,,,,,,,,,,,,,,,,,,,,,,,,,,,,,,,,,,,Aloud11,001,2022_Aug_03_1425,ProdSingRedoBetween,2021.2.3,59.89515951278931,
35,0,35,0,,,,,,,,,,,,,,,,,,,,,,,,,,284.5398994,None,bright,52,36,aloud,blue,282.5270192,None,None,282.5270192,None,,,,,,,,,,,,,,,,,,,,,,,,,,,,,,,,,,,Aloud11,001,2022_Aug_03_1425,ProdSingRedoBetween,2021.2.3,59.89515951278931,
36,0,36,0,,,,,,,,,,,,,,,,,,,,,,,,,,287.0424114,None,discovery,33,37,aloud,blue,285.0404461,None,None,285.0404461,None,,,,,,,,,,,,,,,,,,,,,,,,,,,,,,,,,,,Aloud11,001,2022_Aug_03_1425,ProdSingRedoBetween,2021.2.3,59.89515951278931,
37,0,37,0,,,,,,,,,,,,,,,,,,,,,,,,,,289.5617286,None,detective,12,38,aloud,yellow,287.5486672,None,None,287.5486672,None,,,,,,,,,,,,,,,,,,,,,,,,,,,,,,,,,,,Aloud11,001,2022_Aug_03_1425,ProdSingRedoBetween,2021.2.3,59.89515951278931,
38,0,38,0,,,,,,,,,,,,,,,,,,,,,,,,,,292.0640991,None,dream,22,39,aloud,yellow,290.0646292,None,None,290.0646292,None,,,,,,,,,,,,,,,,,,,,,,,,,,,,,,,,,,,Aloud11,001,2022_Aug_03_1425,ProdSingRedoBetween,2021.2.3,59.89515951278931,
39,0,39,0,,,,,,,,,,,,,,,,,,,,,,,,,,294.5833327,None,smooth,55,40,aloud,blue,292.5707159,None,None,292.5707159,None,,,,,,,,,,,,,,,,,,,,,,,,,,,,,,,,,,,Aloud11,001,2022_Aug_03_1425,ProdSingRedoBetween,2021.2.3,59.89515951278931,
40,0,40,0,,,,,,,,,,,,,,,,,,,,,,,,,,297.0855075,None,addition,77,41,aloud,red,295.0837275,None,None,295.0837275,None,,,,,,,,,,,,,,,,,,,,,,,,,,,,,,,,,,,Aloud11,001,2022_Aug_03_1425,ProdSingRedoBetween,2021.2.3,59.89515951278931,
41,0,41,0,,,,,,,,,,,,,,,,,,,,,,,,,,299.6049867,None,relation,89,42,aloud,red,297.5923493,None,None,297.5923493,None,,,,,,,,,,,,,,,,,,,,,,,,,,,,,,,,,,,Aloud11,001,2022_Aug_03_1425,ProdSingRedoBetween,2021.2.3,59.89515951278931,
42,0,42,0,,,,,,,,,,,,,,,,,,,,,,,,,,302.1072742,None,majority,34,43,aloud,blue,300.1077965,None,None,300.1077965,None,,,,,,,,,,,,,,,,,,,,,,,,,,,,,,,,,,,Aloud11,001,2022_Aug_03_1425,ProdSingRedoBetween,2021.2.3,59.89515951278931,
43,0,43,0,,,,,,,,,,,,,,,,,,,,,,,,,,304.61002,None,burden,68,44,aloud,red,302.6078123,None,None,302.6078123,None,,,,,,,,,,,,,,,,,,,,,,,,,,,,,,,,,,,Aloud11,001,2022_Aug_03_1425,ProdSingRedoBetween,2021.2.3,59.89515951278931,
44,0,44,0,,,,,,,,,,,,,,,,,,,,,,,,,,307.1124633,None,waste,0,45,aloud,yellow,305.1110533,None,None,305.1110533,None,,,,,,,,,,,,,,,,,,,,,,,,,,,,,,,,,,,Aloud11,001,2022_Aug_03_1425,ProdSingRedoBetween,2021.2.3,59.89515951278931,
45,0,45,0,,,,,,,,,,,,,,,,,,,,,,,,,,309.6317277,None,growth,56,46,aloud,blue,307.6291478,None,None,307.6291478,None,,,,,,,,,,,,,,,,,,,,,,,,,,,,,,,,,,,Aloud11,001,2022_Aug_03_1425,ProdSingRedoBetween,2021.2.3,59.89515951278931,
46,0,46,0,,,,,,,,,,,,,,,,,,,,,,,,,,312.1509497,None,master,21,47,aloud,yellow,310.1360613,None,None,310.1360613,None,,,,,,,,,,,,,,,,,,,,,,,,,,,,,,,,,,,Aloud11,001,2022_Aug_03_1425,ProdSingRedoBetween,2021.2.3,59.89515951278931,
47,0,47,0,,,,,,,,,,,,,,,,,,,,,,,,,,314.6533353,None,couch,29,48,aloud,blue,312.652589,None,None,312.652589,None,,,,,,,,,,,,,,,,,,,,,,,,,,,,,,,,,,,Aloud11,001,2022_Aug_03_1425,ProdSingRedoBetween,2021.2.3,59.89515951278931,
48,0,48,0,,,,,,,,,,,,,,,,,,,,,,,,,,317.1559495,None,alert,2,49,aloud,yellow,315.1539055,None,None,315.1539055,None,,,,,,,,,,,,,,,,,,,,,,,,,,,,,,,,,,,Aloud11,001,2022_Aug_03_1425,ProdSingRedoBetween,2021.2.3,59.89515951278931,
49,0,49,0,,,,,,,,,,,,,,,,,,,,,,,,,,319.6584169,None,series,11,50,aloud,yellow,317.6563552,None,None,317.6563552,None,,,,,,,,,,,,,,,,,,,,,,,,,,,,,,,,,,,Aloud11,001,2022_Aug_03_1425,ProdSingRedoBetween,2021.2.3,59.89515951278931,
50,0,50,0,,,,,,,,,,,,,,,,,,,,,,,,,,322.1608478,None,phrase,81,51,aloud,red,320.1587003,None,None,320.1587003,None,,,,,,,,,,,,,,,,,,,,,,,,,,,,,,,,,,,Aloud11,001,2022_Aug_03_1425,ProdSingRedoBetween,2021.2.3,59.89515951278931,
51,0,51,0,,,,,,,,,,,,,,,,,,,,,,,,,,324.68002210000003,None,entrance,54,52,aloud,blue,322.6650224,None,None,322.6650224,None,,,,,,,,,,,,,,,,,,,,,,,,,,,,,,,,,,,Aloud11,001,2022_Aug_03_1425,ProdSingRedoBetween,2021.2.3,59.89515951278931,
52,0,52,0,,,,,,,,,,,,,,,,,,,,,,,,,,327.1825381,None,junior,18,53,aloud,yellow,325.1805591,None,None,325.1805591,None,,,,,,,,,,,,,,,,,,,,,,,,,,,,,,,,,,,Aloud11,001,2022_Aug_03_1425,ProdSingRedoBetween,2021.2.3,59.89515951278931,
53,0,53,0,,,,,,,,,,,,,,,,,,,,,,,,,,329.7017366,None,surface,57,54,aloud,blue,327.69512530000003,None,None,327.69512530000003,None,,,,,,,,,,,,,,,,,,,,,,,,,,,,,,,,,,,Aloud11,001,2022_Aug_03_1425,ProdSingRedoBetween,2021.2.3,59.89515951278931,
54,0,54,0,,,,,,,,,,,,,,,,,,,,,,,,,,332.2044071,None,account,86,55,aloud,red,330.2047023,None,None,330.2047023,None,,,,,,,,,,,,,,,,,,,,,,,,,,,,,,,,,,,Aloud11,001,2022_Aug_03_1425,ProdSingRedoBetween,2021.2.3,59.89515951278931,
55,0,55,0,,,,,,,,,,,,,,,,,,,,,,,,,,334.72339370000003,None,question,28,56,aloud,yellow,332.7105726,None,None,332.7105726,None,,,,,,,,,,,,,,,,,,,,,,,,,,,,,,,,,,,Aloud11,001,2022_Aug_03_1425,ProdSingRedoBetween,2021.2.3,59.89515951278931,
56,0,56,0,,,,,,,,,,,,,,,,,,,,,,,,,,337.2259225,None,title,3,57,aloud,yellow,335.226497,None,None,335.226497,None,,,,,,,,,,,,,,,,,,,,,,,,,,,,,,,,,,,Aloud11,001,2022_Aug_03_1425,ProdSingRedoBetween,2021.2.3,59.89515951278931,
57,0,57,0,,,,,,,,,,,,,,,,,,,,,,,,,,339.7450036,None,research,26,58,aloud,yellow,337.7301039,None,None,337.7301039,None,,,,,,,,,,,,,,,,,,,,,,,,,,,,,,,,,,,Aloud11,001,2022_Aug_03_1425,ProdSingRedoBetween,2021.2.3,59.89515951278931,
58,0,58,0,,,,,,,,,,,,,,,,,,,,,,,,,,342.2476399,None,debate,14,59,aloud,yellow,340.2456469,None,None,340.2456469,None,,,,,,,,,,,,,,,,,,,,,,,,,,,,,,,,,,,Aloud11,001,2022_Aug_03_1425,ProdSingRedoBetween,2021.2.3,59.89515951278931,
59,0,59,0,,,,,,,,,,,,,,,,,,,,,,,,,,344.7501704,None,capital,67,60,aloud,red,342.7480775,None,None,342.7480775,None,,,,,,,,,,,,,,,,,,,,,,,,,,,,,,,,,,,Aloud11,001,2022_Aug_03_1425,ProdSingRedoBetween,2021.2.3,59.89515951278931,
60,0,60,0,,,,,,,,,,,,,,,,,,,,,,,,,,347.2525488,None,owner,51,61,aloud,blue,345.250869,None,None,345.250869,None,,,,,,,,,,,,,,,,,,,,,,,,,,,,,,,,,,,Aloud11,001,2022_Aug_03_1425,ProdSingRedoBetween,2021.2.3,59.89515951278931,
61,0,61,0,,,,,,,,,,,,,,,,,,,,,,,,,,349.7715695,None,taste,25,62,aloud,yellow,347.7604921,None,None,347.7604921,None,,,,,,,,,,,,,,,,,,,,,,,,,,,,,,,,,,,Aloud11,001,2022_Aug_03_1425,ProdSingRedoBetween,2021.2.3,59.89515951278931,
62,0,62,0,,,,,,,,,,,,,,,,,,,,,,,,,,352.2741197,None,afternoon,50,63,aloud,blue,350.2723998,None,None,350.2723998,None,,,,,,,,,,,,,,,,,,,,,,,,,,,,,,,,,,,Aloud11,001,2022_Aug_03_1425,ProdSingRedoBetween,2021.2.3,59.89515951278931,
63,0,63,0,,,,,,,,,,,,,,,,,,,,,,,,,,354.793515,None,reach,66,64,aloud,red,352.777891,None,None,352.777891,None,,,,,,,,,,,,,,,,,,,,,,,,,,,,,,,,,,,Aloud11,001,2022_Aug_03_1425,ProdSingRedoBetween,2021.2.3,59.89515951278931,
64,0,64,0,,,,,,,,,,,,,,,,,,,,,,,,,,357.3127928,None,plane,83,65,aloud,red,355.3028597,None,None,355.3028597,None,,,,,,,,,,,,,,,,,,,,,,,,,,,,,,,,,,,Aloud11,001,2022_Aug_03_1425,ProdSingRedoBetween,2021.2.3,59.89515951278931,
65,0,65,0,,,,,,,,,,,,,,,,,,,,,,,,,,359.8151413,None,signal,82,66,aloud,red,357.8156297,None,None,357.8156297,None,,,,,,,,,,,,,,,,,,,,,,,,,,,,,,,,,,,Aloud11,001,2022_Aug_03_1425,ProdSingRedoBetween,2021.2.3,59.89515951278931,
66,0,66,0,,,,,,,,,,,,,,,,,,,,,,,,,,362.3344595,None,drama,60,67,aloud,red,360.3213236,None,None,360.3213236,None,,,,,,,,,,,,,,,,,,,,,,,,,,,,,,,,,,,Aloud11,001,2022_Aug_03_1425,ProdSingRedoBetween,2021.2.3,59.89515951278931,
67,0,67,0,,,,,,,,,,,,,,,,,,,,,,,,,,364.8368531,None,trial,74,68,aloud,red,362.8348385,None,None,362.8348385,None,,,,,,,,,,,,,,,,,,,,,,,,,,,,,,,,,,,Aloud11,001,2022_Aug_03_1425,ProdSingRedoBetween,2021.2.3,59.89515951278931,
68,0,68,0,,,,,,,,,,,,,,,,,,,,,,,,,,367.355982,None,range,72,69,aloud,red,365.3444057,None,None,365.3444057,None,,,,,,,,,,,,,,,,,,,,,,,,,,,,,,,,,,,Aloud11,001,2022_Aug_03_1425,ProdSingRedoBetween,2021.2.3,59.89515951278931,
69,0,69,0,,,,,,,,,,,,,,,,,,,,,,,,,,369.8585038,None,payment,58,70,aloud,blue,367.8592363,None,None,367.8592363,None,,,,,,,,,,,,,,,,,,,,,,,,,,,,,,,,,,,Aloud11,001,2022_Aug_03_1425,ProdSingRedoBetween,2021.2.3,59.89515951278931,
70,0,70,0,,,,,,,,,,,,,,,,,,,,,,,,,,372.3778642,None,appearance,20,71,aloud,yellow,370.3685859,None,None,370.3685859,None,,,,,,,,,,,,,,,,,,,,,,,,,,,,,,,,,,,Aloud11,001,2022_Aug_03_1425,ProdSingRedoBetween,2021.2.3,59.89515951278931,
71,0,71,0,,,,,,,,,,,,,,,,,,,,,,,,,,374.8803989,None,harmony,8,72,aloud,yellow,372.88090850000003,None,None,372.88090850000003,None,,,,,,,,,,,,,,,,,,,,,,,,,,,,,,,,,,,Aloud11,001,2022_Aug_03_1425,ProdSingRedoBetween,2021.2.3,59.89515951278931,
72,0,72,0,,,,,,,,,,,,,,,,,,,,,,,,,,377.3827031,None,material,85,73,aloud,red,375.3834931,None,None,375.3834931,None,,,,,,,,,,,,,,,,,,,,,,,,,,,,,,,,,,,Aloud11,001,2022_Aug_03_1425,ProdSingRedoBetween,2021.2.3,59.89515951278931,
73,0,73,0,,,,,,,,,,,,,,,,,,,,,,,,,,379.885131,None,people,48,74,aloud,blue,377.8849544,None,None,377.8849544,None,,,,,,,,,,,,,,,,,,,,,,,,,,,,,,,,,,,Aloud11,001,2022_Aug_03_1425,ProdSingRedoBetween,2021.2.3,59.89515951278931,
74,0,74,0,,,,,,,,,,,,,,,,,,,,,,,,,,382.404283,None,session,13,75,aloud,yellow,380.3946937,None,None,380.3946937,None,,,,,,,,,,,,,,,,,,,,,,,,,,,,,,,,,,,Aloud11,001,2022_Aug_03_1425,ProdSingRedoBetween,2021.2.3,59.89515951278931,
75,0,75,0,,,,,,,,,,,,,,,,,,,,,,,,,,384.9066546,None,leader,63,76,aloud,red,382.90480610000003,None,None,382.90480610000003,None,,,,,,,,,,,,,,,,,,,,,,,,,,,,,,,,,,,Aloud11,001,2022_Aug_03_1425,ProdSingRedoBetween,2021.2.3,59.89515951278931,
76,0,76,0,,,,,,,,,,,,,,,,,,,,,,,,,,387.40942340000004,None,attack,40,77,aloud,blue,385.40717459999996,None,None,385.40717459999996,None,,,,,,,,,,,,,,,,,,,,,,,,,,,,,,,,,,,Aloud11,001,2022_Aug_03_1425,ProdSingRedoBetween,2021.2.3,59.89515951278931,
77,0,77,0,,,,,,,,,,,,,,,,,,,,,,,,,,389.9287991,None,interior,5,78,aloud,yellow,387.9156907,None,None,387.9156907,None,,,,,,,,,,,,,,,,,,,,,,,,,,,,,,,,,,,Aloud11,001,2022_Aug_03_1425,ProdSingRedoBetween,2021.2.3,59.89515951278931,
78,0,78,0,,,,,,,,,,,,,,,,,,,,,,,,,,392.43117429999995,None,brief,1,79,aloud,yellow,390.42892800000004,None,None,390.42892800000004,None,,,,,,,,,,,,,,,,,,,,,,,,,,,,,,,,,,,Aloud11,001,2022_Aug_03_1425,ProdSingRedoBetween,2021.2.3,59.89515951278931,
79,0,79,0,,,,,,,,,,,,,,,,,,,,,,,,,,394.9335033,None,skill,4,80,aloud,yellow,392.93211410000004,None,None,392.93211410000004,None,,,,,,,,,,,,,,,,,,,,,,,,,,,,,,,,,,,Aloud11,001,2022_Aug_03_1425,ProdSingRedoBetween,2021.2.3,59.89515951278931,
80,0,80,0,,,,,,,,,,,,,,,,,,,,,,,,,,397.4361745,None,article,35,81,aloud,blue,395.43539969999995,None,None,395.43539969999995,None,,,,,,,,,,,,,,,,,,,,,,,,,,,,,,,,,,,Aloud11,001,2022_Aug_03_1425,ProdSingRedoBetween,2021.2.3,59.89515951278931,
81,0,81,0,,,,,,,,,,,,,,,,,,,,,,,,,,399.9553422,None,captain,38,82,aloud,blue,397.93964530000005,None,None,397.93964530000005,None,,,,,,,,,,,,,,,,,,,,,,,,,,,,,,,,,,,Aloud11,001,2022_Aug_03_1425,ProdSingRedoBetween,2021.2.3,59.89515951278931,
82,0,82,0,,,,,,,,,,,,,,,,,,,,,,,,,,402.45793519999995,None,incident,80,83,aloud,red,400.45583739999995,None,None,400.45583739999995,None,,,,,,,,,,,,,,,,,,,,,,,,,,,,,,,,,,,Aloud11,001,2022_Aug_03_1425,ProdSingRedoBetween,2021.2.3,59.89515951278931,
83,0,83,0,,,,,,,,,,,,,,,,,,,,,,,,,,404.96021029999997,None,quick,7,84,aloud,yellow,402.95835380000005,None,None,402.95835380000005,None,,,,,,,,,,,,,,,,,,,,,,,,,,,,,,,,,,,Aloud11,001,2022_Aug_03_1425,ProdSingRedoBetween,2021.2.3,59.89515951278931,
84,0,84,0,,,,,,,,,,,,,,,,,,,,,,,,,,407.46288990000005,None,background,73,85,aloud,red,405.46278129999996,None,None,405.46278129999996,None,,,,,,,,,,,,,,,,,,,,,,,,,,,,,,,,,,,Aloud11,001,2022_Aug_03_1425,ProdSingRedoBetween,2021.2.3,59.89515951278931,
85,0,85,0,,,,,,,,,,,,,,,,,,,,,,,,,,409.96548729999995,None,quarter,10,86,aloud,yellow,407.965876,None,None,407.965876,None,,,,,,,,,,,,,,,,,,,,,,,,,,,,,,,,,,,Aloud11,001,2022_Aug_03_1425,ProdSingRedoBetween,2021.2.3,59.89515951278931,
86,0,86,0,,,,,,,,,,,,,,,,,,,,,,,,,,412.4842678,None,device,6,87,aloud,yellow,410.47269359999996,None,None,410.47269359999996,None,,,,,,,,,,,,,,,,,,,,,,,,,,,,,,,,,,,Aloud11,001,2022_Aug_03_1425,ProdSingRedoBetween,2021.2.3,59.89515951278931,
87,0,87,0,,,,,,,,,,,,,,,,,,,,,,,,,,414.98699120000003,None,military,42,88,aloud,blue,412.98500249999995,None,None,412.98500249999995,None,,,,,,,,,,,,,,,,,,,,,,,,,,,,,,,,,,,Aloud11,001,2022_Aug_03_1425,ProdSingRedoBetween,2021.2.3,59.89515951278931,
88,0,88,0,,,,,,,,,,,,,,,,,,,,,,,,,,417.5062646,None,marriage,59,89,aloud,yellow,415.49162780000006,None,None,415.49162780000006,None,,,,,,,,,,,,,,,,,,,,,,,,,,,,,,,,,,,Aloud11,001,2022_Aug_03_1425,ProdSingRedoBetween,2021.2.3,59.89515951278931,
89,0,89,0,,,,,,,,,,,,,,,,,,,,,,,,,,420.02547660000005,None,point,31,90,aloud,blue,418.00992699999995,None,None,418.00992699999995,None,,,,,,,,,,,,,,,,,,,,,,,,,,,,,,,,,,,Aloud11,001,2022_Aug_03_1425,ProdSingRedoBetween,2021.2.3,59.89515951278931,
,,,,,,,,,,,,,,,,,,,,,,,,,,,,,,,,,,,,,,,,,420.5262166,None,k,84.1724471,420.5262166,None,,,,,,,,,,,,,,,,,,,,,,,,,,,,,Aloud11,001,2022_Aug_03_1425,ProdSingRedoBetween,2021.2.3,59.89515951278931,
,,,,0,0,0,0,,,,,,,,,,,,,,,,,,,,,,515.2371432,None,,,,,,,,,,,,,,,,,enemy,32,1,aloud,old,blue,505.23894640000003,None,505.23894640000003,None,6,4.803352200000063,505.23894640000003,None,4.803352200000063,510.07339920000004,None,510.5823733,None,510.5823733,None,f,4.636045699999954,510.5823733,None,4.636045699999954,,,Aloud11,001,2022_Aug_03_1425,ProdSingRedoBetween,2021.2.3,59.89515951278931,
,,,,1,0,1,0,,,,,,,,,,,,,,,,,,,,,,521.826797,None,,,,,,,,,,,,,,,,,length,127,2,aloud,new,null,515.7474728,None,515.7474728,None,1,3.3109691999999313,515.7474728,None,3.3109691999999313,519.0760925,None,519.5917147,None,519.5917147,None,n,2.2186486000000514,519.5917147,None,2.2186486000000514,,,Aloud11,001,2022_Aug_03_1425,ProdSingRedoBetween,2021.2.3,59.89515951278931,
,,,,2,0,2,0,,,,,,,,,,,,,,,,,,,,,,528.4167508,None,,,,,,,,,,,,,,,,,alert,2,3,aloud,old,yellow,522.334699,None,522.334699,None,6,4.171701100000064,522.334699,None,4.171701100000064,526.5325648,None,527.0339091,None,527.0339091,None,f,1.3605060000001004,527.0339091,None,1.3605060000001004,,,Aloud11,001,2022_Aug_03_1425,ProdSingRedoBetween,2021.2.3,59.89515951278931,
,,,,3,0,3,0,,,,,,,,,,,,,,,,,,,,,,538.5271355,None,,,,,,,,,,,,,,,,,captain,38,4,aloud,old,blue,528.9254333,None,528.9254333,None,5,6.389156000000071,528.9254333,None,6.389156000000071,535.3406411,None,535.844836,None,535.844836,None,n,2.6615421000000197,535.844836,None,2.6615421000000197,,,Aloud11,001,2022_Aug_03_1425,ProdSingRedoBetween,2021.2.3,59.89515951278931,
,,,,4,0,4,0,,,,,,,,,,,,,,,,,,,,,,544.8667517,None,,,,,,,,,,,,,,,,,range,72,5,aloud,old,red,539.033505,None,539.033505,None,6,4.064921400000003,539.033505,None,4.064921400000003,543.1158795,None,543.6195956,None,543.6195956,None,f,1.2228622000000087,543.6195956,None,1.2228622000000087,,,Aloud11,001,2022_Aug_03_1425,ProdSingRedoBetween,2021.2.3,59.89515951278931,
,,,,5,0,5,0,,,,,,,,,,,,,,,,,,,,,,549.0877103,None,,,,,,,,,,,,,,,,,skill,4,6,aloud,old,yellow,545.3756757,None,545.3756757,None,6,2.2426964999999655,545.3756757,None,2.2426964999999655,547.6369278,None,548.1368405,None,548.1368405,None,f,0.9215785999999753,548.1368405,None,0.9215785999999753,,,Aloud11,001,2022_Aug_03_1425,ProdSingRedoBetween,2021.2.3,59.89515951278931,
,,,,6,0,6,0,,,,,,,,,,,,,,,,,,,,,,552.6078479,None,,,,,,,,,,,,,,,,,society,53,7,aloud,old,blue,549.591287,None,549.591287,None,6,2.4271248000000014,549.591287,None,2.4271248000000014,552.0418106,None,552.547567,None,552.547567,None,f,0.038876200000004246,552.547567,None,0.038876200000004246,,,Aloud11,001,2022_Aug_03_1425,ProdSingRedoBetween,2021.2.3,59.89515951278931,
,,,,7,0,7,0,,,,,,,,,,,,,,,,,,,,,,556.3949512,None,,,,,,,,,,,,,,,,,religion,123,8,aloud,new,null,553.1097954,None,553.1097954,None,1,1.636671799999931,553.1097954,None,1.636671799999931,554.779532,None,555.2938024,None,555.2938024,None,n,1.0846289999999499,555.2938024,None,1.0846289999999499,,,Aloud11,001,2022_Aug_03_1425,ProdSingRedoBetween,2021.2.3,59.89515951278931,
,,,,8,0,8,0,,,,,,,,,,,,,,,,,,,,,,560.1153182,None,,,,,,,,,,,,,,,,,under,88,9,aloud,old,red,556.8966895,None,556.8966895,None,1,2.0099735999999666,556.8966895,None,2.0099735999999666,558.9308271,None,559.4372793,None,559.4372793,None,n,0.6530527999999549,559.4372793,None,0.6530527999999549,,,Aloud11,001,2022_Aug_03_1425,ProdSingRedoBetween,2021.2.3,59.89515951278931,
,,,,9,0,9,0,,,,,,,,,,,,,,,,,,,,,,563.4019099,None,,,,,,,,,,,,,,,,,marriage,59,10,aloud,old,yellow,560.619672,None,560.619672,None,6,2.142747600000007,560.619672,None,2.142747600000007,562.7844507,None,563.2904238,None,563.2904238,None,f,0.09597159999998439,563.2904238,None,0.09597159999998439,,,Aloud11,001,2022_Aug_03_1425,ProdSingRedoBetween,2021.2.3,59.89515951278931,
,,,,10,0,10,0,,,,,,,,,,,,,,,,,,,,,,568.256791,None,,,,,,,,,,,,,,,,,comedy,45,11,aloud,old,blue,563.9164441,None,563.9164441,None,5,3.1580571999999165,563.9164441,None,3.1580571999999165,567.1065156,None,567.6123344,None,567.6123344,None,n,0.6140833999999131,567.6123344,None,0.6140833999999131,,,Aloud11,001,2022_Aug_03_1425,ProdSingRedoBetween,2021.2.3,59.89515951278931,
,,,,11,0,11,0,,,,,,,,,,,,,,,,,,,,,,572.5944787,None,,,,,,,,,,,,,,,,,distance,24,12,aloud,old,yellow,568.7657477,None,568.7657477,None,3,3.1326989000000367,568.7657477,None,3.1326989000000367,571.9281113,None,572.4300132,None,572.4300132,None,n,0.14050169999995887,572.4300132,None,0.14050169999995887,,,Aloud11,001,2022_Aug_03_1425,ProdSingRedoBetween,2021.2.3,59.89515951278931,
,,,,12,0,12,0,,,,,,,,,,,,,,,,,,,,,,576.1647399,None,,,,,,,,,,,,,,,,,candidate,87,13,aloud,old,red,573.1022609,None,573.1022609,None,6,2.2441466999999875,573.1022609,None,2.2441466999999875,575.3711718,None,575.881205,None,575.881205,None,f,0.26525389999994786,575.881205,None,0.26525389999994786,,,Aloud11,001,2022_Aug_03_1425,ProdSingRedoBetween,2021.2.3,59.89515951278931,
,,,,13,0,13,0,,,,,,,,,,,,,,,,,,,,,,584.0892494,None,,,,,,,,,,,,,,,,,individual,109,14,aloud,new,null,576.6652011,None,576.6652011,None,2,5.809499800000026,576.6652011,None,5.809499800000026,582.5129535,None,583.0229245,None,583.0229245,None,n,1.0354389999999967,583.0229245,None,1.0354389999999967,,,Aloud11,001,2022_Aug_03_1425,ProdSingRedoBetween,2021.2.3,59.89515951278931,
,,,,14,0,14,0,,,,,,,,,,,,,,,,,,,,,,586.7919021,None,,,,,,,,,,,,,,,,,dozen,103,15,aloud,new,null,584.6151791,None,584.6151791,None,1,1.5713850000000775,584.6151791,None,1.5713850000000775,586.2093945,None,586.7196284,None,586.7196284,None,n,0.04269909999993615,586.7196284,None,0.04269909999993615,,,Aloud11,001,2022_Aug_03_1425,ProdSingRedoBetween,2021.2.3,59.89515951278931,
,,,,15,0,15,0,,,,,,,,,,,,,,,,,,,,,,589.7148666,None,,,,,,,,,,,,,,,,,science,17,16,aloud,old,yellow,587.3001035,None,587.3001035,None,6,1.8143003000000135,587.3001035,None,1.8143003000000135,589.1451651,None,589.6532605,None,589.6532605,None,n,0.02928729999996449,589.6532605,None,0.02928729999996449,,,Aloud11,001,2022_Aug_03_1425,ProdSingRedoBetween,2021.2.3,59.89515951278931,
,,,,16,0,16,0,,,,,,,,,,,,,,,,,,,,,,593.28178,None,,,,,,,,,,,,,,,,,salary,47,17,aloud,old,blue,590.2397277,None,590.2397277,None,6,2.098667399999954,590.2397277,None,2.098667399999954,592.3664105,None,592.8848235,None,592.8848235,None,f,0.36570210000002135,592.8848235,None,0.36570210000002135,,,Aloud11,001,2022_Aug_03_1425,ProdSingRedoBetween,2021.2.3,59.89515951278931,
,,,,17,0,17,0,,,,,,,,,,,,,,,,,,,,,,596.0846884,None,,,,,,,,,,,,,,,,,crowd,98,18,aloud,new,null,593.7934533,None,593.7934533,None,1,1.5449780000000146,593.7934533,None,1.5449780000000146,595.3673317,None,595.8721599,None,595.8721599,None,n,0.19417939999993905,595.8721599,None,0.19417939999993905,,,Aloud11,001,2022_Aug_03_1425,ProdSingRedoBetween,2021.2.3,59.89515951278931,
,,,,18,0,18,0,,,,,,,,,,,,,,,,,,,,,,598.6038599,None,,,,,,,,,,,,,,,,,touch,102,19,aloud,new,null,596.5851645,None,596.5851645,None,1,1.3132772999999816,596.5851645,None,1.3132772999999816,597.9207015,None,598.4253232,None,598.4253232,None,n,0.15306329999998525,598.4253232,None,0.15306329999998525,,,Aloud11,001,2022_Aug_03_1425,ProdSingRedoBetween,2021.2.3,59.89515951278931,
,,,,19,0,19,0,,,,,,,,,,,,,,,,,,,,,,601.5567606,None,,,,,,,,,,,,,,,,,defeat,158,20,aloud,new,null,599.116634,None,599.116634,None,1,1.79780530000005,599.116634,None,1.79780530000005,600.9393778,None,601.4401598000001,None,601.4401598000001,None,n,0.09024690000001101,601.4401598000001,None,0.09024690000001101,,,Aloud11,001,2022_Aug_03_1425,ProdSingRedoBetween,2021.2.3,59.89515951278931,
,,,,20,0,20,0,,,,,,,,,,,,,,,,,,,,,,605.2437199,None,,,,,,,,,,,,,,,,,beauty,174,21,aloud,new,null,602.0756978000001,None,602.0756978000001,None,1,2.4626095999999507,602.0756978000001,None,2.4626095999999507,604.563473,None,605.0801049,None,605.0801049,None,n,0.14628330000005008,605.0801049,None,0.14628330000005008,,,Aloud11,001,2022_Aug_03_1425,ProdSingRedoBetween,2021.2.3,59.89515951278931,
,,,,21,0,21,0,,,,,,,,,,,,,,,,,,,,,,608.7972926,None,,,,,,,,,,,,,,,,,master,21,22,aloud,old,yellow,605.7529878,None,605.7529878,None,1,2.449546600000076,605.7529878,None,2.449546600000076,608.2369337,None,608.7496898,None,608.7496898,None,n,0.028811499999960688,608.7496898,None,0.028811499999960688,,,Aloud11,001,2022_Aug_03_1425,ProdSingRedoBetween,2021.2.3,59.89515951278931,
,,,,22,0,22,0,,,,,,,,,,,,,,,,,,,,,,613.2015126,None,,,,,,,,,,,,,,,,,plane,83,23,aloud,old,red,609.3115518,None,609.3115518,None,1,2.202911200000017,609.3115518,None,2.202911200000017,611.5345026,None,612.0380758,None,612.0380758,None,n,1.1403745999999728,612.0380758,None,1.1403745999999728,,,Aloud11,001,2022_Aug_03_1425,ProdSingRedoBetween,2021.2.3,59.89515951278931,
,,,,23,0,23,0,,,,,,,,,,,,,,,,,,,,,,615.8875067,None,,,,,,,,,,,,,,,,,poetry,106,24,aloud,new,null,613.7069201,None,613.7069201,None,1,1.3514732999999524,613.7069201,None,1.3514732999999524,615.0877855,None,615.5956635,None,615.5956635,None,n,0.27085040000008576,615.5956635,None,0.27085040000008576,,,Aloud11,001,2022_Aug_03_1425,ProdSingRedoBetween,2021.2.3,59.89515951278931,
,,,,24,0,24,0,,,,,,,,,,,,,,,,,,,,,,619.7415155,None,,,,,,,,,,,,,,,,,harmony,8,25,aloud,old,yellow,616.4003661,None,616.4003661,None,5,2.7220346999999947,616.4003661,None,2.7220346999999947,619.146594,None,619.6582733,None,619.6582733,None,f,0.06416249999995216,619.6582733,None,0.06416249999995216,,,Aloud11,001,2022_Aug_03_1425,ProdSingRedoBetween,2021.2.3,59.89515951278931,
,,,,25,0,25,0,,,,,,,,,,,,,,,,,,,,,,624.2628018,None,,,,,,,,,,,,,,,,,write,79,26,aloud,old,red,620.2478306,None,620.2478306,None,6,2.0986666000000014,620.2478306,None,2.0986666000000014,622.3784435,None,622.8781392,None,622.8781392,None,f,1.3563462000000754,622.8781392,None,1.3563462000000754,,,Aloud11,001,2022_Aug_03_1425,ProdSingRedoBetween,2021.2.3,59.89515951278931,
,,,,26,0,26,0,,,,,,,,,,,,,,,,,,,,,,628.800433,None,,,,,,,,,,,,,,,,,message,141,27,aloud,new,null,624.7718548,None,624.7718548,None,1,3.038666400000011,624.7718548,None,3.038666400000011,627.8341084,None,628.3336895,None,628.3336895,None,n,0.44479009999997743,628.3336895,None,0.44479009999997743,,,Aloud11,001,2022_Aug_03_1425,ProdSingRedoBetween,2021.2.3,59.89515951278931,
,,,,27,0,27,0,,,,,,,,,,,,,,,,,,,,,,631.419932,None,,,,,,,,,,,,,,,,,design,156,28,aloud,new,null,629.3184648,None,629.3184648,None,1,1.4199135999999726,629.3184648,None,1.4199135999999726,630.7701273,None,631.2781629,None,631.2781629,None,n,0.11625639999999748,631.2781629,None,0.11625639999999748,,,Aloud11,001,2022_Aug_03_1425,ProdSingRedoBetween,2021.2.3,59.89515951278931,
,,,,28,0,28,0,,,,,,,,,,,,,,,,,,,,,,636.2747957,None,,,,,,,,,,,,,,,,,pattern,61,29,aloud,old,red,631.9310735,None,631.9310735,None,4,3.3753353000000743,631.9310735,None,3.3753353000000743,635.3254466,None,635.8410938,None,635.8410938,None,f,0.4173437000000604,635.8410938,None,0.4173437000000604,,,Aloud11,001,2022_Aug_03_1425,ProdSingRedoBetween,2021.2.3,59.89515951278931,
,,,,29,0,29,0,,,,,,,,,,,,,,,,,,,,,,640.1786937,None,,,,,,,,,,,,,,,,,rapid,104,30,aloud,new,null,636.7770931,None,636.7770931,None,1,1.8972826000000396,636.7770931,None,1.8972826000000396,638.6973837,None,639.2114242,None,639.2114242,None,n,0.9429711000000225,639.2114242,None,0.9429711000000225,,,Aloud11,001,2022_Aug_03_1425,ProdSingRedoBetween,2021.2.3,59.89515951278931,
,,,,30,0,30,0,,,,,,,,,,,,,,,,,,,,,,642.6350357,None,,,,,,,,,,,,,,,,,block,76,31,aloud,old,red,640.6888893,None,640.6888893,None,1,1.1775718000000097,640.6888893,None,1.1775718000000097,641.898826,None,642.4216738,None,642.4216738,None,n,0.18893309999998564,642.4216738,None,0.18893309999998564,,,Aloud11,001,2022_Aug_03_1425,ProdSingRedoBetween,2021.2.3,59.89515951278931,
,,,,31,0,31,0,,,,,,,,,,,,,,,,,,,,,,645.01686,None,,,,,,,,,,,,,,,,,brilliant,160,32,aloud,new,null,643.1483015,None,643.1483015,None,1,1.1982027000000244,643.1483015,None,1.1982027000000244,644.370725,None,644.8875011,None,644.8875011,None,n,0.1068723000000773,644.8875011,None,0.1068723000000773,,,Aloud11,001,2022_Aug_03_1425,ProdSingRedoBetween,2021.2.3,59.89515951278931,
,,,,32,0,32,0,,,,,,,,,,,,,,,,,,,,,,650.8224141000001,None,,,,,,,,,,,,,,,,,debate,14,33,aloud,old,yellow,645.5293605,None,645.5293605,None,5,1.6333003999999391,645.5293605,None,1.6333003999999391,647.1939614,None,647.705698,None,647.705698,None,n,3.088690100000008,647.705698,None,3.088690100000008,,,Aloud11,001,2022_Aug_03_1425,ProdSingRedoBetween,2021.2.3,59.89515951278931,
,,,,33,0,33,0,,,,,,,,,,,,,,,,,,,,,,653.892393,None,,,,,,,,,,,,,,,,,collection,69,34,aloud,old,red,651.3232816,None,651.3232816,None,1,1.2951658000000634,651.3232816,None,1.2951658000000634,652.6409988,None,653.1416709,None,653.1416709,None,n,0.7247740000000249,653.1416709,None,0.7247740000000249,,,Aloud11,001,2022_Aug_03_1425,ProdSingRedoBetween,2021.2.3,59.89515951278931,
,,,,34,0,34,0,,,,,,,,,,,,,,,,,,,,,,658.9318021,None,,,,,,,,,,,,,,,,,couch,29,35,aloud,old,blue,654.398171,None,654.398171,None,3,3.0043911999999864,654.398171,None,3.0043911999999864,657.4303107,None,657.9360274000001,None,657.9360274000001,None,f,0.9704922000000806,657.9360274000001,None,0.9704922000000806,,,Aloud11,001,2022_Aug_03_1425,ProdSingRedoBetween,2021.2.3,59.89515951278931,
,,,,35,0,35,0,,,,,,,,,,,,,,,,,,,,,,662.0858636,None,,,,,,,,,,,,,,,,,meeting,171,36,aloud,new,null,659.4339935,None,659.4339935,None,1,1.864451899999949,659.4339935,None,1.864451899999949,661.3183317,None,661.8338365,None,661.8338365,None,n,0.22461970000006204,661.8338365,None,0.22461970000006204,,,Aloud11,001,2022_Aug_03_1425,ProdSingRedoBetween,2021.2.3,59.89515951278931,
,,,,36,0,36,0,,,,,,,,,,,,,,,,,,,,,,665.6568874,None,,,,,,,,,,,,,,,,,point,31,37,aloud,old,blue,662.6094633,None,662.6094633,None,2,2.18499410000004,662.6094633,None,2.18499410000004,664.8206201,None,665.320607,None,665.320607,None,n,0.3138720999999123,665.320607,None,0.3138720999999123,,,Aloud11,001,2022_Aug_03_1425,ProdSingRedoBetween,2021.2.3,59.89515951278931,
,,,,37,0,37,0,,,,,,,,,,,,,,,,,,,,,,668.5403274,None,,,,,,,,,,,,,,,,,property,159,38,aloud,new,null,666.1743582,None,666.1743582,None,1,1.5240843999999925,666.1743582,None,1.5240843999999925,667.7244072,None,668.2325348,None,668.2325348,None,n,0.28196390000005067,668.2325348,None,0.28196390000005067,,,Aloud11,001,2022_Aug_03_1425,ProdSingRedoBetween,2021.2.3,59.89515951278931,
,,,,38,0,38,0,,,,,,,,,,,,,,,,,,,,,,672.4609211,None,,,,,,,,,,,,,,,,,community,49,39,aloud,old,blue,669.0449673,None,669.0449673,None,6,2.5414762999999994,669.0449673,None,2.5414762999999994,671.6122033,None,672.1292364,None,672.1292364,None,f,0.31315219999999044,672.1292364,None,0.31315219999999044,,,Aloud11,001,2022_Aug_03_1425,ProdSingRedoBetween,2021.2.3,59.89515951278931,
,,,,39,0,39,0,,,,,,,,,,,,,,,,,,,,,,675.8977172,None,,,,,,,,,,,,,,,,,detective,12,40,aloud,old,yellow,672.9723058,None,672.9723058,None,6,1.5821438000000398,672.9723058,None,1.5821438000000398,674.5807848000001,None,675.080388,None,675.080388,None,f,0.7940959000000021,675.080388,None,0.7940959000000021,,,Aloud11,001,2022_Aug_03_1425,ProdSingRedoBetween,2021.2.3,59.89515951278931,
,,,,40,0,40,0,,,,,,,,,,,,,,,,,,,,,,679.3508927,None,,,,,,,,,,,,,,,,,interview,70,41,aloud,old,red,676.4092994,None,676.4092994,None,3,2.0651503000000275,676.4092994,None,2.0651503000000275,678.5017659,None,679.0082597,None,679.0082597,None,n,0.32221609999999146,679.0082597,None,0.32221609999999146,,,Aloud11,001,2022_Aug_03_1425,ProdSingRedoBetween,2021.2.3,59.89515951278931,
,,,,41,0,41,0,,,,,,,,,,,,,,,,,,,,,,683.9056951,None,,,,,,,,,,,,,,,,,scene,43,42,aloud,old,blue,679.8575824,None,679.8575824,None,5,2.592955399999937,679.8575824,None,2.592955399999937,682.4783886,None,682.994467,None,682.994467,None,n,0.8879732999999987,682.994467,None,0.8879732999999987,,,Aloud11,001,2022_Aug_03_1425,ProdSingRedoBetween,2021.2.3,59.89515951278931,
,,,,42,0,42,0,,,,,,,,,,,,,,,,,,,,,,686.5434916,None,,,,,,,,,,,,,,,,,group,94,43,aloud,new,null,684.409519,None,684.409519,None,1,1.3050854999999046,684.409519,None,1.3050854999999046,685.7418278,None,686.2448175,None,686.2448175,None,n,0.27768700000001445,686.2448175,None,0.27768700000001445,,,Aloud11,001,2022_Aug_03_1425,ProdSingRedoBetween,2021.2.3,59.89515951278931,
,,,,43,0,43,0,,,,,,,,,,,,,,,,,,,,,,689.4299163000001,None,,,,,,,,,,,,,,,,,research,26,44,aloud,old,yellow,687.0597535,None,687.0597535,None,6,1.5907522999999628,687.0597535,None,1.5907522999999628,688.6817665,None,689.1944507000001,None,689.1944507000001,None,f,0.21615009999993617,689.1944507000001,None,0.21615009999993617,,,Aloud11,001,2022_Aug_03_1425,ProdSingRedoBetween,2021.2.3,59.89515951278931,
,,,,44,0,44,0,,,,,,,,,,,,,,,,,,,,,,692.8820752,None,,,,,,,,,,,,,,,,,relation,89,45,aloud,old,red,689.9451846,None,689.9451846,None,4,1.9055005000000165,689.9451846,None,1.9055005000000165,691.8849958,None,692.4049254,None,692.4049254,None,n,0.4456050000000005,692.4049254,None,0.4456050000000005,,,Aloud11,001,2022_Aug_03_1425,ProdSingRedoBetween,2021.2.3,59.89515951278931,
,,,,45,0,45,0,,,,,,,,,,,,,,,,,,,,,,695.7178096,None,,,,,,,,,,,,,,,,,interior,5,46,aloud,old,yellow,693.385765,None,693.385765,None,6,1.4567860999999311,693.385765,None,1.4567860999999311,694.8724211,None,695.3839317,None,695.3839317,None,f,0.31456839999998465,695.3839317,None,0.31456839999998465,,,Aloud11,001,2022_Aug_03_1425,ProdSingRedoBetween,2021.2.3,59.89515951278931,
,,,,46,0,46,0,,,,,,,,,,,,,,,,,,,,,,698.2376618,None,,,,,,,,,,,,,,,,,blind,75,47,aloud,old,red,696.2198794,None,696.2198794,None,6,1.4065828999999894,696.2198794,None,1.4065828999999894,697.6525398,None,698.1535561000001,None,698.1535561000001,None,f,0.056999000000018896,698.1535561000001,None,0.056999000000018896,,,Aloud11,001,2022_Aug_03_1425,ProdSingRedoBetween,2021.2.3,59.89515951278931,
,,,,47,0,47,0,,,,,,,,,,,,,,,,,,,,,,701.6734616,None,,,,,,,,,,,,,,,,,material,85,48,aloud,old,red,698.7384232,None,698.7384232,None,4,1.983993099999907,698.7384232,None,1.983993099999907,700.7391786000001,None,701.2395568000001,None,701.2395568000001,None,n,0.4109217999999828,701.2395568000001,None,0.4109217999999828,,,Aloud11,001,2022_Aug_03_1425,ProdSingRedoBetween,2021.2.3,59.89515951278931,
,,,,48,0,48,0,,,,,,,,,,,,,,,,,,,,,,703.9924363,None,,,,,,,,,,,,,,,,,sweet,147,49,aloud,new,null,702.178576,None,702.178576,None,1,1.2078854999999749,702.178576,None,1.2078854999999749,703.4130312,None,703.9255876,None,703.9255876,None,n,0.0448741999999811,703.9255876,None,0.0448741999999811,,,Aloud11,001,2022_Aug_03_1425,ProdSingRedoBetween,2021.2.3,59.89515951278931,
,,,,49,0,49,0,,,,,,,,,,,,,,,,,,,,,,707.1971419,None,,,,,,,,,,,,,,,,,reach,66,50,aloud,old,red,704.4930291000001,None,704.4930291000001,None,3,1.5254243000000542,704.4930291000001,None,1.5254243000000542,706.0442529000001,None,706.5479408,None,706.5479408,None,n,0.6306089999999358,706.5479408,None,0.6306089999999358,,,Aloud11,001,2022_Aug_03_1425,ProdSingRedoBetween,2021.2.3,59.89515951278931,
,,,,50,0,50,0,,,,,,,,,,,,,,,,,,,,,,709.983245,None,,,,,,,,,,,,,,,,,expansion,143,51,aloud,new,null,707.7027642,None,707.7027642,None,1,1.6355654000000186,707.7027642,None,1.6355654000000186,709.3665362,None,709.8818719,None,709.8818719,None,n,0.0806355000000849,709.8818719,None,0.0806355000000849,,,Aloud11,001,2022_Aug_03_1425,ProdSingRedoBetween,2021.2.3,59.89515951278931,
,,,,51,0,51,0,,,,,,,,,,,,,,,,,,,,,,712.6516433,None,,,,,,,,,,,,,,,,,device,6,52,aloud,old,yellow,710.4939639,None,710.4939639,None,6,1.5004893999999922,710.4939639,None,1.5004893999999922,712.0187594,None,712.538576,None,712.538576,None,f,0.08788420000007591,712.538576,None,0.08788420000007591,,,Aloud11,001,2022_Aug_03_1425,ProdSingRedoBetween,2021.2.3,59.89515951278931,
,,,,52,0,52,0,,,,,,,,,,,,,,,,,,,,,,717.1389081,None,,,,,,,,,,,,,,,,,trial,74,53,aloud,old,red,713.1588412,None,713.1588412,None,2,3.2355494000000817,713.1588412,None,3.2355494000000817,716.4215598,None,716.9281376,None,716.9281376,None,n,0.19430319999992207,716.9281376,None,0.19430319999992207,,,Aloud11,001,2022_Aug_03_1425,ProdSingRedoBetween,2021.2.3,59.89515951278931,
,,,,53,0,53,0,,,,,,,,,,,,,,,,,,,,,,719.5089729,None,,,,,,,,,,,,,,,,,republic,19,54,aloud,old,yellow,717.646514,None,717.646514,None,6,1.2999147000000448,717.646514,None,1.2999147000000448,718.9749795,None,719.4809821,None,719.4809821,None,f,0.009490400000004229,719.4809821,None,0.009490400000004229,,,Aloud11,001,2022_Aug_03_1425,ProdSingRedoBetween,2021.2.3,59.89515951278931,
,,,,54,0,54,0,,,,,,,,,,,,,,,,,,,,,,722.6971447,None,,,,,,,,,,,,,,,,,strength,111,55,aloud,new,null,720.020633,None,720.020633,None,1,1.557874199999901,720.020633,None,1.557874199999901,721.5984952,None,722.1147375,None,722.1147375,None,n,0.5596409999999423,722.1147375,None,0.5596409999999423,,,Aloud11,001,2022_Aug_03_1425,ProdSingRedoBetween,2021.2.3,59.89515951278931,
,,,,55,0,55,0,,,,,,,,,,,,,,,,,,,,,,725.3804581,None,,,,,,,,,,,,,,,,,carry,119,56,aloud,new,null,723.2256797,None,723.2256797,None,1,1.1127738999999792,723.2256797,None,1.1127738999999792,724.3631976,None,724.8730104,None,724.8730104,None,n,0.4893932999999606,724.8730104,None,0.4893932999999606,,,Aloud11,001,2022_Aug_03_1425,ProdSingRedoBetween,2021.2.3,59.89515951278931,
,,,,56,0,56,0,,,,,,,,,,,,,,,,,,,,,,729.7014408,None,,,,,,,,,,,,,,,,,bright,52,57,aloud,old,blue,725.890078,None,725.890078,None,5,1.8643301000000747,725.890078,None,1.8643301000000747,727.7834588,None,728.2868937,None,728.2868937,None,f,1.3875041999999667,728.2868937,None,1.3875041999999667,,,Aloud11,001,2022_Aug_03_1425,ProdSingRedoBetween,2021.2.3,59.89515951278931,
,,,,57,0,57,0,,,,,,,,,,,,,,,,,,,,,,732.5543789,None,,,,,,,,,,,,,,,,,build,178,58,aloud,new,null,730.2122505,None,730.2122505,None,1,1.2781396000000314,730.2122505,None,1.2781396000000314,731.5200836,None,732.0204706,None,732.0204706,None,n,0.5179425000000037,732.0204706,None,0.5179425000000037,,,Aloud11,001,2022_Aug_03_1425,ProdSingRedoBetween,2021.2.3,59.89515951278931,
,,,,58,0,58,0,,,,,,,,,,,,,,,,,,,,,,734.9231225,None,,,,,,,,,,,,,,,,,dance,126,59,aloud,new,null,733.0601557,None,733.0601557,None,1,0.7583164000000124,733.0601557,None,0.7583164000000124,733.8392715,None,734.3400698,None,734.3400698,None,n,0.5663793999999598,734.3400698,None,0.5663793999999598,,,Aloud11,001,2022_Aug_03_1425,ProdSingRedoBetween,2021.2.3,59.89515951278931,
,,,,59,0,59,0,,,,,,,,,,,,,,,,,,,,,,737.1422359000001,None,,,,,,,,,,,,,,,,,medicine,144,60,aloud,new,null,735.431032,None,735.431032,None,1,0.8274889000000485,735.431032,None,0.8274889000000485,736.2773168,None,736.7918633,None,736.7918633,None,n,0.3225678000000016,736.7918633,None,0.3225678000000016,,,Aloud11,001,2022_Aug_03_1425,ProdSingRedoBetween,2021.2.3,59.89515951278931,
,,,,60,0,60,0,,,,,,,,,,,,,,,,,,,,,,739.4109535,None,,,,,,,,,,,,,,,,,incident,80,61,aloud,old,red,737.6497931,None,737.6497931,None,1,0.880672900000036,737.6497931,None,0.880672900000036,738.5602352,None,739.0607668,None,739.0607668,None,n,0.32583230000000185,739.0607668,None,0.32583230000000185,,,Aloud11,001,2022_Aug_03_1425,ProdSingRedoBetween,2021.2.3,59.89515951278931,
,,,,61,0,61,0,,,,,,,,,,,,,,,,,,,,,,742.0305383,None,,,,,,,,,,,,,,,,,mechanical,122,62,aloud,new,null,739.9117584,None,739.9117584,None,1,1.3066475000000537,739.9117584,None,1.3066475000000537,741.2462122000001,None,741.7488224,None,741.7488224,None,n,0.25365369999997256,741.7488224,None,0.25365369999997256,,,Aloud11,001,2022_Aug_03_1425,ProdSingRedoBetween,2021.2.3,59.89515951278931,
,,,,62,0,62,0,,,,,,,,,,,,,,,,,,,,,,747.335761,None,,,,,,,,,,,,,,,,,capital,67,63,aloud,old,red,742.5400193,None,742.5400193,None,6,3.582489599999917,742.5400193,None,3.582489599999917,746.1532551,None,746.6733498,None,746.6733498,None,f,0.6331271000000243,746.6733498,None,0.6331271000000243,,,Aloud11,001,2022_Aug_03_1425,ProdSingRedoBetween,2021.2.3,59.89515951278931,
,,,,63,0,63,0,,,,,,,,,,,,,,,,,,,,,,751.958389,None,,,,,,,,,,,,,,,,,course,16,64,aloud,old,yellow,747.8470885,None,747.8470885,None,1,3.147405000000049,747.8470885,None,3.147405000000049,751.0240915,None,751.5296824,None,751.5296824,None,n,0.40083289999995486,751.5296824,None,0.40083289999995486,,,Aloud11,001,2022_Aug_03_1425,ProdSingRedoBetween,2021.2.3,59.89515951278931,
,,,,64,0,64,0,,,,,,,,,,,,,,,,,,,,,,755.6773998,None,,,,,,,,,,,,,,,,,damage,37,65,aloud,old,blue,752.4603006,None,752.4603006,None,2,2.350235199999929,752.4603006,None,2.350235199999929,754.8266772,None,755.330101,None,755.330101,None,n,0.32031690000007984,755.330101,None,0.32031690000007984,,,Aloud11,001,2022_Aug_03_1425,ProdSingRedoBetween,2021.2.3,59.89515951278931,
,,,,65,0,65,0,,,,,,,,,,,,,,,,,,,,,,758.6972391,None,,,,,,,,,,,,,,,,,right,145,66,aloud,new,null,756.1798356,None,756.1798356,None,1,1.5186301999999614,756.1798356,None,1.5186301999999614,757.7300768,None,758.2298951,None,758.2298951,None,n,0.4366417999999612,758.2298951,None,0.4366417999999612,,,Aloud11,001,2022_Aug_03_1425,ProdSingRedoBetween,2021.2.3,59.89515951278931,
,,,,66,0,66,0,,,,,,,,,,,,,,,,,,,,,,760.8492675,None,,,,,,,,,,,,,,,,,provision,150,67,aloud,new,null,759.2011625,None,759.2011625,None,1,0.8013594999999896,759.2011625,None,0.8013594999999896,760.0363503,None,760.5491192,None,760.5491192,None,n,0.2693963999998914,760.5491192,None,0.2693963999998914,,,Aloud11,001,2022_Aug_03_1425,ProdSingRedoBetween,2021.2.3,59.89515951278931,
,,,,67,0,67,0,,,,,,,,,,,,,,,,,,,,,,763.0533012,None,,,,,,,,,,,,,,,,,judge,97,68,aloud,new,null,761.3538014,None,761.3538014,None,1,0.8806244999999535,761.3538014,None,0.8806244999999535,762.2519517,None,762.7577273,None,762.7577273,None,n,0.26879589999998643,762.7577273,None,0.26879589999998643,,,Aloud11,001,2022_Aug_03_1425,ProdSingRedoBetween,2021.2.3,59.89515951278931,
,,,,68,0,68,0,,,,,,,,,,,,,,,,,,,,,,765.3535034,None,,,,,,,,,,,,,,,,,people,48,69,aloud,old,blue,763.5835213,None,763.5835213,None,1,0.9229682000000139,763.5835213,None,0.9229682000000139,764.5393442,None,765.0533491,None,765.0533491,None,n,0.2770252000000255,765.0533491,None,0.2770252000000255,,,Aloud11,001,2022_Aug_03_1425,ProdSingRedoBetween,2021.2.3,59.89515951278931,
,,,,69,0,69,0,,,,,,,,,,,,,,,,,,,,,,767.7085816,None,,,,,,,,,,,,,,,,,member,41,70,aloud,old,blue,765.8609755,None,765.8609755,None,1,0.9494608999999627,765.8609755,None,0.9494608999999627,766.8441607,None,767.3558924,None,767.3558924,None,n,0.3345391999999947,767.3558924,None,0.3345391999999947,,,Aloud11,001,2022_Aug_03_1425,ProdSingRedoBetween,2021.2.3,59.89515951278931,
,,,,70,0,70,0,,,,,,,,,,,,,,,,,,,,,,770.0918269,None,,,,,,,,,,,,,,,,,signal,82,71,aloud,old,red,768.2241569,None,768.2241569,None,1,1.0423189999999067,768.2241569,None,1.0423189999999067,769.3015115000001,None,769.8114708,None,769.8114708,None,n,0.2629715999999007,769.8114708,None,0.2629715999999007,,,Aloud11,001,2022_Aug_03_1425,ProdSingRedoBetween,2021.2.3,59.89515951278931,
,,,,71,0,71,0,,,,,,,,,,,,,,,,,,,,,,773.1281881,None,,,,,,,,,,,,,,,,,bitter,134,72,aloud,new,null,770.6115743,None,770.6115743,None,1,1.6949650999999903,770.6115743,None,1.6949650999999903,772.3274399000001,None,772.831833,None,772.831833,None,n,0.27473540000005414,772.831833,None,0.27473540000005414,,,Aloud11,001,2022_Aug_03_1425,ProdSingRedoBetween,2021.2.3,59.89515951278931,
,,,,72,0,72,0,,,,,,,,,,,,,,,,,,,,,,776.581663,None,,,,,,,,,,,,,,,,,growth,56,73,aloud,old,blue,773.6348955,None,773.6348955,None,3,2.1276265000000194,773.6348955,None,2.1276265000000194,775.7880989,None,776.2981805000001,None,776.2981805000001,None,n,0.26431939999997667,776.2981805000001,None,0.26431939999997667,,,Aloud11,001,2022_Aug_03_1425,ProdSingRedoBetween,2021.2.3,59.89515951278931,
,,,,73,0,73,0,,,,,,,,,,,,,,,,,,,,,,779.0341372,None,,,,,,,,,,,,,,,,,entrance,54,74,aloud,old,blue,777.0930143,None,777.0930143,None,1,1.1254638999999997,777.0930143,None,1.1254638999999997,778.2343283,None,778.7374717,None,778.7374717,None,n,0.281078999999977,778.7374717,None,0.281078999999977,,,Aloud11,001,2022_Aug_03_1425,ProdSingRedoBetween,2021.2.3,59.89515951278931,
,,,,74,0,74,0,,,,,,,,,,,,,,,,,,,,,,781.9538444,None,,,,,,,,,,,,,,,,,rough,62,75,aloud,old,red,779.5440564,None,779.5440564,None,1,1.3785435999999436,779.5440564,None,1.3785435999999436,780.9526637,None,781.4553005,None,781.4553005,None,n,0.4751929999999902,781.4553005,None,0.4751929999999902,,,Aloud11,001,2022_Aug_03_1425,ProdSingRedoBetween,2021.2.3,59.89515951278931,
,,,,75,0,75,0,,,,,,,,,,,,,,,,,,,,,,783.9556381,None,,,,,,,,,,,,,,,,,welcome,164,76,aloud,new,null,782.4664639,None,782.4664639,None,1,0.743936700000063,782.4664639,None,0.743936700000063,783.2380672,None,783.7453359,None,783.7453359,None,n,0.1853052999999818,783.7453359,None,0.1853052999999818,,,Aloud11,001,2022_Aug_03_1425,ProdSingRedoBetween,2021.2.3,59.89515951278931,
,,,,76,0,76,0,,,,,,,,,,,,,,,,,,,,,,786.7753144,None,,,,,,,,,,,,,,,,,leader,63,77,aloud,old,red,784.4601067,None,784.4601067,None,2,1.4543547000000672,784.4601067,None,1.4543547000000672,785.9419231,None,786.4435049,None,786.4435049,None,n,0.31086919999995644,786.4435049,None,0.31086919999995644,,,Aloud11,001,2022_Aug_03_1425,ProdSingRedoBetween,2021.2.3,59.89515951278931,
,,,,77,0,77,0,,,,,,,,,,,,,,,,,,,,,,788.9939148,None,,,,,,,,,,,,,,,,,working,84,78,aloud,old,red,787.2846415,None,787.2846415,None,1,0.9259439999999586,787.2846415,None,0.9259439999999586,788.2281597,None,788.7324802,None,788.7324802,None,n,0.24610470000004625,788.7324802,None,0.24610470000004625,,,Aloud11,001,2022_Aug_03_1425,ProdSingRedoBetween,2021.2.3,59.89515951278931,
,,,,78,0,78,0,,,,,,,,,,,,,,,,,,,,,,790.8124859,None,,,,,,,,,,,,,,,,,safety,167,79,aloud,new,null,789.5029288,None,789.5029288,None,1,0.6516669999999749,789.5029288,None,0.6516669999999749,790.1801847,None,790.697825,None,790.697825,None,n,0.08858459999999013,790.697825,None,0.08858459999999013,,,Aloud11,001,2022_Aug_03_1425,ProdSingRedoBetween,2021.2.3,59.89515951278931,
,,,,79,0,79,0,,,,,,,,,,,,,,,,,,,,,,795.5005257,None,,,,,,,,,,,,,,,,,nation,129,80,aloud,new,null,791.3285196,None,791.3285196,None,3,3.369929500000012,791.3285196,None,3.369929500000012,794.7191809,None,795.2337304,None,795.2337304,None,n,0.24068739999995614,795.2337304,None,0.24068739999995614,,,Aloud11,001,2022_Aug_03_1425,ProdSingRedoBetween,2021.2.3,59.89515951278931,
,,,,80,0,80,0,,,,,,,,,,,,,,,,,,,,,,797.9864112,None,,,,,,,,,,,,,,,,,curve,100,81,aloud,new,null,796.0099417,None,796.0099417,None,1,1.0805851000000075,796.0099417,None,1.0805851000000075,797.1207329,None,797.636225,None,797.636225,None,n,0.32626489999995556,797.636225,None,0.32626489999995556,,,Aloud11,001,2022_Aug_03_1425,ProdSingRedoBetween,2021.2.3,59.89515951278931,
,,,,81,0,81,0,,,,,,,,,,,,,,,,,,,,,,800.2053207,None,,,,,,,,,,,,,,,,,afternoon,50,82,aloud,old,blue,798.4980642,None,798.4980642,None,1,0.6484078999999383,798.4980642,None,0.6484078999999383,799.1739794,None,799.6956138,None,799.6956138,None,n,0.4828100000000859,799.6956138,None,0.4828100000000859,,,Aloud11,001,2022_Aug_03_1425,ProdSingRedoBetween,2021.2.3,59.89515951278931,
,,,,82,0,82,0,,,,,,,,,,,,,,,,,,,,,,802.974559,None,,,,,,,,,,,,,,,,,balance,23,83,aloud,old,yellow,800.7055893,None,800.7055893,None,4,1.3929271000000654,800.7055893,None,1.3929271000000654,802.125679,None,802.647528,None,802.647528,None,n,0.3069541999999501,802.647528,None,0.3069541999999501,,,Aloud11,001,2022_Aug_03_1425,ProdSingRedoBetween,2021.2.3,59.89515951278931,
,,,,83,0,83,0,,,,,,,,,,,,,,,,,,,,,,805.5611199,None,,,,,,,,,,,,,,,,,quiet,154,84,aloud,new,null,803.4846604,None,803.4846604,None,1,1.0378940000000512,803.4846604,None,1.0378940000000512,804.5441416,None,805.0499792,None,805.0499792,None,n,0.480564700000059,805.0499792,None,0.480564700000059,,,Aloud11,001,2022_Aug_03_1425,ProdSingRedoBetween,2021.2.3,59.89515951278931,
,,,,84,0,84,0,,,,,,,,,,,,,,,,,,,,,,807.7126545,None,,,,,,,,,,,,,,,,,discovery,33,85,aloud,old,blue,806.0631065,None,806.0631065,None,1,0.8194568000000118,806.0631065,None,0.8194568000000118,806.9166597,None,807.4315581,None,807.4315581,None,n,0.25094979999994393,807.4315581,None,0.25094979999994393,,,Aloud11,001,2022_Aug_03_1425,ProdSingRedoBetween,2021.2.3,59.89515951278931,
,,,,85,0,85,0,,,,,,,,,,,,,,,,,,,,,,809.764796,None,,,,,,,,,,,,,,,,,phrase,81,86,aloud,old,red,808.2160403,None,808.2160403,None,1,0.6503764000000274,808.2160403,None,0.6503764000000274,808.8972777,None,809.3998318,None,809.3998318,None,n,0.34660010000004604,809.3998318,None,0.34660010000004604,,,Aloud11,001,2022_Aug_03_1425,ProdSingRedoBetween,2021.2.3,59.89515951278931,
,,,,86,0,86,0,,,,,,,,,,,,,,,,,,,,,,812.7511092,None,,,,,,,,,,,,,,,,,quantity,9,87,aloud,old,yellow,810.2753529,None,810.2753529,None,6,1.8631371000000172,810.2753529,None,1.8631371000000172,812.1701817000001,None,812.6845629000001,None,812.6845629000001,None,f,0.037967800000046736,812.6845629000001,None,0.037967800000046736,,,Aloud11,001,2022_Aug_03_1425,ProdSingRedoBetween,2021.2.3,59.89515951278931,
,,,,87,0,87,0,,,,,,,,,,,,,,,,,,,,,,815.4538315,None,,,,,,,,,,,,,,,,,escape,175,88,aloud,new,null,813.2601323,None,813.2601323,None,1,1.3983008000000154,813.2601323,None,1.3983008000000154,814.6874039,None,815.1880171,None,815.1880171,None,n,0.24653569999998126,815.1880171,None,0.24653569999998126,,,Aloud11,001,2022_Aug_03_1425,ProdSingRedoBetween,2021.2.3,59.89515951278931,
,,,,88,0,88,0,,,,,,,,,,,,,,,,,,,,,,817.8561341,None,,,,,,,,,,,,,,,,,region,121,89,aloud,new,null,815.9597735,None,815.9597735,None,1,1.1707933999999796,815.9597735,None,1.1707933999999796,817.1555136,None,817.6585043,None,817.6585043,None,n,0.17606100000000424,817.6585043,None,0.17606100000000424,,,Aloud11,001,2022_Aug_03_1425,ProdSingRedoBetween,2021.2.3,59.89515951278931,
,,,,89,0,89,0,,,,,,,,,,,,,,,,,,,,,,819.7747253,None,,,,,,,,,,,,,,,,,opening,93,90,aloud,new,null,818.3600688,None,818.3600688,None,1,0.6985553999999183,818.3600688,None,0.6985553999999183,819.0790116000001,None,819.5914536,None,819.5914536,None,n,0.15502550000007886,819.5914536,None,0.15502550000007886,,,Aloud11,001,2022_Aug_03_1425,ProdSingRedoBetween,2021.2.3,59.89515951278931,
,,,,90,0,90,0,,,,,,,,,,,,,,,,,,,,,,821.8435282,None,,,,,,,,,,,,,,,,,drove,168,91,aloud,new,null,820.2859571,None,820.2859571,None,1,0.6445595999999796,820.2859571,None,0.6445595999999796,820.9601032,None,821.4602459,None,821.4602459,None,n,0.3582605000000285,821.4602459,None,0.3582605000000285,,,Aloud11,001,2022_Aug_03_1425,ProdSingRedoBetween,2021.2.3,59.89515951278931,
,,,,91,0,91,0,,,,,,,,,,,,,,,,,,,,,,823.9622564,None,,,,,,,,,,,,,,,,,music,149,92,aloud,new,null,822.3509947,None,822.3509947,None,1,0.6915976999999884,822.3509947,None,0.6915976999999884,823.0671252,None,823.5807346,None,823.5807346,None,n,0.36576530000002094,823.5807346,None,0.36576530000002094,,,Aloud11,001,2022_Aug_03_1425,ProdSingRedoBetween,2021.2.3,59.89515951278931,
,,,,92,0,92,0,,,,,,,,,,,,,,,,,,,,,,827.3488043,None,,,,,,,,,,,,,,,,,century,30,93,aloud,old,blue,824.4705474,None,824.4705474,None,5,1.6839208000000099,824.4705474,None,1.6839208000000099,826.1828687,None,826.6985256,None,826.6985256,None,f,0.6319579999999405,826.6985256,None,0.6319579999999405,,,Aloud11,001,2022_Aug_03_1425,ProdSingRedoBetween,2021.2.3,59.89515951278931,
,,,,93,0,93,0,,,,,,,,,,,,,,,,,,,,,,831.9202776,None,,,,,,,,,,,,,,,,,appeal,95,94,aloud,new,null,827.8525127,None,827.8525127,None,3,3.1099007999999912,827.8525127,None,3.1099007999999912,830.9938548,None,831.5030646,None,831.5030646,None,n,0.39548089999993863,831.5030646,None,0.39548089999993863,,,Aloud11,001,2022_Aug_03_1425,ProdSingRedoBetween,2021.2.3,59.89515951278931,
,,,,94,0,94,0,,,,,,,,,,,,,,,,,,,,,,834.1725044,None,,,,,,,,,,,,,,,,,reading,169,95,aloud,new,null,832.4208169,None,832.4208169,None,1,1.1337528000000248,832.4208169,None,1.1337528000000248,833.571692,None,834.076879,None,834.076879,None,n,0.07770820000007461,834.076879,None,0.07770820000007461,,,Aloud11,001,2022_Aug_03_1425,ProdSingRedoBetween,2021.2.3,59.89515951278931,
,,,,95,0,95,0,,,,,,,,,,,,,,,,,,,,,,837.258719,None,,,,,,,,,,,,,,,,,generation,90,96,aloud,new,null,834.6811124,None,834.6811124,None,1,1.465344699999946,834.6811124,None,1.465344699999946,836.1744024,None,836.6749783,None,836.6749783,None,n,0.5675370999999814,836.6749783,None,0.5675370999999814,,,Aloud11,001,2022_Aug_03_1425,ProdSingRedoBetween,2021.2.3,59.89515951278931,
,,,,96,0,96,0,,,,,,,,,,,,,,,,,,,,,,839.0273894000001,None,,,,,,,,,,,,,,,,,taste,25,97,aloud,old,yellow,837.7593495,None,837.7593495,None,1,0.6831072999999606,837.7593495,None,0.6831072999999606,838.4599302,None,838.9606670000001,None,838.9606670000001,None,n,0.04177900000001955,838.9606670000001,None,0.04177900000001955,,,Aloud11,001,2022_Aug_03_1425,ProdSingRedoBetween,2021.2.3,59.89515951278931,
,,,,97,0,97,0,,,,,,,,,,,,,,,,,,,,,,840.8289408,None,,,,,,,,,,,,,,,,,owner,51,98,aloud,old,blue,839.5414945,None,839.5414945,None,1,0.700922099999957,839.5414945,None,0.700922099999957,840.2657692,None,840.778933,None,840.778933,None,n,0.02351490000000922,840.778933,None,0.02351490000000922,,,Aloud11,001,2022_Aug_03_1425,ProdSingRedoBetween,2021.2.3,59.89515951278931,
,,,,98,0,98,0,,,,,,,,,,,,,,,,,,,,,,842.5305921,None,,,,,,,,,,,,,,,,,junior,18,99,aloud,old,yellow,841.3297699,None,841.3297699,None,1,0.640813699999967,841.3297699,None,0.640813699999967,841.9982275,None,842.497559,None,842.497559,None,n,0.008875199999920369,842.497559,None,0.008875199999920369,,,Aloud11,001,2022_Aug_03_1425,ProdSingRedoBetween,2021.2.3,59.89515951278931,
,,,,99,0,99,0,,,,,,,,,,,,,,,,,,,,,,845.2833533,None,,,,,,,,,,,,,,,,,track,15,100,aloud,old,yellow,843.037226,None,843.037226,None,1,0.973200899999938,843.037226,None,0.973200899999938,844.0320796,None,844.5340085,None,844.5340085,None,n,0.7244220000000041,844.5340085,None,0.7244220000000041,,,Aloud11,001,2022_Aug_03_1425,ProdSingRedoBetween,2021.2.3,59.89515951278931,
,,,,100,0,100,0,,,,,,,,,,,,,,,,,,,,,,847.7025466,None,,,,,,,,,,,,,,,,,primary,163,101,aloud,new,null,845.7839983,None,845.7839983,None,1,1.2665294999999333,845.7839983,None,1.2665294999999333,847.0714375,None,847.5858367,None,847.5858367,None,n,0.08859310000002552,847.5858367,None,0.08859310000002552,,,Aloud11,001,2022_Aug_03_1425,ProdSingRedoBetween,2021.2.3,59.89515951278931,
,,,,101,0,101,0,,,,,,,,,,,,,,,,,,,,,,852.1736473,None,,,,,,,,,,,,,,,,,committee,71,102,aloud,old,red,848.2031273,None,848.2031273,None,6,1.6312964999999622,848.2031273,None,1.6312964999999622,849.8546789,None,850.355329,None,850.355329,None,f,1.7991437999999107,850.355329,None,1.7991437999999107,,,Aloud11,001,2022_Aug_03_1425,ProdSingRedoBetween,2021.2.3,59.89515951278931,
,,,,102,0,102,0,,,,,,,,,,,,,,,,,,,,,,855.9441375,None,,,,,,,,,,,,,,,,,article,35,103,aloud,old,blue,852.6742866,None,852.6742866,None,4,2.672186399999987,852.6742866,None,2.672186399999987,855.3769707,None,855.8775362,None,855.8775362,None,f,0.036878900000033354,855.8775362,None,0.036878900000033354,,,Aloud11,001,2022_Aug_03_1425,ProdSingRedoBetween,2021.2.3,59.89515951278931,
,,,,103,0,103,0,,,,,,,,,,,,,,,,,,,,,,858.9971423,None,,,,,,,,,,,,,,,,,colonel,138,104,aloud,new,null,856.4446281,None,856.4446281,None,1,1.413829899999996,856.4446281,None,1.413829899999996,857.8793319,None,858.3799599,None,858.3799599,None,n,0.598534299999983,858.3799599,None,0.598534299999983,,,Aloud11,001,2022_Aug_03_1425,ProdSingRedoBetween,2021.2.3,59.89515951278931,
,,,,104,0,104,0,,,,,,,,,,,,,,,,,,,,,,860.8657186,None,,,,,,,,,,,,,,,,,murder,176,105,aloud,new,null,859.4977123,None,859.4977123,None,1,0.680774700000029,859.4977123,None,0.680774700000029,860.1983991,None,860.6988585,None,860.6988585,None,n,0.13552800000002208,860.6988585,None,0.13552800000002208,,,Aloud11,001,2022_Aug_03_1425,ProdSingRedoBetween,2021.2.3,59.89515951278931,
,,,,105,0,105,0,,,,,,,,,,,,,,,,,,,,,,865.2032973,None,,,,,,,,,,,,,,,,,chief,151,106,aloud,new,null,861.3701148,None,861.3701148,None,3,2.448357299999998,861.3701148,None,2.448357299999998,863.8354164,None,864.3358874,None,864.3358874,None,f,0.8425541000000294,864.3358874,None,0.8425541000000294,,,Aloud11,001,2022_Aug_03_1425,ProdSingRedoBetween,2021.2.3,59.89515951278931,
,,,,106,0,106,0,,,,,,,,,,,,,,,,,,,,,,867.9060457,None,,,,,,,,,,,,,,,,,background,73,107,aloud,old,red,865.7040622,None,865.7040622,None,1,1.2423912000000428,865.7040622,None,1.2423912000000428,866.9719134,None,867.472495,None,867.472495,None,n,0.4100125999999591,867.472495,None,0.4100125999999591,,,Aloud11,001,2022_Aug_03_1425,ProdSingRedoBetween,2021.2.3,59.89515951278931,
,,,,107,0,107,0,,,,,,,,,,,,,,,,,,,,,,870.2249934,None,,,,,,,,,,,,,,,,,attack,40,108,aloud,old,blue,868.4068605,None,868.4068605,None,1,0.8275785999999243,868.4068605,None,0.8275785999999243,869.2574207,None,869.7579436,None,869.7579436,None,n,0.4445431000000326,869.7579436,None,0.4445431000000326,,,Aloud11,001,2022_Aug_03_1425,ProdSingRedoBetween,2021.2.3,59.89515951278931,
,,,,108,0,108,0,,,,,,,,,,,,,,,,,,,,,,874.0956705,None,,,,,,,,,,,,,,,,,employment,65,109,aloud,old,red,870.7256901,None,870.7256901,None,3,2.140753399999994,870.7256901,None,2.140753399999994,872.8943763,None,873.3949672,None,873.3949672,None,n,0.6714567000000216,873.3949672,None,0.6714567000000216,,,Aloud11,001,2022_Aug_03_1425,ProdSingRedoBetween,2021.2.3,59.89515951278931,
,,,,109,0,109,0,,,,,,,,,,,,,,,,,,,,,,877.4821834,None,,,,,,,,,,,,,,,,,color,36,110,aloud,old,blue,874.5961165,None,874.5961165,None,1,1.510315799999944,874.5961165,None,1.510315799999944,876.1309659,None,876.6318135,None,876.6318135,None,n,0.834588100000019,876.6318135,None,0.834588100000019,,,Aloud11,001,2022_Aug_03_1425,ProdSingRedoBetween,2021.2.3,59.89515951278931,
,,,,110,0,110,0,,,,,,,,,,,,,,,,,,,,,,879.6344185,None,,,,,,,,,,,,,,,,,month,157,111,aloud,new,null,877.9829247,None,877.9829247,None,1,0.7314455000000635,877.9829247,None,0.7314455000000635,878.7336102,None,879.2343203,None,879.2343203,None,n,0.38412319999997635,879.2343203,None,0.38412319999997635,,,Aloud11,001,2022_Aug_03_1425,ProdSingRedoBetween,2021.2.3,59.89515951278931,
,,,,111,0,111,0,,,,,,,,,,,,,,,,,,,,,,881.319388,None,,,,,,,,,,,,,,,,,volume,136,112,aloud,new,null,880.1353235,None,880.1353235,None,1,0.6192101999999977,880.1353235,None,0.6192101999999977,880.7855384,None,881.286158,None,881.286158,None,n,0.012345699999968929,881.286158,None,0.012345699999968929,,,Aloud11,001,2022_Aug_03_1425,ProdSingRedoBetween,2021.2.3,59.89515951278931,
,,,,112,0,112,0,,,,,,,,,,,,,,,,,,,,,,883.1381,None,,,,,,,,,,,,,,,,,novel,172,113,aloud,new,null,881.8201915,None,881.8201915,None,1,0.7262857999999142,881.8201915,None,0.7262857999999142,882.570667,None,883.071352,None,883.071352,None,n,0.05106999999998152,883.071352,None,0.05106999999998152,,,Aloud11,001,2022_Aug_03_1425,ProdSingRedoBetween,2021.2.3,59.89515951278931,
,,,,113,0,113,0,,,,,,,,,,,,,,,,,,,,,,886.524551,None,,,,,,,,,,,,,,,,,private,91,114,aloud,new,null,883.638538,None,883.638538,None,2,2.2839338,883.638538,None,2.2839338,885.9408347,None,886.4412639,None,886.4412639,None,n,0.06532569999990301,886.4412639,None,0.06532569999990301,,,Aloud11,001,2022_Aug_03_1425,ProdSingRedoBetween,2021.2.3,59.89515951278931,
,,,,114,0,114,0,,,,,,,,,,,,,,,,,,,,,,888.6935751,None,,,,,,,,,,,,,,,,,raise,137,115,aloud,new,null,887.025259,None,887.025259,None,1,0.6972165000000814,887.025259,None,0.6972165000000814,887.7425454,None,888.243111,None,888.243111,None,n,0.4313298000000714,888.243111,None,0.4313298000000714,,,Aloud11,001,2022_Aug_03_1425,ProdSingRedoBetween,2021.2.3,59.89515951278931,
,,,,115,0,115,0,,,,,,,,,,,,,,,,,,,,,,890.8975201,None,,,,,,,,,,,,,,,,,figure,92,116,aloud,new,null,889.1941596,None,889.1941596,None,1,0.7443245999999135,889.1941596,None,0.7443245999999135,889.9614448,None,890.4620127000001,None,890.4620127000001,None,n,0.41239519999999175,890.4620127000001,None,0.41239519999999175,,,Aloud11,001,2022_Aug_03_1425,ProdSingRedoBetween,2021.2.3,59.89515951278931,
,,,,116,0,116,0,,,,,,,,,,,,,,,,,,,,,,894.3823995,None,,,,,,,,,,,,,,,,,quarter,10,117,aloud,old,yellow,891.4129481,None,891.4129481,None,6,1.3334833999999773,891.4129481,None,1.3334833999999773,892.7643142000001,None,893.2647997,None,893.2647997,None,f,1.0896529999999984,893.2647997,None,1.0896529999999984,,,Aloud11,001,2022_Aug_03_1425,ProdSingRedoBetween,2021.2.3,59.89515951278931,
,,,,117,0,117,0,,,,,,,,,,,,,,,,,,,,,,896.9516566000001,None,,,,,,,,,,,,,,,,,dream,22,118,aloud,old,yellow,894.884545,None,894.884545,None,1,1.2298729000001458,894.884545,None,1.2298729000001458,896.1343177,None,896.6349551,None,896.6349551,None,n,0.2875135000001592,896.6349551,None,0.2875135000001592,,,Aloud11,001,2022_Aug_03_1425,ProdSingRedoBetween,2021.2.3,59.89515951278931,
,,,,118,0,118,0,,,,,,,,,,,,,,,,,,,,,,899.8212497000001,None,,,,,,,,,,,,,,,,,fashion,115,119,aloud,new,null,897.4522401999999,None,897.4522401999999,None,1,1.4782247999999072,897.4522401999999,None,1.4782247999999072,898.9537336,None,899.4544098,None,899.4544098,None,n,0.34812299999998686,899.4544098,None,0.34812299999998686,,,Aloud11,001,2022_Aug_03_1425,ProdSingRedoBetween,2021.2.3,59.89515951278931,
,,,,119,0,119,0,,,,,,,,,,,,,,,,,,,,,,901.8399212,None,,,,,,,,,,,,,,,,,fight,135,120,aloud,new,null,900.3220835000001,None,900.3220835000001,None,1,0.6563850000000002,900.3220835000001,None,0.6563850000000002,901.0057977,None,901.5064622000001,None,901.5064622000001,None,n,0.30401469999992514,901.5064622000001,None,0.30401469999992514,,,Aloud11,001,2022_Aug_03_1425,ProdSingRedoBetween,2021.2.3,59.89515951278931,
,,,,120,0,120,0,,,,,,,,,,,,,,,,,,,,,,904.0270438000001,None,,,,,,,,,,,,,,,,,trail,140,121,aloud,new,null,902.3405019999999,None,902.3405019999999,None,1,0.9739019000001008,902.3405019999999,None,0.9739019000001008,903.3504998,None,903.8587687999999,None,903.8587687999999,None,n,0.1357017000000269,903.8587687999999,None,0.1357017000000269,,,Aloud11,001,2022_Aug_03_1425,ProdSingRedoBetween,2021.2.3,59.89515951278931,
,,,,121,0,121,0,,,,,,,,,,,,,,,,,,,,,,907.0294035999999,None,,,,,,,,,,,,,,,,,payment,58,122,aloud,old,blue,904.5429981000001,None,904.5429981000001,None,4,1.859534199999871,904.5429981000001,None,1.859534199999871,906.4292056999999,None,906.9292863,None,906.9292863,None,n,0.07315220000009504,906.9292863,None,0.07315220000009504,,,Aloud11,001,2022_Aug_03_1425,ProdSingRedoBetween,2021.2.3,59.89515951278931,
,,,,122,0,122,0,,,,,,,,,,,,,,,,,,,,,,909.9482409000001,None,,,,,,,,,,,,,,,,,power,96,123,aloud,new,null,907.5311327999999,None,907.5311327999999,None,1,1.5274034000001393,907.5311327999999,None,1.5274034000001393,909.0824325,None,909.5980143,None,909.5980143,None,n,0.3324894999998378,909.5980143,None,0.3324894999998378,,,Aloud11,001,2022_Aug_03_1425,ProdSingRedoBetween,2021.2.3,59.89515951278931,
,,,,123,0,123,0,,,,,,,,,,,,,,,,,,,,,,912.236115,None,,,,,,,,,,,,,,,,,pressure,153,124,aloud,new,null,910.4628171,None,910.4628171,None,1,0.6036877999999888,910.4628171,None,0.6036877999999888,911.0826192999999,None,911.5877396,None,911.5877396,None,n,0.6307348000000275,911.5877396,None,0.6307348000000275,,,Aloud11,001,2022_Aug_03_1425,ProdSingRedoBetween,2021.2.3,59.89515951278931,
,,,,124,0,124,0,,,,,,,,,,,,,,,,,,,,,,915.2699874000001,None,,,,,,,,,,,,,,,,,question,28,125,aloud,old,yellow,912.7630313999999,None,912.7630313999999,None,1,1.6875477999999475,912.7630313999999,None,1.6875477999999475,914.4725809,None,914.9903823000001,None,914.9903823000001,None,n,0.25211669999998776,914.9903823000001,None,0.25211669999998776,,,Aloud11,001,2022_Aug_03_1425,ProdSingRedoBetween,2021.2.3,59.89515951278931,
,,,,125,0,125,0,,,,,,,,,,,,,,,,,,,,,,917.4891220000001,None,,,,,,,,,,,,,,,,,hearing,113,126,aloud,new,null,915.7796898,None,915.7796898,None,1,0.8389423999999508,915.7796898,None,0.8389423999999508,916.6401282,None,917.1568741,None,917.1568741,None,n,0.3016989000000194,917.1568741,None,0.3016989000000194,,,Aloud11,001,2022_Aug_03_1425,ProdSingRedoBetween,2021.2.3,59.89515951278931,
,,,,126,0,126,0,,,,,,,,,,,,,,,,,,,,,,919.7261357000001,None,,,,,,,,,,,,,,,,,narrow,44,127,aloud,old,blue,917.9991584,None,917.9991584,None,1,0.8675069999999323,917.9991584,None,0.8675069999999323,918.8986077000001,None,919.4078558,None,919.4078558,None,n,0.2986713000000236,919.4078558,None,0.2986713000000236,,,Aloud11,001,2022_Aug_03_1425,ProdSingRedoBetween,2021.2.3,59.89515951278931,
,,,,127,0,127,0,,,,,,,,,,,,,,,,,,,,,,922.5839205000001,None,,,,,,,,,,,,,,,,,appearance,20,128,aloud,old,yellow,920.2360187,None,920.2360187,None,1,1.246539999999868,920.2360187,None,1.246539999999868,921.5097798999999,None,922.0155381999999,None,922.0155381999999,None,n,0.5313520999998218,922.0155381999999,None,0.5313520999998218,,,Aloud11,001,2022_Aug_03_1425,ProdSingRedoBetween,2021.2.3,59.89515951278931,
,,,,128,0,128,0,,,,,,,,,,,,,,,,,,,,,,924.7796345,None,,,,,,,,,,,,,,,,,cousin,116,129,aloud,new,null,923.1066282,None,923.1066282,None,1,0.7998901999999362,923.1066282,None,0.7998901999999362,923.9300403000001,None,924.4397673,None,924.4397673,None,n,0.31476999999995314,924.4397673,None,0.31476999999995314,,,Aloud11,001,2022_Aug_03_1425,ProdSingRedoBetween,2021.2.3,59.89515951278931,
,,,,129,0,129,0,,,,,,,,,,,,,,,,,,,,,,927.4490773000001,None,,,,,,,,,,,,,,,,,machinery,118,130,aloud,new,null,925.2830963,None,925.2830963,None,1,0.8394184999999652,925.2830963,None,0.8394184999999652,926.1530012,None,926.6670725,None,926.6670725,None,n,0.7594844000000194,926.6670725,None,0.7594844000000194,,,Aloud11,001,2022_Aug_03_1425,ProdSingRedoBetween,2021.2.3,59.89515951278931,
,,,,130,0,130,0,,,,,,,,,,,,,,,,,,,,,,929.6179123000001,None,,,,,,,,,,,,,,,,,story,107,131,aloud,new,null,927.9551666000001,None,927.9551666000001,None,1,0.8074480999998741,927.9551666000001,None,0.8074480999998741,928.7898561000001,None,929.3007795,None,929.3007795,None,n,0.2937979999999243,929.3007795,None,0.2937979999999243,,,Aloud11,001,2022_Aug_03_1425,ProdSingRedoBetween,2021.2.3,59.89515951278931,
,,,,131,0,131,0,,,,,,,,,,,,,,,,,,,,,,933.0546582000001,None,,,,,,,,,,,,,,,,,account,86,132,aloud,old,red,930.1249263000001,None,930.1249263000001,None,2,2.2857027000000016,930.1249263000001,None,2.2857027000000016,932.4441337,None,932.9568229,None,932.9568229,None,n,0.07770949999985532,932.9568229,None,0.07770949999985532,,,Aloud11,001,2022_Aug_03_1425,ProdSingRedoBetween,2021.2.3,59.89515951278931,
,,,,132,0,132,0,,,,,,,,,,,,,,,,,,,,,,938.4932196999999,None,,,,,,,,,,,,,,,,,department,179,133,aloud,new,null,933.5552292000001,None,933.5552292000001,None,3,3.9752299000001585,933.5552292000001,None,3.9752299000001585,937.561777,None,938.0765442999999,None,938.0765442999999,None,n,0.3900618000000122,938.0765442999999,None,0.3900618000000122,,,Aloud11,001,2022_Aug_03_1425,ProdSingRedoBetween,2021.2.3,59.89515951278931,
,,,,133,0,133,0,,,,,,,,,,,,,,,,,,,,,,940.6122389999999,None,,,,,,,,,,,,,,,,,discussion,166,134,aloud,new,null,938.9982805999999,None,938.9982805999999,None,1,0.6683187999999518,938.9982805999999,None,0.6683187999999518,939.6964319,None,940.2119581000001,None,940.2119581000001,None,n,0.374657900000102,940.2119581000001,None,0.374657900000102,,,Aloud11,001,2022_Aug_03_1425,ProdSingRedoBetween,2021.2.3,59.89515951278931,
,,,,134,0,134,0,,,,,,,,,,,,,,,,,,,,,,942.5808112999999,None,,,,,,,,,,,,,,,,,solution,101,135,aloud,new,null,941.1211433,None,941.1211433,None,1,0.6414133999999194,941.1211433,None,0.6414133999999194,941.7813233,None,942.2806916999999,None,942.2806916999999,None,n,0.2817873999999847,942.2806916999999,None,0.2817873999999847,,,Aloud11,001,2022_Aug_03_1425,ProdSingRedoBetween,2021.2.3,59.89515951278931,
,,,,135,0,135,0,,,,,,,,,,,,,,,,,,,,,,944.5995592999999,None,,,,,,,,,,,,,,,,,center,133,136,aloud,new,null,943.0914908999999,None,943.0914908999999,None,1,0.6310696000000462,943.0914908999999,None,0.6310696000000462,943.7515987999999,None,944.2660092,None,944.2660092,None,n,0.30465620000018134,944.2660092,None,0.30465620000018134,,,Aloud11,001,2022_Aug_03_1425,ProdSingRedoBetween,2021.2.3,59.89515951278931,
,,,,136,0,136,0,,,,,,,,,,,,,,,,,,,,,,946.5681949000001,None,,,,,,,,,,,,,,,,,spoke,125,137,aloud,new,null,945.1200513,None,945.1200513,None,1,0.6104687000001832,945.1200513,None,0.6104687000001832,945.7540507,None,946.2715626,None,946.2715626,None,n,0.2750722000000678,946.2715626,None,0.2750722000000678,,,Aloud11,001,2022_Aug_03_1425,ProdSingRedoBetween,2021.2.3,59.89515951278931,
,,,,137,0,137,0,,,,,,,,,,,,,,,,,,,,,,948.8711861999999,None,,,,,,,,,,,,,,,,,report,139,138,aloud,new,null,947.0761084,None,947.0761084,None,1,0.9266385999999329,947.0761084,None,0.9266385999999329,948.0280200999999,None,948.5369420999999,None,948.5369420999999,None,n,0.3055656999999883,948.5369420999999,None,0.3055656999999883,,,Aloud11,001,2022_Aug_03_1425,ProdSingRedoBetween,2021.2.3,59.89515951278931,
,,,,138,0,138,0,,,,,,,,,,,,,,,,,,,,,,950.9896325000001,None,,,,,,,,,,,,,,,,,drink,152,139,aloud,new,null,949.3734857999999,None,949.3734857999999,None,1,0.7810243000001265,949.3734857999999,None,0.7810243000001265,950.1722791000001,None,950.6726376,None,950.6726376,None,n,0.289853100000073,950.6726376,None,0.289853100000073,,,Aloud11,001,2022_Aug_03_1425,ProdSingRedoBetween,2021.2.3,59.89515951278931,
,,,,139,0,139,0,,,,,,,,,,,,,,,,,,,,,,952.9746111000001,None,,,,,,,,,,,,,,,,,second,46,140,aloud,old,blue,951.4904667,None,951.4904667,None,1,0.6160297999999784,951.4904667,None,0.6160297999999784,952.1266566,None,952.6410923,None,952.6410923,None,n,0.313536699999986,952.6410923,None,0.313536699999986,,,Aloud11,001,2022_Aug_03_1425,ProdSingRedoBetween,2021.2.3,59.89515951278931,
,,,,140,0,140,0,,,,,,,,,,,,,,,,,,,,,,956.5615873,None,,,,,,,,,,,,,,,,,military,42,141,aloud,old,blue,953.4803124000001,None,953.4803124000001,None,5,2.3702714999999444,953.4803124000001,None,2.3702714999999444,955.88638,None,956.3947678000001,None,956.3947678000001,None,n,0.14387210000018058,956.3947678000001,None,0.14387210000018058,,,Aloud11,001,2022_Aug_03_1425,ProdSingRedoBetween,2021.2.3,59.89515951278931,
,,,,141,0,141,0,,,,,,,,,,,,,,,,,,,,,,958.5299309999999,None,,,,,,,,,,,,,,,,,burden,68,142,aloud,old,red,957.0620322000001,None,957.0620322000001,None,1,0.636496900000111,957.0620322000001,None,0.636496900000111,957.729518,None,958.2296838999999,None,958.2296838999999,None,n,0.2847730999999385,958.2296838999999,None,0.2847730999999385,,,Aloud11,001,2022_Aug_03_1425,ProdSingRedoBetween,2021.2.3,59.89515951278931,
,,,,142,0,142,0,,,,,,,,,,,,,,,,,,,,,,961.8168084,None,,,,,,,,,,,,,,,,,conference,112,143,aloud,new,null,959.0364953,None,959.0364953,None,3,2.1580677000001742,959.0364953,None,2.1580677000001742,961.2303822,None,961.733636,None,961.733636,None,n,0.060918799999853945,961.733636,None,0.060918799999853945,,,Aloud11,001,2022_Aug_03_1425,ProdSingRedoBetween,2021.2.3,59.89515951278931,
,,,,143,0,143,0,,,,,,,,,,,,,,,,,,,,,,964.1023521000001,None,,,,,,,,,,,,,,,,,empty,110,144,aloud,new,null,962.3317737000001,None,962.3317737000001,None,1,0.7108636000000388,962.3317737000001,None,0.7108636000000388,963.0693660000001,None,963.5853157,None,963.5853157,None,n,0.4891938000000664,963.5853157,None,0.4891938000000664,,,Aloud11,001,2022_Aug_03_1425,ProdSingRedoBetween,2021.2.3,59.89515951278931,
,,,,144,0,144,0,,,,,,,,,,,,,,,,,,,,,,966.3045558,None,,,,,,,,,,,,,,,,,surface,57,145,aloud,old,blue,964.6096535,None,964.6096535,None,1,0.8489612999999281,964.6096535,None,0.8489612999999281,965.4911665000001,None,966.0109920000001,None,966.0109920000001,None,n,0.2716378000000077,966.0109920000001,None,0.2716378000000077,,,Aloud11,001,2022_Aug_03_1425,ProdSingRedoBetween,2021.2.3,59.89515951278931,
,,,,145,0,145,0,,,,,,,,,,,,,,,,,,,,,,968.6613132000001,None,,,,,,,,,,,,,,,,,strain,39,146,aloud,old,blue,966.8109699,None,966.8109699,None,1,0.9357052000000294,966.8109699,None,0.9357052000000294,967.7819456000001,None,968.2922156999999,None,968.2922156999999,None,n,0.3344908999999916,968.2922156999999,None,0.3344908999999916,,,Aloud11,001,2022_Aug_03_1425,ProdSingRedoBetween,2021.2.3,59.89515951278931,
,,,,146,0,146,0,,,,,,,,,,,,,,,,,,,,,,971.0779437,None,,,,,,,,,,,,,,,,,atmosphere,99,147,aloud,new,null,969.1766123000001,None,969.1766123000001,None,1,0.8339152999999442,969.1766123000001,None,0.8339152999999442,970.0448293000001,None,970.5590206,None,970.5590206,None,n,0.4995733000000655,970.5590206,None,0.4995733000000655,,,Aloud11,001,2022_Aug_03_1425,ProdSingRedoBetween,2021.2.3,59.89515951278931,
,,,,147,0,147,0,,,,,,,,,,,,,,,,,,,,,,973.9139586,None,,,,,,,,,,,,,,,,,vision,177,148,aloud,new,null,971.6052083000001,None,971.6052083000001,None,1,1.461472300000196,971.6052083000001,None,1.461472300000196,973.1009382999999,None,973.6160203999999,None,973.6160203999999,None,n,0.27468550000003233,973.6160203999999,None,0.27468550000003233,,,Aloud11,001,2022_Aug_03_1425,ProdSingRedoBetween,2021.2.3,59.89515951278931,
,,,,148,0,148,0,,,,,,,,,,,,,,,,,,,,,,976.0975901,None,,,,,,,,,,,,,,,,,waste,0,149,aloud,old,yellow,974.4417365,None,974.4417365,None,1,0.7288478000000396,974.4417365,None,0.7288478000000396,975.2000024,None,975.7151631999999,None,975.7151631999999,None,n,0.3593249000000469,975.7151631999999,None,0.3593249000000469,,,Aloud11,001,2022_Aug_03_1425,ProdSingRedoBetween,2021.2.3,59.89515951278931,
,,,,149,0,149,0,,,,,,,,,,,,,,,,,,,,,,978.5001275000001,None,,,,,,,,,,,,,,,,,quick,7,150,aloud,old,yellow,976.6066626999999,None,976.6066626999999,None,1,1.0518933000000743,976.6066626999999,None,1.0518933000000743,977.6837047,None,978.1875813,None,978.1875813,None,n,0.2949507000000722,978.1875813,None,0.2949507000000722,,,Aloud11,001,2022_Aug_03_1425,ProdSingRedoBetween,2021.2.3,59.89515951278931,
,,,,150,0,150,0,,,,,,,,,,,,,,,,,,,,,,981.6532123999999,None,,,,,,,,,,,,,,,,,grade,117,151,aloud,new,null,979.0083781,None,979.0083781,None,1,1.546171399999821,979.0083781,None,1.546171399999821,980.5969329999999,None,981.1025410999999,None,981.1025410999999,None,n,0.5239642999999887,981.1025410999999,None,0.5239642999999887,,,Aloud11,001,2022_Aug_03_1425,ProdSingRedoBetween,2021.2.3,59.89515951278931,
,,,,151,0,151,0,,,,,,,,,,,,,,,,,,,,,,986.0409834000001,None,,,,,,,,,,,,,,,,,career,108,152,aloud,new,null,982.1616329,None,982.1616329,None,2,2.9850450999999794,982.1616329,None,2.9850450999999794,985.1800168999999,None,985.6929561999999,None,985.6929561999999,None,n,0.3256807000000208,985.6929561999999,None,0.3256807000000208,,,Aloud11,001,2022_Aug_03_1425,ProdSingRedoBetween,2021.2.3,59.89515951278931,
,,,,152,0,152,0,,,,,,,,,,,,,,,,,,,,,,988.2598753999999,None,,,,,,,,,,,,,,,,,silence,78,153,aloud,old,red,986.5452415999999,None,986.5452415999999,None,1,0.8493191999998544,986.5452415999999,None,0.8493191999998544,987.427251,None,987.9428294,None,987.9428294,None,n,0.29182779999996455,987.9428294,None,0.29182779999996455,,,Aloud11,001,2022_Aug_03_1425,ProdSingRedoBetween,2021.2.3,59.89515951278931,
,,,,153,0,153,0,,,,,,,,,,,,,,,,,,,,,,991.5965832,None,,,,,,,,,,,,,,,,,majority,34,154,aloud,old,blue,988.7701828999999,None,988.7701828999999,None,4,1.640279800000144,988.7701828999999,None,1.640279800000144,990.4298264,None,990.9351243,None,990.9351243,None,n,0.6353983000001335,990.9351243,None,0.6353983000001335,,,Aloud11,001,2022_Aug_03_1425,ProdSingRedoBetween,2021.2.3,59.89515951278931,
,,,,154,0,154,0,,,,,,,,,,,,,,,,,,,,,,995.4868048,None,,,,,,,,,,,,,,,,,drama,60,155,aloud,old,red,992.0984278,None,992.0984278,None,4,2.5122200000000703,992.0984278,None,2.5122200000000703,994.640037,None,995.1545731,None,995.1545731,None,n,0.30421819999992294,995.1545731,None,0.30421819999992294,,,Aloud11,001,2022_Aug_03_1425,ProdSingRedoBetween,2021.2.3,59.89515951278931,
,,,,155,0,155,0,,,,,,,,,,,,,,,,,,,,,,998.4043426,None,,,,,,,,,,,,,,,,,series,11,156,aloud,old,yellow,996.0117772,None,996.0117772,None,4,1.2387664999998833,996.0117772,None,1.2387664999998833,997.2702648999999,None,997.7709967,None,997.7709967,None,f,0.6076172000000497,997.7709967,None,0.6076172000000497,,,Aloud11,001,2022_Aug_03_1425,ProdSingRedoBetween,2021.2.3,59.89515951278931,
,,,,156,0,156,0,,,,,,,,,,,,,,,,,,,,,,1001.8736617000001,None,,,,,,,,,,,,,,,,,management,130,157,aloud,new,null,998.906245,None,998.906245,None,6,1.704449699999941,998.906245,None,1.704449699999941,1000.6444092999999,None,1001.1571434000001,None,1001.1571434000001,None,f,0.6934863999999834,1001.1571434000001,None,0.6934863999999834,,,Aloud11,001,2022_Aug_03_1425,ProdSingRedoBetween,2021.2.3,59.89515951278931,
,,,,157,0,157,0,,,,,,,,,,,,,,,,,,,,,,1005.2936274,None,,,,,,,,,,,,,,,,,title,3,158,aloud,old,yellow,1002.3738256,None,1002.3738256,None,3,2.3169747000001735,1002.3738256,None,2.3169747000001735,1004.7191194999999,None,1005.2281164,None,1005.2281164,None,n,0.046531899999990856,1005.2281164,None,0.046531899999990856,,,Aloud11,001,2022_Aug_03_1425,ProdSingRedoBetween,2021.2.3,59.89515951278931,
,,,,158,0,158,0,,,,,,,,,,,,,,,,,,,,,,1007.9637260000001,None,,,,,,,,,,,,,,,,,corner,170,159,aloud,new,null,1005.7972916,None,1005.7972916,None,1,1.557272199999943,1005.7972916,None,1.557272199999943,1007.3807914,None,1007.8987171,None,1007.8987171,None,n,0.04789989999994759,1007.8987171,None,0.04789989999994759,,,Aloud11,001,2022_Aug_03_1425,ProdSingRedoBetween,2021.2.3,59.89515951278931,
,,,,159,0,159,0,,,,,,,,,,,,,,,,,,,,,,1010.281908,None,,,,,,,,,,,,,,,,,principal,146,160,aloud,new,null,1008.4873861,None,1008.4873861,None,1,0.9391877999998997,1008.4873861,None,0.9391877999998997,1009.4593148,None,1009.9661996000001,None,1009.9661996000001,None,n,0.2843281999998908,1009.9661996000001,None,0.2843281999998908,,,Aloud11,001,2022_Aug_03_1425,ProdSingRedoBetween,2021.2.3,59.89515951278931,
,,,,160,0,160,0,,,,,,,,,,,,,,,,,,,,,,1012.7343549999999,None,,,,,,,,,,,,,,,,,addition,77,161,aloud,old,red,1010.7861194000001,None,1010.7861194000001,None,1,1.0644964999999047,1010.7861194000001,None,1.0644964999999047,1011.8680889999999,None,1012.36738,None,1012.36738,None,n,0.34729169999991427,1012.36738,None,0.34729169999991427,,,Aloud11,001,2022_Aug_03_1425,ProdSingRedoBetween,2021.2.3,59.89515951278931,
,,,,161,0,161,0,,,,,,,,,,,,,,,,,,,,,,1014.6377815,None,,,,,,,,,,,,,,,,,guest,165,162,aloud,new,null,1013.2409045,None,1013.2409045,None,1,0.5936993999998776,1013.2409045,None,0.5936993999998776,1013.8554819,None,1014.3693708,None,1014.3693708,None,n,0.249177699999791,1014.3693708,None,0.249177699999791,,,Aloud11,001,2022_Aug_03_1425,ProdSingRedoBetween,2021.2.3,59.89515951278931,
,,,,162,0,162,0,,,,,,,,,,,,,,,,,,,,,,1016.9261967000001,None,,,,,,,,,,,,,,,,,industry,162,163,aloud,new,null,1015.1608832000001,None,1015.1608832000001,None,1,0.9056931000000077,1015.1608832000001,None,0.9056931000000077,1016.0907734000001,None,1016.6081462000001,None,1016.6081462000001,None,n,0.29849540000009256,1016.6081462000001,None,0.29849540000009256,,,Aloud11,001,2022_Aug_03_1425,ProdSingRedoBetween,2021.2.3,59.89515951278931,
,,,,163,0,163,0,,,,,,,,,,,,,,,,,,,,,,1018.8948273,None,,,,,,,,,,,,,,,,,clear,27,164,aloud,old,yellow,1017.4443689000001,None,1017.4443689000001,None,1,0.5982442000001811,1017.4443689000001,None,0.5982442000001811,1018.0749136999999,None,1018.5946859,None,1018.5946859,None,n,0.27196630000003097,1018.5946859,None,0.27196630000003097,,,Aloud11,001,2022_Aug_03_1425,ProdSingRedoBetween,2021.2.3,59.89515951278931,
,,,,164,0,164,0,,,,,,,,,,,,,,,,,,,,,,1021.9302996,None,,,,,,,,,,,,,,,,,income,105,165,aloud,new,null,1019.4137936000001,None,1019.4137936000001,None,4,1.5406964999999673,1019.4137936000001,None,1.5406964999999673,1020.9758929000001,None,1021.4785248,None,1021.4785248,None,f,0.41998289999992267,1021.4785248,None,0.41998289999992267,,,Aloud11,001,2022_Aug_03_1425,ProdSingRedoBetween,2021.2.3,59.89515951278931,
,,,,165,0,165,0,,,,,,,,,,,,,,,,,,,,,,1026.3326121999999,None,,,,,,,,,,,,,,,,,space,64,166,aloud,old,red,1022.4479425999999,None,1022.4479425999999,None,2,3.0826669000000493,1022.4479425999999,None,3.0826669000000493,1025.5490515000001,None,1026.0725846,None,1026.0725846,None,n,0.23408309999990706,1026.0725846,None,0.23408309999990706,,,Aloud11,001,2022_Aug_03_1425,ProdSingRedoBetween,2021.2.3,59.89515951278931,
,,,,166,0,166,0,,,,,,,,,,,,,,,,,,,,,,1028.9338188000002,None,,,,,,,,,,,,,,,,,brief,1,167,aloud,old,yellow,1026.8350222,None,1026.8350222,None,3,1.3675579999999172,1026.8350222,None,1.3675579999999172,1028.2358503,None,1028.7504995999998,None,1028.7504995999998,None,n,0.15608409999981632,1028.7504995999998,None,0.15608409999981632,,,Aloud11,001,2022_Aug_03_1425,ProdSingRedoBetween,2021.2.3,59.89515951278931,
,,,,167,0,167,0,,,,,,,,,,,,,,,,,,,,,,1031.7199308,None,,,,,,,,,,,,,,,,,present,131,168,aloud,new,null,1029.4368974,None,1029.4368974,None,1,1.6856910999999855,1029.4368974,None,1.6856910999999855,1031.1554832000002,None,1031.6743522000002,None,1031.6743522000002,None,n,0.01625330000001668,1031.6743522000002,None,0.01625330000001668,,,Aloud11,001,2022_Aug_03_1425,ProdSingRedoBetween,2021.2.3,59.89515951278931,
,,,,168,0,168,0,,,,,,,,,,,,,,,,,,,,,,1033.7414146,None,,,,,,,,,,,,,,,,,council,173,169,aloud,new,null,1032.2286973999999,None,1032.2286973999999,None,1,0.7498067000001356,1032.2286973999999,None,0.7498067000001356,1033.0063406999998,None,1033.5226558,None,1033.5226558,None,n,0.1919467000000168,1033.5226558,None,0.1919467000000168,,,Aloud11,001,2022_Aug_03_1425,ProdSingRedoBetween,2021.2.3,59.89515951278931,
,,,,169,0,169,0,,,,,,,,,,,,,,,,,,,,,,1035.7739953,None,,,,,,,,,,,,,,,,,listen,142,170,aloud,new,null,1034.2682506,None,1034.2682506,None,1,0.6624793999999383,1034.2682506,None,0.6624793999999383,1034.9598425,None,1035.4756112999999,None,1035.4756112999999,None,n,0.2790056999999706,1035.4756112999999,None,0.2790056999999706,,,Aloud11,001,2022_Aug_03_1425,ProdSingRedoBetween,2021.2.3,59.89515951278931,
,,,,170,0,170,0,,,,,,,,,,,,,,,,,,,,,,1037.7931095,None,,,,,,,,,,,,,,,,,angle,132,171,aloud,new,null,1036.2759428,None,1036.2759428,None,1,0.6306156000000556,1036.2759428,None,0.6306156000000556,1036.9277640999999,None,1037.4425422999998,None,1037.4425422999998,None,n,0.3200834000001578,1037.4425422999998,None,0.3200834000001578,,,Aloud11,001,2022_Aug_03_1425,ProdSingRedoBetween,2021.2.3,59.89515951278931,
,,,,171,0,171,0,,,,,,,,,,,,,,,,,,,,,,1044.3824758,None,,,,,,,,,,,,,,,,,minor,148,172,aloud,new,null,1038.2959798000002,None,1038.2959798000002,None,2,4.554597299999841,1038.2959798000002,None,4.554597299999841,1042.8817321000001,None,1043.3814813,None,1043.3814813,None,n,0.9730709999998908,1043.3814813,None,0.9730709999998908,,,Aloud11,001,2022_Aug_03_1425,ProdSingRedoBetween,2021.2.3,59.89515951278931,
,,,,172,0,172,0,,,,,,,,,,,,,,,,,,,,,,1046.2845136,None,,,,,,,,,,,,,,,,,stranger,128,173,aloud,new,null,1044.8903458999998,None,1044.8903458999998,None,1,0.8082266000001255,1044.8903458999998,None,0.8082266000001255,1045.7184938,None,1046.2215592000002,None,1046.2215592000002,None,n,0.044981199999938326,1046.2215592000002,None,0.044981199999938326,,,Aloud11,001,2022_Aug_03_1425,ProdSingRedoBetween,2021.2.3,59.89515951278931,
,,,,173,0,173,0,,,,,,,,,,,,,,,,,,,,,,1048.3199140000002,None,,,,,,,,,,,,,,,,,smooth,55,174,aloud,old,blue,1046.7956132,None,1046.7956132,None,1,0.7029715999999553,1046.7956132,None,0.7029715999999553,1047.5201570999998,None,1048.0197813,None,1048.0197813,None,n,0.2708823999998913,1048.0197813,None,0.2708823999998913,,,Aloud11,001,2022_Aug_03_1425,ProdSingRedoBetween,2021.2.3,59.89515951278931,
,,,,174,0,174,0,,,,,,,,,,,,,,,,,,,,,,1050.3385315,None,,,,,,,,,,,,,,,,,voice,124,175,aloud,new,null,1048.8294114,None,1048.8294114,None,1,0.7251737999999932,1048.8294114,None,0.7251737999999932,1049.5709066,None,1050.0744722,None,1050.0744722,None,n,0.2480315000000246,1050.0744722,None,0.2480315000000246,,,Aloud11,001,2022_Aug_03_1425,ProdSingRedoBetween,2021.2.3,59.89515951278931,
,,,,175,0,175,0,,,,,,,,,,,,,,,,,,,,,,1052.3909313,None,,,,,,,,,,,,,,,,,shape,114,176,aloud,new,null,1050.8482921999998,None,1050.8482921999998,None,1,0.6902562000000216,1050.8482921999998,None,0.6902562000000216,1051.5567695,None,1052.0665399,None,1052.0665399,None,n,0.30406280000011066,1052.0665399,None,0.30406280000011066,,,Aloud11,001,2022_Aug_03_1425,ProdSingRedoBetween,2021.2.3,59.89515951278931,
,,,,176,0,176,0,,,,,,,,,,,,,,,,,,,,,,1055.7939858999998,None,,,,,,,,,,,,,,,,,session,13,177,aloud,old,yellow,1052.8958673000002,None,1052.8958673000002,None,3,1.4827193999999508,1052.8958673000002,None,1.4827193999999508,1054.410284,None,1054.9099471999998,None,1054.9099471999998,None,n,0.8606368000000657,1054.9099471999998,None,0.8606368000000657,,,Aloud11,001,2022_Aug_03_1425,ProdSingRedoBetween,2021.2.3,59.89515951278931,
,,,,177,0,177,0,,,,,,,,,,,,,,,,,,,,,,1057.7958248999998,None,,,,,,,,,,,,,,,,,place,161,178,aloud,new,null,1056.3019696000001,None,1056.3019696000001,None,1,0.7967679999999291,1056.3019696000001,None,0.7967679999999291,1057.1354493,None,1057.6459905000002,None,1057.6459905000002,None,n,0.12469220000002679,1057.6459905000002,None,0.12469220000002679,,,Aloud11,001,2022_Aug_03_1425,ProdSingRedoBetween,2021.2.3,59.89515951278931,
,,,,178,0,178,0,,,,,,,,,,,,,,,,,,,,,,1059.6646038,None,,,,,,,,,,,,,,,,,foundation,155,179,aloud,new,null,1058.3059306,None,1058.3059306,None,1,0.7126619999999093,1058.3059306,None,0.7126619999999093,1059.0481205,None,1059.5535648999999,None,1059.5535648999999,None,n,0.08101109999984146,1059.5535648999999,None,0.08101109999984146,,,Aloud11,001,2022_Aug_03_1425,ProdSingRedoBetween,2021.2.3,59.89515951278931,
,,,,179,0,179,0,,,,,,,,,,,,,,,,,,,,,,1062.1338406999998,None,,,,,,,,,,,,,,,,,husband,120,180,aloud,new,null,1060.174967,None,1060.174967,None,1,1.1635866999999962,1060.174967,None,1.1635866999999962,1061.3662731999998,None,1061.8766912,None,1061.8766912,None,n,0.2380576000000474,1061.8766912,None,0.2380576000000474,,,Aloud11,001,2022_Aug_03_1425,ProdSingRedoBetween,2021.2.3,59.89515951278931,
,,,,,,,,,,,,,,,,,,,,,,,,,,,,,,,,,,,,,,,,,,,,,,,,,,,,,,,,,,,,,,,,,,,,,,,,,1062.6348377,None,,,,,,,
