StudyLoop.thisRepN,StudyLoop.thisTrialN,StudyLoop.thisN,StudyLoop.thisIndex,TestLoop.thisRepN,TestLoop.thisTrialN,TestLoop.thisN,TestLoop.thisIndex,textCondition.started,textCondition.stopped,keyCondition.keys,keyCondition.rt,keyCondition.started,keyCondition.stopped,Condition,textWelcome.started,textWelcome.stopped,keyWelcome.keys,keyWelcome.rt,keyWelcome.started,keyWelcome.stopped,textAloud.started,textAloud.stopped,textSilent.started,textSilent.stopped,textSing.started,textSing.stopped,conditional_text.started,conditional_text.stopped,textBlank500.started,textBlank500.stopped,study_word,study_num,study_order,study_type,word_color,textStudy.started,textStudy.stopped,keyStudy.keys,keyStudy.started,keyStudy.stopped,textTestInstructions.started,textTestInstructions.stopped,key_resp_3.keys,key_resp_3.rt,key_resp_3.started,key_resp_3.stopped,test_word,test_num,test_order,test_condition,old_new_test,test_word_original_color,textConf.started,textConf.stopped,textConfScale.started,textConfScale.stopped,keyConf.keys,keyConf.rt,keyConf.started,keyConf.stopped,confidence response time,textTestBlank.started,textTestBlank.stopped,textRKN.started,textRKN.stopped,textRKNScale.started,textRKNScale.stopped,keyRKN.keys,keyRKN.rt,keyRKN.started,keyRKN.stopped,rkn response time,textEnd.started,textEnd.stopped,participant,session,date,expName,psychopyVersion,frameRate
,,,,,,,,65.3799124,None,b,131.1482414,65.3799124,None,,,,,,,,,,,,,,,,,,,,,,,,,,,,,,,,,,,,,,,,,,,,,,,,,,,,,,,,,,,,,,Oct22Aloud1,62,2022_Oct_14_1425,ProdSingRedoBetween,2021.2.3,59.87113326
,,,,,,,,,,,,,,AloudTest,196.5744808,None,space,15.1535811,196.5744808,None,,,,,,,,,,,,,,,,,,,,,,,,,,,,,,,,,,,,,,,,,,,,,,,,,,,,,,,Oct22Aloud1,62,2022_Oct_14_1425,ProdSingRedoBetween,2021.2.3,59.87113326
0,0,0,0,,,,,,,,,,,,,,,,,,196.5744808,None,196.5744808,None,196.5744808,None,196.5744808,None,214.2602289,None,material,77,1,aloud,red,212.2595743,None,None,212.2595743,None,,,,,,,,,,,,,,,,,,,,,,,,,,,,,,,,,,,Oct22Aloud1,62,2022_Oct_14_1425,ProdSingRedoBetween,2021.2.3,59.87113326
1,0,1,0,,,,,,,,,,,,,,,,,,,,,,,,,,216.7794494,None,taste,52,2,aloud,blue,214.7637827,None,None,214.7637827,None,,,,,,,,,,,,,,,,,,,,,,,,,,,,,,,,,,,Oct22Aloud1,62,2022_Oct_14_1425,ProdSingRedoBetween,2021.2.3,59.87113326
2,0,2,0,,,,,,,,,,,,,,,,,,,,,,,,,,219.2819053,None,crowd,13,3,aloud,yellow,217.2799903,None,None,217.2799903,None,,,,,,,,,,,,,,,,,,,,,,,,,,,,,,,,,,,Oct22Aloud1,62,2022_Oct_14_1425,ProdSingRedoBetween,2021.2.3,59.87113326
3,0,3,0,,,,,,,,,,,,,,,,,,,,,,,,,,221.7843368,None,story,37,4,aloud,blue,219.7821899,None,None,219.7821899,None,,,,,,,,,,,,,,,,,,,,,,,,,,,,,,,,,,,Oct22Aloud1,62,2022_Oct_14_1425,ProdSingRedoBetween,2021.2.3,59.87113326
4,0,4,0,,,,,,,,,,,,,,,,,,,,,,,,,,224.2869033,None,poetry,53,5,aloud,blue,222.2850436,None,None,222.2850436,None,,,,,,,,,,,,,,,,,,,,,,,,,,,,,,,,,,,Oct22Aloud1,62,2022_Oct_14_1425,ProdSingRedoBetween,2021.2.3,59.87113326
5,0,5,0,,,,,,,,,,,,,,,,,,,,,,,,,,226.7890953,None,judge,20,6,aloud,yellow,224.7872709,None,None,224.7872709,None,,,,,,,,,,,,,,,,,,,,,,,,,,,,,,,,,,,Oct22Aloud1,62,2022_Oct_14_1425,ProdSingRedoBetween,2021.2.3,59.87113326
6,0,6,0,,,,,,,,,,,,,,,,,,,,,,,,,,229.2918286,None,benefit,75,7,aloud,red,227.2896674,None,None,227.2896674,None,,,,,,,,,,,,,,,,,,,,,,,,,,,,,,,,,,,Oct22Aloud1,62,2022_Oct_14_1425,ProdSingRedoBetween,2021.2.3,59.87113326
7,0,7,0,,,,,,,,,,,,,,,,,,,,,,,,,,231.8109529,None,cover,74,8,aloud,red,229.8027677,None,None,229.8027677,None,,,,,,,,,,,,,,,,,,,,,,,,,,,,,,,,,,,Oct22Aloud1,62,2022_Oct_14_1425,ProdSingRedoBetween,2021.2.3,59.87113326
8,0,8,0,,,,,,,,,,,,,,,,,,,,,,,,,,234.3132834,None,review,14,9,aloud,yellow,232.3113985,None,None,232.3113985,None,,,,,,,,,,,,,,,,,,,,,,,,,,,,,,,,,,,Oct22Aloud1,62,2022_Oct_14_1425,ProdSingRedoBetween,2021.2.3,59.87113326
9,0,9,0,,,,,,,,,,,,,,,,,,,,,,,,,,236.8159515,None,route,1,10,aloud,yellow,234.8146175,None,None,234.8146175,None,,,,,,,,,,,,,,,,,,,,,,,,,,,,,,,,,,,Oct22Aloud1,62,2022_Oct_14_1425,ProdSingRedoBetween,2021.2.3,59.87113326
10,0,10,0,,,,,,,,,,,,,,,,,,,,,,,,,,239.31843,None,agreement,44,11,aloud,blue,237.3165005,None,None,237.3165005,None,,,,,,,,,,,,,,,,,,,,,,,,,,,,,,,,,,,Oct22Aloud1,62,2022_Oct_14_1425,ProdSingRedoBetween,2021.2.3,59.87113326
11,0,11,0,,,,,,,,,,,,,,,,,,,,,,,,,,241.8208059,None,medicine,55,12,aloud,blue,239.8189788,None,None,239.8189788,None,,,,,,,,,,,,,,,,,,,,,,,,,,,,,,,,,,,Oct22Aloud1,62,2022_Oct_14_1425,ProdSingRedoBetween,2021.2.3,59.87113326
12,0,12,0,,,,,,,,,,,,,,,,,,,,,,,,,,244.3232585,None,range,11,13,aloud,yellow,242.321127,None,None,242.321127,None,,,,,,,,,,,,,,,,,,,,,,,,,,,,,,,,,,,Oct22Aloud1,62,2022_Oct_14_1425,ProdSingRedoBetween,2021.2.3,59.87113326
13,0,13,0,,,,,,,,,,,,,,,,,,,,,,,,,,246.8260147,None,junior,64,14,aloud,red,244.823809,None,None,244.823809,None,,,,,,,,,,,,,,,,,,,,,,,,,,,,,,,,,,,Oct22Aloud1,62,2022_Oct_14_1425,ProdSingRedoBetween,2021.2.3,59.87113326
14,0,14,0,,,,,,,,,,,,,,,,,,,,,,,,,,249.3451724,None,addition,67,15,aloud,red,247.331707,None,None,247.331707,None,,,,,,,,,,,,,,,,,,,,,,,,,,,,,,,,,,,Oct22Aloud1,62,2022_Oct_14_1425,ProdSingRedoBetween,2021.2.3,59.87113326
15,0,15,0,,,,,,,,,,,,,,,,,,,,,,,,,,251.8478491,None,relation,8,16,aloud,yellow,249.8457905,None,None,249.8457905,None,,,,,,,,,,,,,,,,,,,,,,,,,,,,,,,,,,,Oct22Aloud1,62,2022_Oct_14_1425,ProdSingRedoBetween,2021.2.3,59.87113326
16,0,16,0,,,,,,,,,,,,,,,,,,,,,,,,,,254.3500175,None,shear,24,17,aloud,yellow,252.3482371,None,None,252.3482371,None,,,,,,,,,,,,,,,,,,,,,,,,,,,,,,,,,,,Oct22Aloud1,62,2022_Oct_14_1425,ProdSingRedoBetween,2021.2.3,59.87113326
17,0,17,0,,,,,,,,,,,,,,,,,,,,,,,,,,256.8523392,None,touch,36,18,aloud,blue,254.8506098,None,None,254.8506098,None,,,,,,,,,,,,,,,,,,,,,,,,,,,,,,,,,,,Oct22Aloud1,62,2022_Oct_14_1425,ProdSingRedoBetween,2021.2.3,59.87113326
18,0,18,0,,,,,,,,,,,,,,,,,,,,,,,,,,259.3552863,None,management,29,19,aloud,blue,257.3529613,None,None,257.3529613,None,,,,,,,,,,,,,,,,,,,,,,,,,,,,,,,,,,,Oct22Aloud1,62,2022_Oct_14_1425,ProdSingRedoBetween,2021.2.3,59.87113326
19,0,19,0,,,,,,,,,,,,,,,,,,,,,,,,,,261.8577788,None,career,7,20,aloud,yellow,259.8558099,None,None,259.8558099,None,,,,,,,,,,,,,,,,,,,,,,,,,,,,,,,,,,,Oct22Aloud1,62,2022_Oct_14_1425,ProdSingRedoBetween,2021.2.3,59.87113326
20,0,20,0,,,,,,,,,,,,,,,,,,,,,,,,,,264.3602698,None,impact,27,21,aloud,yellow,262.3581856,None,None,262.3581856,None,,,,,,,,,,,,,,,,,,,,,,,,,,,,,,,,,,,Oct22Aloud1,62,2022_Oct_14_1425,ProdSingRedoBetween,2021.2.3,59.87113326
21,0,21,0,,,,,,,,,,,,,,,,,,,,,,,,,,266.8793148,None,command,19,22,aloud,yellow,264.8667902,None,None,264.8667902,None,,,,,,,,,,,,,,,,,,,,,,,,,,,,,,,,,,,Oct22Aloud1,62,2022_Oct_14_1425,ProdSingRedoBetween,2021.2.3,59.87113326
22,0,22,0,,,,,,,,,,,,,,,,,,,,,,,,,,269.3819546,None,population,58,23,aloud,blue,267.3796778,None,None,267.3796778,None,,,,,,,,,,,,,,,,,,,,,,,,,,,,,,,,,,,Oct22Aloud1,62,2022_Oct_14_1425,ProdSingRedoBetween,2021.2.3,59.87113326
23,0,23,0,,,,,,,,,,,,,,,,,,,,,,,,,,271.8844287,None,tough,59,24,aloud,yellow,269.8830591,None,None,269.8830591,None,,,,,,,,,,,,,,,,,,,,,,,,,,,,,,,,,,,Oct22Aloud1,62,2022_Oct_14_1425,ProdSingRedoBetween,2021.2.3,59.87113326
24,0,24,0,,,,,,,,,,,,,,,,,,,,,,,,,,274.4035897,None,bucket,15,25,aloud,yellow,272.3919232,None,None,272.3919232,None,,,,,,,,,,,,,,,,,,,,,,,,,,,,,,,,,,,Oct22Aloud1,62,2022_Oct_14_1425,ProdSingRedoBetween,2021.2.3,59.87113326
25,0,25,0,,,,,,,,,,,,,,,,,,,,,,,,,,276.9060423,None,stand,86,26,aloud,red,274.9059836,None,None,274.9059836,None,,,,,,,,,,,,,,,,,,,,,,,,,,,,,,,,,,,Oct22Aloud1,62,2022_Oct_14_1425,ProdSingRedoBetween,2021.2.3,59.87113326
26,0,26,0,,,,,,,,,,,,,,,,,,,,,,,,,,279.425061,None,rapid,30,27,aloud,blue,277.4111832,None,None,277.4111832,None,,,,,,,,,,,,,,,,,,,,,,,,,,,,,,,,,,,Oct22Aloud1,62,2022_Oct_14_1425,ProdSingRedoBetween,2021.2.3,59.87113326
27,0,27,0,,,,,,,,,,,,,,,,,,,,,,,,,,281.9278081,None,people,33,28,aloud,blue,279.9255499,None,None,279.9255499,None,,,,,,,,,,,,,,,,,,,,,,,,,,,,,,,,,,,Oct22Aloud1,62,2022_Oct_14_1425,ProdSingRedoBetween,2021.2.3,59.87113326
28,0,28,0,,,,,,,,,,,,,,,,,,,,,,,,,,284.4300218,None,swift,65,29,aloud,red,282.4284902,None,None,282.4284902,None,,,,,,,,,,,,,,,,,,,,,,,,,,,,,,,,,,,Oct22Aloud1,62,2022_Oct_14_1425,ProdSingRedoBetween,2021.2.3,59.87113326
29,0,29,0,,,,,,,,,,,,,,,,,,,,,,,,,,286.9328162,None,appearance,25,30,aloud,yellow,284.9305766,None,None,284.9305766,None,,,,,,,,,,,,,,,,,,,,,,,,,,,,,,,,,,,Oct22Aloud1,62,2022_Oct_14_1425,ProdSingRedoBetween,2021.2.3,59.87113326
30,0,30,0,,,,,,,,,,,,,,,,,,,,,,,,,,289.4520476,None,captain,80,31,aloud,red,287.4465537,None,None,287.4465537,None,,,,,,,,,,,,,,,,,,,,,,,,,,,,,,,,,,,Oct22Aloud1,62,2022_Oct_14_1425,ProdSingRedoBetween,2021.2.3,59.87113326
31,0,31,0,,,,,,,,,,,,,,,,,,,,,,,,,,291.9709671,None,position,35,32,aloud,blue,289.9556383,None,None,289.9556383,None,,,,,,,,,,,,,,,,,,,,,,,,,,,,,,,,,,,Oct22Aloud1,62,2022_Oct_14_1425,ProdSingRedoBetween,2021.2.3,59.87113326
32,0,32,0,,,,,,,,,,,,,,,,,,,,,,,,,,294.4903184,None,front,84,33,aloud,red,292.4751596,None,None,292.4751596,None,,,,,,,,,,,,,,,,,,,,,,,,,,,,,,,,,,,Oct22Aloud1,62,2022_Oct_14_1425,ProdSingRedoBetween,2021.2.3,59.87113326
33,0,33,0,,,,,,,,,,,,,,,,,,,,,,,,,,296.9925623,None,length,40,34,aloud,blue,294.9905747,None,None,294.9905747,None,,,,,,,,,,,,,,,,,,,,,,,,,,,,,,,,,,,Oct22Aloud1,62,2022_Oct_14_1425,ProdSingRedoBetween,2021.2.3,59.87113326
34,0,34,0,,,,,,,,,,,,,,,,,,,,,,,,,,299.4952826,None,frank,48,35,aloud,blue,297.4930592,None,None,297.4930592,None,,,,,,,,,,,,,,,,,,,,,,,,,,,,,,,,,,,Oct22Aloud1,62,2022_Oct_14_1425,ProdSingRedoBetween,2021.2.3,59.87113326
35,0,35,0,,,,,,,,,,,,,,,,,,,,,,,,,,302.0145,None,revolution,73,36,aloud,red,300.0026857,None,None,300.0026857,None,,,,,,,,,,,,,,,,,,,,,,,,,,,,,,,,,,,Oct22Aloud1,62,2022_Oct_14_1425,ProdSingRedoBetween,2021.2.3,59.87113326
36,0,36,0,,,,,,,,,,,,,,,,,,,,,,,,,,304.5188618,None,estate,21,37,aloud,yellow,302.5177175,None,None,302.5177175,None,,,,,,,,,,,,,,,,,,,,,,,,,,,,,,,,,,,Oct22Aloud1,62,2022_Oct_14_1425,ProdSingRedoBetween,2021.2.3,59.87113326
37,0,37,0,,,,,,,,,,,,,,,,,,,,,,,,,,307.0361117,None,colonel,51,38,aloud,blue,305.0341603,None,None,305.0341603,None,,,,,,,,,,,,,,,,,,,,,,,,,,,,,,,,,,,Oct22Aloud1,62,2022_Oct_14_1425,ProdSingRedoBetween,2021.2.3,59.87113326
38,0,38,0,,,,,,,,,,,,,,,,,,,,,,,,,,309.5385945,None,style,0,39,aloud,yellow,307.5376224,None,None,307.5376224,None,,,,,,,,,,,,,,,,,,,,,,,,,,,,,,,,,,,Oct22Aloud1,62,2022_Oct_14_1425,ProdSingRedoBetween,2021.2.3,59.87113326
39,0,39,0,,,,,,,,,,,,,,,,,,,,,,,,,,312.0576297,None,solution,68,40,aloud,red,310.0477461,None,None,310.0477461,None,,,,,,,,,,,,,,,,,,,,,,,,,,,,,,,,,,,Oct22Aloud1,62,2022_Oct_14_1425,ProdSingRedoBetween,2021.2.3,59.87113326
40,0,40,0,,,,,,,,,,,,,,,,,,,,,,,,,,314.5768465,None,waste,39,41,aloud,blue,312.5685817,None,None,312.5685817,None,,,,,,,,,,,,,,,,,,,,,,,,,,,,,,,,,,,Oct22Aloud1,62,2022_Oct_14_1425,ProdSingRedoBetween,2021.2.3,59.87113326
41,0,41,0,,,,,,,,,,,,,,,,,,,,,,,,,,317.0819366,None,plane,6,42,aloud,yellow,315.0774742,None,None,315.0774742,None,,,,,,,,,,,,,,,,,,,,,,,,,,,,,,,,,,,Oct22Aloud1,62,2022_Oct_14_1425,ProdSingRedoBetween,2021.2.3,59.87113326
42,0,42,0,,,,,,,,,,,,,,,,,,,,,,,,,,319.6154219,None,profession,34,43,aloud,blue,317.6008565,None,None,317.6008565,None,,,,,,,,,,,,,,,,,,,,,,,,,,,,,,,,,,,Oct22Aloud1,62,2022_Oct_14_1425,ProdSingRedoBetween,2021.2.3,59.87113326
43,0,43,0,,,,,,,,,,,,,,,,,,,,,,,,,,322.1345637,None,course,76,44,aloud,red,320.1204309,None,None,320.1204309,None,,,,,,,,,,,,,,,,,,,,,,,,,,,,,,,,,,,Oct22Aloud1,62,2022_Oct_14_1425,ProdSingRedoBetween,2021.2.3,59.87113326
44,0,44,0,,,,,,,,,,,,,,,,,,,,,,,,,,324.6369997,None,tennis,3,45,aloud,yellow,322.6350005,None,None,322.6350005,None,,,,,,,,,,,,,,,,,,,,,,,,,,,,,,,,,,,Oct22Aloud1,62,2022_Oct_14_1425,ProdSingRedoBetween,2021.2.3,59.87113326
45,0,45,0,,,,,,,,,,,,,,,,,,,,,,,,,,327.1561748,None,turkey,82,46,aloud,red,325.140434,None,None,325.140434,None,,,,,,,,,,,,,,,,,,,,,,,,,,,,,,,,,,,Oct22Aloud1,62,2022_Oct_14_1425,ProdSingRedoBetween,2021.2.3,59.87113326
46,0,46,0,,,,,,,,,,,,,,,,,,,,,,,,,,329.6587402,None,worker,72,47,aloud,red,327.6567361,None,None,327.6567361,None,,,,,,,,,,,,,,,,,,,,,,,,,,,,,,,,,,,Oct22Aloud1,62,2022_Oct_14_1425,ProdSingRedoBetween,2021.2.3,59.87113326
47,0,47,0,,,,,,,,,,,,,,,,,,,,,,,,,,332.1779888,None,build,16,48,aloud,yellow,330.1636252,None,None,330.1636252,None,,,,,,,,,,,,,,,,,,,,,,,,,,,,,,,,,,,Oct22Aloud1,62,2022_Oct_14_1425,ProdSingRedoBetween,2021.2.3,59.87113326
48,0,48,0,,,,,,,,,,,,,,,,,,,,,,,,,,334.6804413,None,rural,60,49,aloud,red,332.6783681,None,None,332.6783681,None,,,,,,,,,,,,,,,,,,,,,,,,,,,,,,,,,,,Oct22Aloud1,62,2022_Oct_14_1425,ProdSingRedoBetween,2021.2.3,59.87113326
49,0,49,0,,,,,,,,,,,,,,,,,,,,,,,,,,337.1998571,None,history,18,50,aloud,yellow,335.1854564,None,None,335.1854564,None,,,,,,,,,,,,,,,,,,,,,,,,,,,,,,,,,,,Oct22Aloud1,62,2022_Oct_14_1425,ProdSingRedoBetween,2021.2.3,59.87113326
50,0,50,0,,,,,,,,,,,,,,,,,,,,,,,,,,339.7020056,None,property,88,51,aloud,red,337.7022471,None,None,337.7022471,None,,,,,,,,,,,,,,,,,,,,,,,,,,,,,,,,,,,Oct22Aloud1,62,2022_Oct_14_1425,ProdSingRedoBetween,2021.2.3,59.87113326
51,0,51,0,,,,,,,,,,,,,,,,,,,,,,,,,,342.2045468,None,emergency,31,52,aloud,blue,340.2037808,None,None,340.2037808,None,,,,,,,,,,,,,,,,,,,,,,,,,,,,,,,,,,,Oct22Aloud1,62,2022_Oct_14_1425,ProdSingRedoBetween,2021.2.3,59.87113326
52,0,52,0,,,,,,,,,,,,,,,,,,,,,,,,,,344.7238255,None,little,71,53,aloud,red,342.711783,None,None,342.711783,None,,,,,,,,,,,,,,,,,,,,,,,,,,,,,,,,,,,Oct22Aloud1,62,2022_Oct_14_1425,ProdSingRedoBetween,2021.2.3,59.87113326
53,0,53,0,,,,,,,,,,,,,,,,,,,,,,,,,,347.2262213,None,discussion,38,54,aloud,blue,345.2242365,None,None,345.2242365,None,,,,,,,,,,,,,,,,,,,,,,,,,,,,,,,,,,,Oct22Aloud1,62,2022_Oct_14_1425,ProdSingRedoBetween,2021.2.3,59.87113326
54,0,54,0,,,,,,,,,,,,,,,,,,,,,,,,,,349.7455783,None,store,26,55,aloud,yellow,347.7356774,None,None,347.7356774,None,,,,,,,,,,,,,,,,,,,,,,,,,,,,,,,,,,,Oct22Aloud1,62,2022_Oct_14_1425,ProdSingRedoBetween,2021.2.3,59.87113326
55,0,55,0,,,,,,,,,,,,,,,,,,,,,,,,,,352.2642548,None,point,78,56,aloud,red,350.2495557,None,None,350.2495557,None,,,,,,,,,,,,,,,,,,,,,,,,,,,,,,,,,,,Oct22Aloud1,62,2022_Oct_14_1425,ProdSingRedoBetween,2021.2.3,59.87113326
56,0,56,0,,,,,,,,,,,,,,,,,,,,,,,,,,354.7671635,None,territory,62,57,aloud,red,352.7651235,None,None,352.7651235,None,,,,,,,,,,,,,,,,,,,,,,,,,,,,,,,,,,,Oct22Aloud1,62,2022_Oct_14_1425,ProdSingRedoBetween,2021.2.3,59.87113326
57,0,57,0,,,,,,,,,,,,,,,,,,,,,,,,,,357.2696318,None,general,81,58,aloud,red,355.2704987,None,None,355.2704987,None,,,,,,,,,,,,,,,,,,,,,,,,,,,,,,,,,,,Oct22Aloud1,62,2022_Oct_14_1425,ProdSingRedoBetween,2021.2.3,59.87113326
58,0,58,0,,,,,,,,,,,,,,,,,,,,,,,,,,359.7721119,None,foundation,63,59,aloud,red,357.7724747,None,None,357.7724747,None,,,,,,,,,,,,,,,,,,,,,,,,,,,,,,,,,,,Oct22Aloud1,62,2022_Oct_14_1425,ProdSingRedoBetween,2021.2.3,59.87113326
59,0,59,0,,,,,,,,,,,,,,,,,,,,,,,,,,362.2913715,None,beauty,47,60,aloud,blue,360.277171,None,None,360.277171,None,,,,,,,,,,,,,,,,,,,,,,,,,,,,,,,,,,,Oct22Aloud1,62,2022_Oct_14_1425,ProdSingRedoBetween,2021.2.3,59.87113326
60,0,60,0,,,,,,,,,,,,,,,,,,,,,,,,,,364.7937719,None,sleep,85,61,aloud,red,362.791723,None,None,362.791723,None,,,,,,,,,,,,,,,,,,,,,,,,,,,,,,,,,,,Oct22Aloud1,62,2022_Oct_14_1425,ProdSingRedoBetween,2021.2.3,59.87113326
61,0,61,0,,,,,,,,,,,,,,,,,,,,,,,,,,367.2962565,None,burden,2,62,aloud,yellow,365.2968577,None,None,365.2968577,None,,,,,,,,,,,,,,,,,,,,,,,,,,,,,,,,,,,Oct22Aloud1,62,2022_Oct_14_1425,ProdSingRedoBetween,2021.2.3,59.87113326
62,0,62,0,,,,,,,,,,,,,,,,,,,,,,,,,,369.815592,None,speech,50,63,aloud,blue,367.805683,None,None,367.805683,None,,,,,,,,,,,,,,,,,,,,,,,,,,,,,,,,,,,Oct22Aloud1,62,2022_Oct_14_1425,ProdSingRedoBetween,2021.2.3,59.87113326
63,0,63,0,,,,,,,,,,,,,,,,,,,,,,,,,,372.3345458,None,music,17,64,aloud,yellow,370.3204739,None,None,370.3204739,None,,,,,,,,,,,,,,,,,,,,,,,,,,,,,,,,,,,Oct22Aloud1,62,2022_Oct_14_1425,ProdSingRedoBetween,2021.2.3,59.87113326
64,0,64,0,,,,,,,,,,,,,,,,,,,,,,,,,,374.836902,None,place,66,65,aloud,red,372.8349053,None,None,372.8349053,None,,,,,,,,,,,,,,,,,,,,,,,,,,,,,,,,,,,Oct22Aloud1,62,2022_Oct_14_1425,ProdSingRedoBetween,2021.2.3,59.87113326
65,0,65,0,,,,,,,,,,,,,,,,,,,,,,,,,,377.3563331,None,sunset,5,66,aloud,yellow,375.3418447,None,None,375.3418447,None,,,,,,,,,,,,,,,,,,,,,,,,,,,,,,,,,,,Oct22Aloud1,62,2022_Oct_14_1425,ProdSingRedoBetween,2021.2.3,59.87113326
66,0,66,0,,,,,,,,,,,,,,,,,,,,,,,,,,379.8588306,None,breath,9,67,aloud,yellow,377.8591667,None,None,377.8591667,None,,,,,,,,,,,,,,,,,,,,,,,,,,,,,,,,,,,Oct22Aloud1,62,2022_Oct_14_1425,ProdSingRedoBetween,2021.2.3,59.87113326
67,0,67,0,,,,,,,,,,,,,,,,,,,,,,,,,,382.3622776,None,community,69,68,aloud,red,380.3593376,None,None,380.3593376,None,,,,,,,,,,,,,,,,,,,,,,,,,,,,,,,,,,,Oct22Aloud1,62,2022_Oct_14_1425,ProdSingRedoBetween,2021.2.3,59.87113326
68,0,68,0,,,,,,,,,,,,,,,,,,,,,,,,,,384.8637116,None,brief,70,69,aloud,red,382.8628285,None,None,382.8628285,None,,,,,,,,,,,,,,,,,,,,,,,,,,,,,,,,,,,Oct22Aloud1,62,2022_Oct_14_1425,ProdSingRedoBetween,2021.2.3,59.87113326
69,0,69,0,,,,,,,,,,,,,,,,,,,,,,,,,,387.3828967,None,interview,28,70,aloud,yellow,385.3679296,None,None,385.3679296,None,,,,,,,,,,,,,,,,,,,,,,,,,,,,,,,,,,,Oct22Aloud1,62,2022_Oct_14_1425,ProdSingRedoBetween,2021.2.3,59.87113326
70,0,70,0,,,,,,,,,,,,,,,,,,,,,,,,,,389.9018807,None,salary,45,71,aloud,blue,387.8872616,None,None,387.8872616,None,,,,,,,,,,,,,,,,,,,,,,,,,,,,,,,,,,,Oct22Aloud1,62,2022_Oct_14_1425,ProdSingRedoBetween,2021.2.3,59.87113326
71,0,71,0,,,,,,,,,,,,,,,,,,,,,,,,,,392.4066323,None,defeat,61,72,aloud,red,390.4025123,None,None,390.4025123,None,,,,,,,,,,,,,,,,,,,,,,,,,,,,,,,,,,,Oct22Aloud1,62,2022_Oct_14_1425,ProdSingRedoBetween,2021.2.3,59.87113326
72,0,72,0,,,,,,,,,,,,,,,,,,,,,,,,,,394.9237563,None,conference,10,73,aloud,yellow,392.9217146,None,None,392.9217146,None,,,,,,,,,,,,,,,,,,,,,,,,,,,,,,,,,,,Oct22Aloud1,62,2022_Oct_14_1425,ProdSingRedoBetween,2021.2.3,59.87113326
73,0,73,0,,,,,,,,,,,,,,,,,,,,,,,,,,397.4262855,None,nature,56,74,aloud,blue,395.4253745,None,None,395.4253745,None,,,,,,,,,,,,,,,,,,,,,,,,,,,,,,,,,,,Oct22Aloud1,62,2022_Oct_14_1425,ProdSingRedoBetween,2021.2.3,59.87113326
74,0,74,0,,,,,,,,,,,,,,,,,,,,,,,,,,399.9288254,None,disease,57,75,aloud,blue,397.9271099,None,None,397.9271099,None,,,,,,,,,,,,,,,,,,,,,,,,,,,,,,,,,,,Oct22Aloud1,62,2022_Oct_14_1425,ProdSingRedoBetween,2021.2.3,59.87113326
75,0,75,0,,,,,,,,,,,,,,,,,,,,,,,,,,402.4312449,None,owner,54,76,aloud,blue,400.4298329,None,None,400.4298329,None,,,,,,,,,,,,,,,,,,,,,,,,,,,,,,,,,,,Oct22Aloud1,62,2022_Oct_14_1425,ProdSingRedoBetween,2021.2.3,59.87113326
76,0,76,0,,,,,,,,,,,,,,,,,,,,,,,,,,404.9336048,None,sweet,4,77,aloud,yellow,402.9317688,None,None,402.9317688,None,,,,,,,,,,,,,,,,,,,,,,,,,,,,,,,,,,,Oct22Aloud1,62,2022_Oct_14_1425,ProdSingRedoBetween,2021.2.3,59.87113326
77,0,77,0,,,,,,,,,,,,,,,,,,,,,,,,,,407.453075,None,working,89,78,aloud,red,405.4387904,None,None,405.4387904,None,,,,,,,,,,,,,,,,,,,,,,,,,,,,,,,,,,,Oct22Aloud1,62,2022_Oct_14_1425,ProdSingRedoBetween,2021.2.3,59.87113326
78,0,78,0,,,,,,,,,,,,,,,,,,,,,,,,,,409.9554937,None,afternoon,22,79,aloud,yellow,407.9563477,None,None,407.9563477,None,,,,,,,,,,,,,,,,,,,,,,,,,,,,,,,,,,,Oct22Aloud1,62,2022_Oct_14_1425,ProdSingRedoBetween,2021.2.3,59.87113326
79,0,79,0,,,,,,,,,,,,,,,,,,,,,,,,,,412.4747357,None,scene,43,80,aloud,blue,410.4609125,None,None,410.4609125,None,,,,,,,,,,,,,,,,,,,,,,,,,,,,,,,,,,,Oct22Aloud1,62,2022_Oct_14_1425,ProdSingRedoBetween,2021.2.3,59.87113326
80,0,80,0,,,,,,,,,,,,,,,,,,,,,,,,,,414.9780854,None,author,42,81,aloud,blue,412.9748118,None,None,412.9748118,None,,,,,,,,,,,,,,,,,,,,,,,,,,,,,,,,,,,Oct22Aloud1,62,2022_Oct_14_1425,ProdSingRedoBetween,2021.2.3,59.87113326
81,0,81,0,,,,,,,,,,,,,,,,,,,,,,,,,,417.4962279,None,narrow,41,82,aloud,blue,415.4879597,None,None,415.4879597,None,,,,,,,,,,,,,,,,,,,,,,,,,,,,,,,,,,,Oct22Aloud1,62,2022_Oct_14_1425,ProdSingRedoBetween,2021.2.3,59.87113326
82,0,82,0,,,,,,,,,,,,,,,,,,,,,,,,,,420.015417,None,short,87,83,aloud,red,418.0040332,None,None,418.0040332,None,,,,,,,,,,,,,,,,,,,,,,,,,,,,,,,,,,,Oct22Aloud1,62,2022_Oct_14_1425,ProdSingRedoBetween,2021.2.3,59.87113326
83,0,83,0,,,,,,,,,,,,,,,,,,,,,,,,,,422.5179125,None,month,32,84,aloud,blue,420.5159915,None,None,420.5159915,None,,,,,,,,,,,,,,,,,,,,,,,,,,,,,,,,,,,Oct22Aloud1,62,2022_Oct_14_1425,ProdSingRedoBetween,2021.2.3,59.87113326
84,0,84,0,,,,,,,,,,,,,,,,,,,,,,,,,,425.0371051,None,service,49,85,aloud,blue,423.0308977,None,None,423.0308977,None,,,,,,,,,,,,,,,,,,,,,,,,,,,,,,,,,,,Oct22Aloud1,62,2022_Oct_14_1425,ProdSingRedoBetween,2021.2.3,59.87113326
85,0,85,0,,,,,,,,,,,,,,,,,,,,,,,,,,427.5563399,None,universal,79,86,aloud,red,425.5481479,None,None,425.5481479,None,,,,,,,,,,,,,,,,,,,,,,,,,,,,,,,,,,,Oct22Aloud1,62,2022_Oct_14_1425,ProdSingRedoBetween,2021.2.3,59.87113326
86,0,86,0,,,,,,,,,,,,,,,,,,,,,,,,,,430.0755477,None,institute,46,87,aloud,blue,428.0652414,None,None,428.0652414,None,,,,,,,,,,,,,,,,,,,,,,,,,,,,,,,,,,,Oct22Aloud1,62,2022_Oct_14_1425,ProdSingRedoBetween,2021.2.3,59.87113326
87,0,87,0,,,,,,,,,,,,,,,,,,,,,,,,,,432.5946991,None,safety,23,88,aloud,yellow,430.5793992,None,None,430.5793992,None,,,,,,,,,,,,,,,,,,,,,,,,,,,,,,,,,,,Oct22Aloud1,62,2022_Oct_14_1425,ProdSingRedoBetween,2021.2.3,59.87113326
88,0,88,0,,,,,,,,,,,,,,,,,,,,,,,,,,435.0968779,None,report,83,89,aloud,red,433.0951724,None,None,433.0951724,None,,,,,,,,,,,,,,,,,,,,,,,,,,,,,,,,,,,Oct22Aloud1,62,2022_Oct_14_1425,ProdSingRedoBetween,2021.2.3,59.87113326
89,0,89,0,,,,,,,,,,,,,,,,,,,,,,,,,,437.5996501,None,problem,12,90,aloud,yellow,435.5976703,None,None,435.5976703,None,,,,,,,,,,,,,,,,,,,,,,,,,,,,,,,,,,,Oct22Aloud1,62,2022_Oct_14_1425,ProdSingRedoBetween,2021.2.3,59.87113326
,,,,,,,,,,,,,,,,,,,,,,,,,,,,,,,,,,,,,,,,,438.1005283,None,k,69.4192074,438.1005283,None,,,,,,,,,,,,,,,,,,,,,,,,,,,,,Oct22Aloud1,62,2022_Oct_14_1425,ProdSingRedoBetween,2021.2.3,59.87113326
,,,,0,0,0,0,,,,,,,,,,,,,,,,,,,,,,525.3872739,None,,,,,,,,,,,,,,,,,marriage,153,1,aloud,new,null,508.037499,None,508.037499,None,2,13.5940755,508.037499,None,13.5940755,521.6542188,None,522.1726372,None,522.1726372,None,f,3.1950103,522.1726372,None,3.1950103,,,Oct22Aloud1,62,2022_Oct_14_1425,ProdSingRedoBetween,2021.2.3,59.87113326
,,,,1,0,1,0,,,,,,,,,,,,,,,,,,,,,,532.2775137,None,,,,,,,,,,,,,,,,,range,11,2,aloud,old,yellow,525.8905767,None,525.8905767,None,2,4.8930783,525.8905767,None,4.8930783,530.8093093,None,531.3186591,None,531.3186591,None,f,0.9289784,531.3186591,None,0.9289784,,,Oct22Aloud1,62,2022_Oct_14_1425,ProdSingRedoBetween,2021.2.3,59.87113326
,,,,2,0,2,0,,,,,,,,,,,,,,,,,,,,,,537.1823684,None,,,,,,,,,,,,,,,,,music,17,3,aloud,old,yellow,532.7859408,None,532.7859408,None,2,2.9736712,532.7859408,None,2.9736712,535.7821318,None,536.2815074,None,536.2815074,None,f,0.8701108,536.2815074,None,0.8701108,,,Oct22Aloud1,62,2022_Oct_14_1425,ProdSingRedoBetween,2021.2.3,59.87113326
,,,,3,0,3,0,,,,,,,,,,,,,,,,,,,,,,544.4730182,None,,,,,,,,,,,,,,,,,afternoon,22,4,aloud,old,yellow,537.6902303,None,537.6902303,None,1,4.741371,537.6902303,None,4.741371,542.4578012,None,542.9783198,None,542.9783198,None,f,1.4692859,542.9783198,None,1.4692859,,,Oct22Aloud1,62,2022_Oct_14_1425,ProdSingRedoBetween,2021.2.3,59.87113326
,,,,4,0,4,0,,,,,,,,,,,,,,,,,,,,,,552.4806025,None,,,,,,,,,,,,,,,,,property,88,5,aloud,old,red,544.9784589,None,544.9784589,None,4,5.557182,544.9784589,None,5.557182,550.5682863,None,551.0796244,None,551.0796244,None,n,1.3839085,551.0796244,None,1.3839085,,,Oct22Aloud1,62,2022_Oct_14_1425,ProdSingRedoBetween,2021.2.3,59.87113326
,,,,5,0,5,0,,,,,,,,,,,,,,,,,,,,,,557.7694741,None,,,,,,,,,,,,,,,,,clear,178,6,aloud,new,null,552.9890835,None,552.9890835,None,1,2.7626337,552.9890835,None,2.7626337,555.7702436,None,556.2848182,None,556.2848182,None,n,1.4668567,556.2848182,None,1.4668567,,,Oct22Aloud1,62,2022_Oct_14_1425,ProdSingRedoBetween,2021.2.3,59.87113326
,,,,6,0,6,0,,,,,,,,,,,,,,,,,,,,,,560.8756936,None,,,,,,,,,,,,,,,,,stand,86,7,aloud,old,red,558.2777572,None,558.2777572,None,1,1.6739761,558.2777572,None,1.6739761,559.9745095,None,560.4890421,None,560.4890421,None,n,0.3585618,560.4890421,None,0.3585618,,,Oct22Aloud1,62,2022_Oct_14_1425,ProdSingRedoBetween,2021.2.3,59.87113326
,,,,7,0,7,0,,,,,,,,,,,,,,,,,,,,,,565.8609374,None,,,,,,,,,,,,,,,,,institute,46,8,aloud,old,blue,561.3921487,None,561.3921487,None,6,2.5594285,561.3921487,None,2.5594285,563.9769413,None,564.4762984,None,564.4762984,None,r,1.3632669,564.4762984,None,1.3632669,,,Oct22Aloud1,62,2022_Oct_14_1425,ProdSingRedoBetween,2021.2.3,59.87113326
,,,,8,0,8,0,,,,,,,,,,,,,,,,,,,,,,570.6821653,None,,,,,,,,,,,,,,,,,author,42,9,aloud,old,blue,566.3705636,None,566.3705636,None,1,2.7809796,566.3705636,None,2.7809796,569.1809083,None,569.6858305,None,569.6858305,None,n,0.9696846,569.6858305,None,0.9696846,,,Oct22Aloud1,62,2022_Oct_14_1425,ProdSingRedoBetween,2021.2.3,59.87113326
,,,,9,0,9,0,,,,,,,,,,,,,,,,,,,,,,575.0874158,None,,,,,,,,,,,,,,,,,equipment,118,10,aloud,new,null,571.1900906,None,571.1900906,None,1,2.553796,571.1900906,None,2.553796,573.77411,None,574.2881039,None,574.2881039,None,n,0.7676297,574.2881039,None,0.7676297,,,Oct22Aloud1,62,2022_Oct_14_1425,ProdSingRedoBetween,2021.2.3,59.87113326
,,,,10,0,10,0,,,,,,,,,,,,,,,,,,,,,,580.558881,None,,,,,,,,,,,,,,,,,front,84,11,aloud,old,red,575.600451,None,575.600451,None,4,3.3431137,575.600451,None,3.3431137,578.9746487,None,579.4743477,None,579.4743477,None,f,1.0691299,579.4743477,None,1.0691299,,,Oct22Aloud1,62,2022_Oct_14_1425,ProdSingRedoBetween,2021.2.3,59.87113326
,,,,11,0,11,0,,,,,,,,,,,,,,,,,,,,,,583.8622017,None,,,,,,,,,,,,,,,,,prime,115,12,aloud,new,null,581.0652591,None,581.0652591,None,1,1.4303671,581.0652591,None,1.4303671,582.5171358,None,583.0296606,None,583.0296606,None,n,0.8018859,583.0296606,None,0.8018859,,,Oct22Aloud1,62,2022_Oct_14_1425,ProdSingRedoBetween,2021.2.3,59.87113326
,,,,12,0,12,0,,,,,,,,,,,,,,,,,,,,,,586.8819398,None,,,,,,,,,,,,,,,,,sleep,85,13,aloud,old,red,584.3625725,None,584.3625725,None,1,1.388931,584.3625725,None,1.388931,585.7817404,None,586.2894784,None,586.2894784,None,n,0.5741626,586.2894784,None,0.5741626,,,Oct22Aloud1,62,2022_Oct_14_1425,ProdSingRedoBetween,2021.2.3,59.87113326
,,,,13,0,13,0,,,,,,,,,,,,,,,,,,,,,,589.5846128,None,,,,,,,,,,,,,,,,,month,32,14,aloud,old,blue,587.3884123,None,587.3884123,None,1,1.1391773,587.3884123,None,1.1391773,588.5552932,None,589.0674604,None,589.0674604,None,n,0.5001748,589.0674604,None,0.5001748,,,Oct22Aloud1,62,2022_Oct_14_1425,ProdSingRedoBetween,2021.2.3,59.87113326
,,,,14,0,14,0,,,,,,,,,,,,,,,,,,,,,,594.7395795,None,,,,,,,,,,,,,,,,,relation,8,15,aloud,old,yellow,590.0877772,None,590.0877772,None,1,3.551953,590.0877772,None,3.551953,593.6617436,None,594.172571,None,594.172571,None,n,0.5468577,594.172571,None,0.5468577,,,Oct22Aloud1,62,2022_Oct_14_1425,ProdSingRedoBetween,2021.2.3,59.87113326
,,,,15,0,15,0,,,,,,,,,,,,,,,,,,,,,,599.0939681,None,,,,,,,,,,,,,,,,,appeal,126,16,aloud,new,null,595.2402982,None,595.2402982,None,2,1.7113943,595.2402982,None,1.7113943,596.9763074,None,597.4766105,None,597.4766105,None,f,1.5869986,597.4766105,None,1.5869986,,,Oct22Aloud1,62,2022_Oct_14_1425,ProdSingRedoBetween,2021.2.3,59.87113326
,,,,16,0,16,0,,,,,,,,,,,,,,,,,,,,,,602.0347298,None,,,,,,,,,,,,,,,,,minute,130,17,aloud,new,null,599.6019667,None,599.6019667,None,1,1.5015283,599.6019667,None,1.5015283,601.1320649,None,601.6473151,None,601.6473151,None,n,0.3603887,601.6473151,None,0.3603887,,,Oct22Aloud1,62,2022_Oct_14_1425,ProdSingRedoBetween,2021.2.3,59.87113326
,,,,17,0,17,0,,,,,,,,,,,,,,,,,,,,,,606.3013065,None,,,,,,,,,,,,,,,,,tough,59,18,aloud,old,yellow,602.5538505,None,602.5538505,None,3,1.8858172,602.5538505,None,1.8858172,604.4701185,None,604.9852044,None,604.9852044,None,f,1.29431,604.9852044,None,1.29431,,,Oct22Aloud1,62,2022_Oct_14_1425,ProdSingRedoBetween,2021.2.3,59.87113326
,,,,18,0,18,0,,,,,,,,,,,,,,,,,,,,,,609.5545572,None,,,,,,,,,,,,,,,,,background,127,19,aloud,new,null,606.813413,None,606.813413,None,1,1.8421543,606.813413,None,1.8421543,608.6960845,None,609.2042559,None,609.2042559,None,n,0.3312294,609.2042559,None,0.3312294,,,Oct22Aloud1,62,2022_Oct_14_1425,ProdSingRedoBetween,2021.2.3,59.87113326
,,,,19,0,19,0,,,,,,,,,,,,,,,,,,,,,,614.809454,None,,,,,,,,,,,,,,,,,power,171,20,aloud,new,null,610.0665185,None,610.0665185,None,4,1.5409775,610.0665185,None,1.5409775,611.6275301,None,612.1424244,None,612.1424244,None,r,2.640927,612.1424244,None,2.640927,,,Oct22Aloud1,62,2022_Oct_14_1425,ProdSingRedoBetween,2021.2.3,59.87113326
,,,,20,0,20,0,,,,,,,,,,,,,,,,,,,,,,619.0804932,None,,,,,,,,,,,,,,,,,point,78,21,aloud,old,red,615.318951,None,615.318951,None,2,2.1686556,615.318951,None,2.1686556,617.5182249,None,618.0297734,None,618.0297734,None,n,1.0257364,618.0297734,None,1.0257364,,,Oct22Aloud1,62,2022_Oct_14_1425,ProdSingRedoBetween,2021.2.3,59.87113326
,,,,21,0,21,0,,,,,,,,,,,,,,,,,,,,,,624.936486,None,,,,,,,,,,,,,,,,,military,122,22,aloud,new,null,619.5869489,None,619.5869489,None,1,4.4605071,619.5869489,None,4.4605071,624.0730654,None,624.5935496,None,624.5935496,None,n,0.3258774,624.5935496,None,0.3258774,,,Oct22Aloud1,62,2022_Oct_14_1425,ProdSingRedoBetween,2021.2.3,59.87113326
,,,,22,0,22,0,,,,,,,,,,,,,,,,,,,,,,629.107377,None,,,,,,,,,,,,,,,,,scene,43,23,aloud,old,blue,625.4450094,None,625.4450094,None,6,1.8824438,625.4450094,None,1.8824438,627.3573089,None,627.8779713,None,627.8779713,None,r,1.2095554,627.8779713,None,1.2095554,,,Oct22Aloud1,62,2022_Oct_14_1425,ProdSingRedoBetween,2021.2.3,59.87113326
,,,,23,0,23,0,,,,,,,,,,,,,,,,,,,,,,632.143901,None,,,,,,,,,,,,,,,,,second,150,24,aloud,new,null,629.6130717,None,629.6130717,None,1,1.4424128,629.6130717,None,1.4424128,631.0788192,None,631.5933214,None,631.5933214,None,n,0.5261836,631.5933214,None,0.5261836,,,Oct22Aloud1,62,2022_Oct_14_1425,ProdSingRedoBetween,2021.2.3,59.87113326
,,,,24,0,24,0,,,,,,,,,,,,,,,,,,,,,,634.8315283,None,,,,,,,,,,,,,,,,,cousin,132,25,aloud,new,null,632.6484546,None,632.6484546,None,1,1.3349934,632.6484546,None,1.3349934,634.015649,None,634.5381446,None,634.5381446,None,n,0.2694593,634.5381446,None,0.2694593,,,Oct22Aloud1,62,2022_Oct_14_1425,ProdSingRedoBetween,2021.2.3,59.87113326
,,,,25,0,25,0,,,,,,,,,,,,,,,,,,,,,,650.7289439,None,,,,,,,,,,,,,,,,,place,66,26,aloud,old,red,635.3468735,None,635.3468735,None,5,10.0765232,635.3468735,None,10.0765232,645.4434873,None,645.9575651,None,645.9575651,None,r,4.745864,645.9575651,None,4.745864,,,Oct22Aloud1,62,2022_Oct_14_1425,ProdSingRedoBetween,2021.2.3,59.87113326
,,,,26,0,26,0,,,,,,,,,,,,,,,,,,,,,,656.8016148,None,,,,,,,,,,,,,,,,,oxygen,119,27,aloud,new,null,651.2341169,None,651.2341169,None,1,4.5892407,651.2341169,None,4.5892407,655.8507944,None,656.3515312,None,656.3515312,None,n,0.4318662,656.3515312,None,0.4318662,,,Oct22Aloud1,62,2022_Oct_14_1425,ProdSingRedoBetween,2021.2.3,59.87113326
,,,,27,0,27,0,,,,,,,,,,,,,,,,,,,,,,661.3060607,None,,,,,,,,,,,,,,,,,people,33,28,aloud,old,blue,657.3020737,None,657.3020737,None,6,2.0412885,657.3020737,None,2.0412885,659.3747263,None,659.8881281,None,659.8881281,None,r,1.3912089,659.8881281,None,1.3912089,,,Oct22Aloud1,62,2022_Oct_14_1425,ProdSingRedoBetween,2021.2.3,59.87113326
,,,,28,0,28,0,,,,,,,,,,,,,,,,,,,,,,665.9290409,None,,,,,,,,,,,,,,,,,subject,144,29,aloud,new,null,661.821846,None,661.821846,None,4,2.6095532,661.821846,None,2.6095532,664.4665361,None,664.9765815,None,664.9765815,None,r,0.9267978,664.9765815,None,0.9267978,,,Oct22Aloud1,62,2022_Oct_14_1425,ProdSingRedoBetween,2021.2.3,59.87113326
,,,,29,0,29,0,,,,,,,,,,,,,,,,,,,,,,669.6990926,None,,,,,,,,,,,,,,,,,store,26,30,aloud,old,yellow,666.4440385,None,666.4440385,None,5,2.3793489,666.4440385,None,2.3793489,668.8492139,None,669.3695547,None,669.3695547,None,r,0.3098991,669.3695547,None,0.3098991,,,Oct22Aloud1,62,2022_Oct_14_1425,ProdSingRedoBetween,2021.2.3,59.87113326
,,,,30,0,30,0,,,,,,,,,,,,,,,,,,,,,,675.1867136,None,,,,,,,,,,,,,,,,,drink,125,31,aloud,new,null,670.2027721,None,670.2027721,None,1,3.0045573,670.2027721,None,3.0045573,673.2344146,None,673.7353512,None,673.7353512,None,f,1.4321731,673.7353512,None,1.4321731,,,Oct22Aloud1,62,2022_Oct_14_1425,ProdSingRedoBetween,2021.2.3,59.87113326
,,,,31,0,31,0,,,,,,,,,,,,,,,,,,,,,,679.0959117,None,,,,,,,,,,,,,,,,,career,7,32,aloud,old,yellow,675.6874247,None,675.6874247,None,4,1.7679144,675.6874247,None,1.7679144,677.473266,None,677.9784688,None,677.9784688,None,f,1.0929965,677.9784688,None,1.0929965,,,Oct22Aloud1,62,2022_Oct_14_1425,ProdSingRedoBetween,2021.2.3,59.87113326
,,,,32,0,32,0,,,,,,,,,,,,,,,,,,,,,,686.7647086,None,,,,,,,,,,,,,,,,,account,103,33,aloud,new,null,679.6229918,None,679.6229918,None,1,2.4805359,679.6229918,None,2.4805359,682.126901,None,682.627446,None,682.627446,None,n,4.1158474,682.627446,None,4.1158474,,,Oct22Aloud1,62,2022_Oct_14_1425,ProdSingRedoBetween,2021.2.3,59.87113326
,,,,33,0,33,0,,,,,,,,,,,,,,,,,,,,,,692.8409529,None,,,,,,,,,,,,,,,,,length,40,34,aloud,old,blue,687.2717383,None,687.2717383,None,6,2.4396173,687.2717383,None,2.4396173,689.7353478,None,690.2390479,None,690.2390479,None,r,2.5684287,690.2390479,None,2.5684287,,,Oct22Aloud1,62,2022_Oct_14_1425,ProdSingRedoBetween,2021.2.3,59.87113326
,,,,34,0,34,0,,,,,,,,,,,,,,,,,,,,,,698.2763033,None,,,,,,,,,,,,,,,,,junior,64,35,aloud,old,red,693.3596164,None,693.3596164,None,6,3.6716766,693.3596164,None,3.6716766,697.0611779,None,697.5784145,None,697.5784145,None,r,0.6769526,697.5784145,None,0.6769526,,,Oct22Aloud1,62,2022_Oct_14_1425,ProdSingRedoBetween,2021.2.3,59.87113326
,,,,35,0,35,0,,,,,,,,,,,,,,,,,,,,,,701.6796592,None,,,,,,,,,,,,,,,,,trend,146,36,aloud,new,null,698.7836287,None,698.7836287,None,2,1.7917127,698.7836287,None,1.7917127,700.595205,None,701.0983796,None,701.0983796,None,f,0.5649031,701.0983796,None,0.5649031,,,Oct22Aloud1,62,2022_Oct_14_1425,ProdSingRedoBetween,2021.2.3,59.87113326
,,,,36,0,36,0,,,,,,,,,,,,,,,,,,,,,,708.3029707,None,,,,,,,,,,,,,,,,,guest,165,37,aloud,new,null,702.1823447,None,702.1823447,None,1,3.1449759,702.1823447,None,3.1449759,705.3500999,None,705.850656,None,705.850656,None,n,2.436619,705.850656,None,2.436619,,,Oct22Aloud1,62,2022_Oct_14_1425,ProdSingRedoBetween,2021.2.3,59.87113326
,,,,37,0,37,0,,,,,,,,,,,,,,,,,,,,,,712.6907585,None,,,,,,,,,,,,,,,,,court,158,38,aloud,new,null,708.8124908,None,708.8124908,None,2,1.8267512,708.8124908,None,1.8267512,710.6557818,None,711.1580458,None,711.1580458,None,n,1.5052028,711.1580458,None,1.5052028,,,Oct22Aloud1,62,2022_Oct_14_1425,ProdSingRedoBetween,2021.2.3,59.87113326
,,,,38,0,38,0,,,,,,,,,,,,,,,,,,,,,,717.5455618,None,,,,,,,,,,,,,,,,,surprise,173,39,aloud,new,null,713.1988697,None,713.1988697,None,3,3.5924272,713.1988697,None,3.5924272,716.8145562,None,717.3285273,None,717.3285273,None,n,0.1986835,717.3285273,None,0.1986835,,,Oct22Aloud1,62,2022_Oct_14_1425,ProdSingRedoBetween,2021.2.3,59.87113326
,,,,39,0,39,0,,,,,,,,,,,,,,,,,,,,,,720.9990238,None,,,,,,,,,,,,,,,,,discussion,38,40,aloud,old,blue,718.0565877,None,718.0565877,None,5,1.5749791,718.0565877,None,1.5749791,719.6568501,None,720.1678993,None,720.1678993,None,r,0.807382,720.1678993,None,0.807382,,,Oct22Aloud1,62,2022_Oct_14_1425,ProdSingRedoBetween,2021.2.3,59.87113326
,,,,40,0,40,0,,,,,,,,,,,,,,,,,,,,,,724.2355086,None,,,,,,,,,,,,,,,,,service,49,41,aloud,old,blue,721.5073257,None,721.5073257,None,4,1.3881222,721.5073257,None,1.3881222,722.9188942,None,723.422233,None,723.422233,None,r,0.7930569,723.422233,None,0.7930569,,,Oct22Aloud1,62,2022_Oct_14_1425,ProdSingRedoBetween,2021.2.3,59.87113326
,,,,41,0,41,0,,,,,,,,,,,,,,,,,,,,,,727.3552913,None,,,,,,,,,,,,,,,,,bucket,15,42,aloud,old,yellow,724.7435811,None,724.7435811,None,6,1.6637449,724.7435811,None,1.6637449,726.440824,None,726.9588465,None,726.9588465,None,r,0.3764508,726.9588465,None,0.3764508,,,Oct22Aloud1,62,2022_Oct_14_1425,ProdSingRedoBetween,2021.2.3,59.87113326
,,,,42,0,42,0,,,,,,,,,,,,,,,,,,,,,,731.8281344,None,,,,,,,,,,,,,,,,,dance,141,43,aloud,new,null,727.8670418,None,727.8670418,None,2,1.8842383,727.8670418,None,1.8842383,729.7771612,None,730.2949371,None,730.2949371,None,f,1.512372,730.2949371,None,1.512372,,,Oct22Aloud1,62,2022_Oct_14_1425,ProdSingRedoBetween,2021.2.3,59.87113326
,,,,43,0,43,0,,,,,,,,,,,,,,,,,,,,,,736.3977141,None,,,,,,,,,,,,,,,,,course,76,44,aloud,old,red,732.3442743,None,732.3442743,None,4,2.7349413,732.3442743,None,2.7349413,735.0969973,None,735.5970383,None,735.5970383,None,f,0.7785049,735.5970383,None,0.7785049,,,Oct22Aloud1,62,2022_Oct_14_1425,ProdSingRedoBetween,2021.2.3,59.87113326
,,,,44,0,44,0,,,,,,,,,,,,,,,,,,,,,,739.9679101,None,,,,,,,,,,,,,,,,,department,152,45,aloud,new,null,736.9114479,None,736.9114479,None,6,1.7358195,736.9114479,None,1.7358195,738.6682772,None,739.1901017,None,739.1901017,None,r,0.7612057,739.1901017,None,0.7612057,,,Oct22Aloud1,62,2022_Oct_14_1425,ProdSingRedoBetween,2021.2.3,59.87113326
,,,,45,0,45,0,,,,,,,,,,,,,,,,,,,,,,744.0219581,None,,,,,,,,,,,,,,,,,track,107,46,aloud,new,null,740.4793562,None,740.4793562,None,3,2.1600098,740.4793562,None,2.1600098,742.6736153,None,743.1994222,None,743.1994222,None,f,0.7918058,743.1994222,None,0.7918058,,,Oct22Aloud1,62,2022_Oct_14_1425,ProdSingRedoBetween,2021.2.3,59.87113326
,,,,46,0,46,0,,,,,,,,,,,,,,,,,,,,,,747.8090927,None,,,,,,,,,,,,,,,,,population,58,47,aloud,old,blue,744.5390967,None,744.5390967,None,6,1.2441525,744.5390967,None,1.2441525,745.8100914,None,746.3242341,None,746.3242341,None,r,1.4670122,746.3242341,None,1.4670122,,,Oct22Aloud1,62,2022_Oct_14_1425,ProdSingRedoBetween,2021.2.3,59.87113326
,,,,47,0,47,0,,,,,,,,,,,,,,,,,,,,,,752.1634134,None,,,,,,,,,,,,,,,,,silence,138,48,aloud,new,null,748.317783,None,748.317783,None,2,2.177444,748.317783,None,2.177444,750.5129119,None,751.0144703,None,751.0144703,None,n,1.1207349,751.0144703,None,1.1207349,,,Oct22Aloud1,62,2022_Oct_14_1425,ProdSingRedoBetween,2021.2.3,59.87113326
,,,,48,0,48,0,,,,,,,,,,,,,,,,,,,,,,756.5350761,None,,,,,,,,,,,,,,,,,public,112,49,aloud,new,null,752.6744599,None,752.6744599,None,3,2.9406414,752.6744599,None,2.9406414,755.6347208,None,756.1381246,None,756.1381246,None,n,0.3813668,756.1381246,None,0.3813668,,,Oct22Aloud1,62,2022_Oct_14_1425,ProdSingRedoBetween,2021.2.3,59.87113326
,,,,49,0,49,0,,,,,,,,,,,,,,,,,,,,,,763.5414636,None,,,,,,,,,,,,,,,,,number,102,50,aloud,new,null,757.0407572,None,757.0407572,None,4,5.1984692,757.0407572,None,5.1984692,762.2591841,None,762.7798919,None,762.7798919,None,f,0.7393221,762.7798919,None,0.7393221,,,Oct22Aloud1,62,2022_Oct_14_1425,ProdSingRedoBetween,2021.2.3,59.87113326
,,,,50,0,50,0,,,,,,,,,,,,,,,,,,,,,,766.5802406,None,,,,,,,,,,,,,,,,,chief,117,51,aloud,new,null,764.049776,None,764.049776,None,1,1.7173562,764.049776,None,1.7173562,765.7967304,None,766.3134131,None,766.3134131,None,n,0.237818,766.3134131,None,0.237818,,,Oct22Aloud1,62,2022_Oct_14_1425,ProdSingRedoBetween,2021.2.3,59.87113326
,,,,51,0,51,0,,,,,,,,,,,,,,,,,,,,,,769.4665268,None,,,,,,,,,,,,,,,,,blind,113,52,aloud,new,null,767.1038564,None,767.1038564,None,1,1.5513984,767.1038564,None,1.5513984,768.6833016,None,769.200994,None,769.200994,None,n,0.238468,769.200994,None,0.238468,,,Oct22Aloud1,62,2022_Oct_14_1425,ProdSingRedoBetween,2021.2.3,59.87113326
,,,,52,0,52,0,,,,,,,,,,,,,,,,,,,,,,771.782999,None,,,,,,,,,,,,,,,,,beauty,47,53,aloud,old,blue,769.9844355,None,769.9844355,None,1,1.1267795,769.9844355,None,1.1267795,771.1323625,None,771.6329945,None,771.6329945,None,n,0.1262222,771.6329945,None,0.1262222,,,Oct22Aloud1,62,2022_Oct_14_1425,ProdSingRedoBetween,2021.2.3,59.87113326
,,,,53,0,53,0,,,,,,,,,,,,,,,,,,,,,,774.0852794,None,,,,,,,,,,,,,,,,,group,98,54,aloud,new,null,772.2924092,None,772.2924092,None,1,1.0988085,772.2924092,None,1.0988085,773.4180284,None,773.9212639,None,773.9212639,None,n,0.1420606,773.9212639,None,0.1420606,,,Oct22Aloud1,62,2022_Oct_14_1425,ProdSingRedoBetween,2021.2.3,59.87113326
,,,,54,0,54,0,,,,,,,,,,,,,,,,,,,,,,777.58879,None,,,,,,,,,,,,,,,,,clean,91,55,aloud,new,null,774.5933741,None,774.5933741,None,1,2.3017629,774.5933741,None,2.3017629,776.9213908,None,777.4242855,None,777.4242855,None,n,0.1349267,777.4242855,None,0.1349267,,,Oct22Aloud1,62,2022_Oct_14_1425,ProdSingRedoBetween,2021.2.3,59.87113326
,,,,55,0,55,0,,,,,,,,,,,,,,,,,,,,,,781.4259517,None,,,,,,,,,,,,,,,,,health,147,56,aloud,new,null,778.0909269,None,778.0909269,None,1,1.636363,778.0909269,None,1.636363,779.7576676,None,780.2605143,None,780.2605143,None,f,1.1386725,780.2605143,None,1.1386725,,,Oct22Aloud1,62,2022_Oct_14_1425,ProdSingRedoBetween,2021.2.3,59.87113326
,,,,56,0,56,0,,,,,,,,,,,,,,,,,,,,,,784.6799765,None,,,,,,,,,,,,,,,,,history,18,57,aloud,old,yellow,781.9411992,None,781.9411992,None,3,1.5300019,781.9411992,None,1.5300019,783.4975998,None,784.0130427,None,784.0130427,None,f,0.650276,784.0130427,None,0.650276,,,Oct22Aloud1,62,2022_Oct_14_1425,ProdSingRedoBetween,2021.2.3,59.87113326
,,,,57,0,57,0,,,,,,,,,,,,,,,,,,,,,,789.3671623,None,,,,,,,,,,,,,,,,,worker,72,58,aloud,old,red,785.1865153,None,785.1865153,None,4,1.5486918,785.1865153,None,1.5486918,786.7731398,None,787.2865536,None,787.2865536,None,r,2.0645638,787.2865536,None,2.0645638,,,Oct22Aloud1,62,2022_Oct_14_1425,ProdSingRedoBetween,2021.2.3,59.87113326
,,,,58,0,58,0,,,,,,,,,,,,,,,,,,,,,,792.3034516,None,,,,,,,,,,,,,,,,,conference,10,59,aloud,old,yellow,789.8812714,None,789.8812714,None,6,1.5418863,789.8812714,None,1.5418863,791.4535325,None,791.9532691,None,791.9532691,None,r,0.3340364,791.9532691,None,0.3340364,,,Oct22Aloud1,62,2022_Oct_14_1425,ProdSingRedoBetween,2021.2.3,59.87113326
,,,,59,0,59,0,,,,,,,,,,,,,,,,,,,,,,794.5720231,None,,,,,,,,,,,,,,,,,trail,142,60,aloud,new,null,792.809977,None,792.809977,None,1,1.0931272,792.809977,None,1.0931272,793.924355,None,794.4387341,None,794.4387341,None,n,0.1043253,794.4387341,None,0.1043253,,,Oct22Aloud1,62,2022_Oct_14_1425,ProdSingRedoBetween,2021.2.3,59.87113326
,,,,60,0,60,0,,,,,,,,,,,,,,,,,,,,,,796.9580485,None,,,,,,,,,,,,,,,,,safety,23,61,aloud,old,yellow,795.0734629,None,795.0734629,None,1,1.2297602,795.0734629,None,1.2297602,796.3272028,None,796.8414394,None,796.8414394,None,n,0.0856663,796.8414394,None,0.0856663,,,Oct22Aloud1,62,2022_Oct_14_1425,ProdSingRedoBetween,2021.2.3,59.87113326
,,,,61,0,61,0,,,,,,,,,,,,,,,,,,,,,,799.2767784,None,,,,,,,,,,,,,,,,,reach,92,62,aloud,new,null,797.4671828,None,797.4671828,None,1,1.0440186,797.4671828,None,1.0440186,798.5272555,None,799.0308893,None,799.0308893,None,n,0.2162748,799.0308893,None,0.2162748,,,Oct22Aloud1,62,2022_Oct_14_1425,ProdSingRedoBetween,2021.2.3,59.87113326
,,,,62,0,62,0,,,,,,,,,,,,,,,,,,,,,,802.346797,None,,,,,,,,,,,,,,,,,quantity,160,63,aloud,new,null,799.7852397,None,799.7852397,None,4,1.5899216,799.7852397,None,1.5899216,801.3989608,None,801.9194188,None,801.9194188,None,f,0.4078305,801.9194188,None,0.4078305,,,Oct22Aloud1,62,2022_Oct_14_1425,ProdSingRedoBetween,2021.2.3,59.87113326
,,,,63,0,63,0,,,,,,,,,,,,,,,,,,,,,,806.4007246,None,,,,,,,,,,,,,,,,,passage,156,64,aloud,new,null,802.8570555,None,802.8570555,None,2,1.4140675,802.8570555,None,1.4140675,804.3007958,None,804.8160064,None,804.8160064,None,f,1.5671791,804.8160064,None,1.5671791,,,Oct22Aloud1,62,2022_Oct_14_1425,ProdSingRedoBetween,2021.2.3,59.87113326
,,,,64,0,64,0,,,,,,,,,,,,,,,,,,,,,,809.3371627,None,,,,,,,,,,,,,,,,,waste,39,65,aloud,old,blue,806.9108732,None,806.9108732,None,3,1.5443669,806.9108732,None,1.5443669,808.4873447,None,808.992347,None,808.992347,None,f,0.3267634,808.992347,None,0.3267634,,,Oct22Aloud1,62,2022_Oct_14_1425,ProdSingRedoBetween,2021.2.3,59.87113326
,,,,65,0,65,0,,,,,,,,,,,,,,,,,,,,,,813.791467,None,,,,,,,,,,,,,,,,,listen,174,66,aloud,new,null,809.8475449,None,809.8475449,None,4,1.8636099,809.8475449,None,1.8636099,811.7405801,None,812.2400346,None,812.2400346,None,f,1.5350376,812.2400346,None,1.5350376,,,Oct22Aloud1,62,2022_Oct_14_1425,ProdSingRedoBetween,2021.2.3,59.87113326
,,,,66,0,66,0,,,,,,,,,,,,,,,,,,,,,,816.7609352,None,,,,,,,,,,,,,,,,,vision,133,67,aloud,new,null,814.3005775,None,814.3005775,None,1,1.2824822,814.3005775,None,1.2824822,815.6112124,None,816.1171168,None,816.1171168,None,n,0.617902,816.1171168,None,0.617902,,,Oct22Aloud1,62,2022_Oct_14_1425,ProdSingRedoBetween,2021.2.3,59.87113326
,,,,67,0,67,0,,,,,,,,,,,,,,,,,,,,,,819.8475643,None,,,,,,,,,,,,,,,,,debate,101,68,aloud,new,null,817.2646688,None,817.2646688,None,2,1.6944646,817.2646688,None,1.6944646,818.9818755,None,819.5010219,None,819.5010219,None,n,0.3222555,819.5010219,None,0.3222555,,,Oct22Aloud1,62,2022_Oct_14_1425,ProdSingRedoBetween,2021.2.3,59.87113326
,,,,68,0,68,0,,,,,,,,,,,,,,,,,,,,,,822.316431,None,,,,,,,,,,,,,,,,,route,1,69,aloud,old,yellow,820.3556829,None,820.3556829,None,3,1.0513804,820.3556829,None,1.0513804,821.43506,None,821.9498239,None,821.9498239,None,n,0.3453611,821.9498239,None,0.3453611,,,Oct22Aloud1,62,2022_Oct_14_1425,ProdSingRedoBetween,2021.2.3,59.87113326
,,,,69,0,69,0,,,,,,,,,,,,,,,,,,,,,,825.019246,None,,,,,,,,,,,,,,,,,raise,99,70,aloud,new,null,822.8171047,None,822.8171047,None,5,1.3499856,822.8171047,None,1.3499856,824.1863965,None,824.685942,None,824.685942,None,n,0.3051118,824.685942,None,0.3051118,,,Oct22Aloud1,62,2022_Oct_14_1425,ProdSingRedoBetween,2021.2.3,59.87113326
,,,,70,0,70,0,,,,,,,,,,,,,,,,,,,,,,827.3783961,None,,,,,,,,,,,,,,,,,captain,80,71,aloud,old,red,825.5305458,None,825.5305458,None,2,0.9645976,825.5305458,None,0.9645976,826.5238172,None,827.0426093,None,827.0426093,None,n,0.3006941,827.0426093,None,0.3006941,,,Oct22Aloud1,62,2022_Oct_14_1425,ProdSingRedoBetween,2021.2.3,59.87113326
,,,,71,0,71,0,,,,,,,,,,,,,,,,,,,,,,831.3590561,None,,,,,,,,,,,,,,,,,household,163,72,aloud,new,null,827.8961199,None,827.8961199,None,1,2.7831403,827.8961199,None,2.7831403,830.715717,None,831.225559,None,831.225559,None,n,0.1095528,831.225559,None,0.1095528,,,Oct22Aloud1,62,2022_Oct_14_1425,ProdSingRedoBetween,2021.2.3,59.87113326
,,,,72,0,72,0,,,,,,,,,,,,,,,,,,,,,,833.3610762,None,,,,,,,,,,,,,,,,,defeat,61,73,aloud,old,red,831.8651902,None,831.8651902,None,1,0.925957,831.8651902,None,0.925957,832.8179833,None,833.3278178,None,833.3278178,None,n,0.0152535,833.3278178,None,0.0152535,,,Oct22Aloud1,62,2022_Oct_14_1425,ProdSingRedoBetween,2021.2.3,59.87113326
,,,,73,0,73,0,,,,,,,,,,,,,,,,,,,,,,836.1304947,None,,,,,,,,,,,,,,,,,collection,154,74,aloud,new,null,833.868756,None,833.868756,None,6,1.5062201,833.868756,None,1.5062201,835.4026636,None,835.9136973,None,835.9136973,None,r,0.1893551,835.9136973,None,0.1893551,,,Oct22Aloud1,62,2022_Oct_14_1425,ProdSingRedoBetween,2021.2.3,59.87113326
,,,,74,0,74,0,,,,,,,,,,,,,,,,,,,,,,838.1157905,None,,,,,,,,,,,,,,,,,union,97,75,aloud,new,null,836.6378405,None,836.6378405,None,1,0.8812538,836.6378405,None,0.8812538,837.5515953,None,838.0695046,None,838.0695046,None,n,0.0258759,838.0695046,None,0.0258759,,,Oct22Aloud1,62,2022_Oct_14_1425,ProdSingRedoBetween,2021.2.3,59.87113326
,,,,75,0,75,0,,,,,,,,,,,,,,,,,,,,,,840.3513649,None,,,,,,,,,,,,,,,,,plane,6,76,aloud,old,yellow,838.6184916,None,838.6184916,None,1,0.8286869,838.6184916,None,0.8286869,839.4779713,None,839.9842954,None,839.9842954,None,n,0.3428928,839.9842954,None,0.3428928,,,Oct22Aloud1,62,2022_Oct_14_1425,ProdSingRedoBetween,2021.2.3,59.87113326
,,,,76,0,76,0,,,,,,,,,,,,,,,,,,,,,,843.6220045,None,,,,,,,,,,,,,,,,,match,105,77,aloud,new,null,840.8607719,None,840.8607719,None,3,1.8743624,840.8607719,None,1.8743624,842.7570716,None,843.2710508,None,843.2710508,None,n,0.320083,843.2710508,None,0.320083,,,Oct22Aloud1,62,2022_Oct_14_1425,ProdSingRedoBetween,2021.2.3,59.87113326
,,,,77,0,77,0,,,,,,,,,,,,,,,,,,,,,,846.474095,None,,,,,,,,,,,,,,,,,straight,172,78,aloud,new,null,844.1280597,None,844.1280597,None,6,1.7189454,844.1280597,None,1.7189454,845.8772135,None,846.3939593,None,846.3939593,None,r,0.0530633,846.3939593,None,0.0530633,,,Oct22Aloud1,62,2022_Oct_14_1425,ProdSingRedoBetween,2021.2.3,59.87113326
,,,,78,0,78,0,,,,,,,,,,,,,,,,,,,,,,850.5797384,None,,,,,,,,,,,,,,,,,material,77,79,aloud,old,red,846.9829403,None,846.9829403,None,6,1.5043668,846.9829403,None,1.5043668,848.5157984,None,849.0268172,None,849.0268172,None,r,1.5323903,849.0268172,None,1.5323903,,,Oct22Aloud1,62,2022_Oct_14_1425,ProdSingRedoBetween,2021.2.3,59.87113326
,,,,79,0,79,0,,,,,,,,,,,,,,,,,,,,,,853.2318463,None,,,,,,,,,,,,,,,,,breath,9,80,aloud,old,yellow,851.1024897,None,851.1024897,None,1,1.5766344,851.1024897,None,1.5766344,852.6970339,None,853.1976526,None,853.1976526,None,n,0.0094016,853.1976526,None,0.0094016,,,Oct22Aloud1,62,2022_Oct_14_1425,ProdSingRedoBetween,2021.2.3,59.87113326
,,,,80,0,80,0,,,,,,,,,,,,,,,,,,,,,,856.3005545,None,,,,,,,,,,,,,,,,,split,136,81,aloud,new,null,853.7314224,None,853.7314224,None,1,1.1955694,853.7314224,None,1.1955694,854.9492466,None,855.4521702,None,855.4521702,None,n,0.8268876,855.4521702,None,0.8268876,,,Oct22Aloud1,62,2022_Oct_14_1425,ProdSingRedoBetween,2021.2.3,59.87113326
,,,,81,0,81,0,,,,,,,,,,,,,,,,,,,,,,859.1243718,None,,,,,,,,,,,,,,,,,enemy,148,82,aloud,new,null,856.8042968,None,856.8042968,None,2,1.3627675,856.8042968,None,1.3627675,858.1880052,None,858.7030996,None,858.7030996,None,f,0.3999735,858.7030996,None,0.3999735,,,Oct22Aloud1,62,2022_Oct_14_1425,ProdSingRedoBetween,2021.2.3,59.87113326
,,,,82,0,82,0,,,,,,,,,,,,,,,,,,,,,,861.9062081,None,,,,,,,,,,,,,,,,,interview,28,83,aloud,old,yellow,859.6437844,None,859.6437844,None,6,1.3952439,859.6437844,None,1.3952439,861.0595719,None,861.5763221,None,861.5763221,None,r,0.3107277,861.5763221,None,0.3107277,,,Oct22Aloud1,62,2022_Oct_14_1425,ProdSingRedoBetween,2021.2.3,59.87113326
,,,,83,0,83,0,,,,,,,,,,,,,,,,,,,,,,864.4753565,None,,,,,,,,,,,,,,,,,appearance,25,84,aloud,old,yellow,862.4093373,None,862.4093373,None,6,1.3496747,862.4093373,None,1.3496747,863.7767762,None,864.295063,None,864.295063,None,r,0.1519677,864.295063,None,0.1519677,,,Oct22Aloud1,62,2022_Oct_14_1425,ProdSingRedoBetween,2021.2.3,59.87113326
,,,,84,0,84,0,,,,,,,,,,,,,,,,,,,,,,868.6125921,None,,,,,,,,,,,,,,,,,piece,116,85,aloud,new,null,864.9840109,None,864.9840109,None,1,1.7029965,864.9840109,None,1.7029965,866.7121678,None,867.2186681,None,867.2186681,None,n,1.3643055,867.2186681,None,1.3643055,,,Oct22Aloud1,62,2022_Oct_14_1425,ProdSingRedoBetween,2021.2.3,59.87113326
,,,,85,0,85,0,,,,,,,,,,,,,,,,,,,,,,874.1683858,None,,,,,,,,,,,,,,,,,payment,157,86,aloud,new,null,869.1251213,None,869.1251213,None,3,3.4019077,869.1251213,None,3.4019077,872.5532965,None,873.079877,None,873.079877,None,f,1.0631326,873.079877,None,1.0631326,,,Oct22Aloud1,62,2022_Oct_14_1425,ProdSingRedoBetween,2021.2.3,59.87113326
,,,,86,0,86,0,,,,,,,,,,,,,,,,,,,,,,876.6728308,None,,,,,,,,,,,,,,,,,block,177,87,aloud,new,null,874.6751241,None,874.6751241,None,1,1.1480022,874.6751241,None,1.1480022,875.8531491,None,876.3553949,None,876.3553949,None,n,0.2917,876.3553949,None,0.2917,,,Oct22Aloud1,62,2022_Oct_14_1425,ProdSingRedoBetween,2021.2.3,59.87113326
,,,,87,0,87,0,,,,,,,,,,,,,,,,,,,,,,878.8255275,None,,,,,,,,,,,,,,,,,build,16,88,aloud,old,yellow,877.1882181,None,877.1882181,None,1,0.9549612,877.1882181,None,0.9549612,878.1741237,None,878.6971022,None,878.6971022,None,n,0.1020345,878.6971022,None,0.1020345,,,Oct22Aloud1,62,2022_Oct_14_1425,ProdSingRedoBetween,2021.2.3,59.87113326
,,,,88,0,88,0,,,,,,,,,,,,,,,,,,,,,,881.3785037,None,,,,,,,,,,,,,,,,,swift,65,89,aloud,old,red,879.3453965,None,879.3453965,None,1,1.3656222,879.3453965,None,1.3656222,880.7443952,None,881.2710222,None,881.2710222,None,n,0.0800193,881.2710222,None,0.0800193,,,Oct22Aloud1,62,2022_Oct_14_1425,ProdSingRedoBetween,2021.2.3,59.87113326
,,,,89,0,89,0,,,,,,,,,,,,,,,,,,,,,,883.6778295,None,,,,,,,,,,,,,,,,,turkey,82,90,aloud,old,red,881.8955517,None,881.8955517,None,1,1.1674497,881.8955517,None,1.1674497,883.0952366,None,883.5973335,None,883.5973335,None,n,0.065665,883.5973335,None,0.065665,,,Oct22Aloud1,62,2022_Oct_14_1425,ProdSingRedoBetween,2021.2.3,59.87113326
,,,,90,0,90,0,,,,,,,,,,,,,,,,,,,,,,887.149448,None,,,,,,,,,,,,,,,,,cover,74,91,aloud,old,red,884.1803448,None,884.1803448,None,1,1.0426651,884.1803448,None,1.0426651,885.2473419,None,885.7533569,None,885.7533569,None,r,1.3736981,885.7533569,None,1.3736981,,,Oct22Aloud1,62,2022_Oct_14_1425,ProdSingRedoBetween,2021.2.3,59.87113326
,,,,91,0,91,0,,,,,,,,,,,,,,,,,,,,,,891.0185348,None,,,,,,,,,,,,,,,,,benefit,75,92,aloud,old,red,887.6537823,None,887.6537823,None,1,0.9532913,887.6537823,None,0.9532913,888.6336703,None,889.1374178,None,889.1374178,None,f,1.8535348,889.1374178,None,1.8535348,,,Oct22Aloud1,62,2022_Oct_14_1425,ProdSingRedoBetween,2021.2.3,59.87113326
,,,,92,0,92,0,,,,,,,,,,,,,,,,,,,,,,893.4540183,None,,,,,,,,,,,,,,,,,citizen,167,93,aloud,new,null,891.523757,None,891.523757,None,2,0.3472815,891.523757,None,0.3472815,891.8872832,None,892.3935215,None,892.3935215,None,n,1.0296673,892.3935215,None,1.0296673,,,Oct22Aloud1,62,2022_Oct_14_1425,ProdSingRedoBetween,2021.2.3,59.87113326
,,,,93,0,93,0,,,,,,,,,,,,,,,,,,,,,,896.373592,None,,,,,,,,,,,,,,,,,agreement,44,94,aloud,old,blue,893.9589189,None,893.9589189,None,6,1.6479708,893.9589189,None,1.6479708,895.6249044,None,896.1455164,None,896.1455164,None,r,0.1974713,896.1455164,None,0.1974713,,,Oct22Aloud1,62,2022_Oct_14_1425,ProdSingRedoBetween,2021.2.3,59.87113326
,,,,94,0,94,0,,,,,,,,,,,,,,,,,,,,,,904.2149181,None,,,,,,,,,,,,,,,,,short,87,95,aloud,old,red,896.8831572,None,896.8831572,None,3,4.235783,896.8831572,None,4.235783,901.1457208,None,901.6512331,None,901.6512331,None,f,2.5397395,901.6512331,None,2.5397395,,,Oct22Aloud1,62,2022_Oct_14_1425,ProdSingRedoBetween,2021.2.3,59.87113326
,,,,95,0,95,0,,,,,,,,,,,,,,,,,,,,,,908.2857831,None,,,,,,,,,,,,,,,,,carry,140,96,aloud,new,null,904.7317001,None,904.7317001,None,1,2.259223,904.7317001,None,2.259223,907.0187781,None,907.5236082,None,907.5236082,None,f,0.739417,907.5236082,None,0.739417,,,Oct22Aloud1,62,2022_Oct_14_1425,ProdSingRedoBetween,2021.2.3,59.87113326
,,,,96,0,96,0,,,,,,,,,,,,,,,,,,,,,,913.1904547,None,,,,,,,,,,,,,,,,,under,109,97,aloud,new,null,908.7868555,None,908.7868555,None,2,3.3241794,908.7868555,None,3.3241794,912.1439636,None,912.6569877,None,912.6569877,None,n,0.517998,912.6569877,None,0.517998,,,Oct22Aloud1,62,2022_Oct_14_1425,ProdSingRedoBetween,2021.2.3,59.87113326
,,,,97,0,97,0,,,,,,,,,,,,,,,,,,,,,,917.2799112,None,,,,,,,,,,,,,,,,,rapid,30,98,aloud,old,blue,913.7178222,None,913.7178222,None,1,2.6490673,913.7178222,None,2.6490673,916.396574,None,916.9119736,None,916.9119736,None,n,0.3510229,916.9119736,None,0.3510229,,,Oct22Aloud1,62,2022_Oct_14_1425,ProdSingRedoBetween,2021.2.3,59.87113326
,,,,98,0,98,0,,,,,,,,,,,,,,,,,,,,,,923.133904,None,,,,,,,,,,,,,,,,,territory,62,99,aloud,old,red,917.7990594,None,917.7990594,None,5,2.0798649,917.7990594,None,2.0798649,919.9029858,None,920.4206514,None,920.4206514,None,r,2.6822855,920.4206514,None,2.6822855,,,Oct22Aloud1,62,2022_Oct_14_1425,ProdSingRedoBetween,2021.2.3,59.87113326
,,,,99,0,99,0,,,,,,,,,,,,,,,,,,,,,,927.9887941,None,,,,,,,,,,,,,,,,,leader,164,100,aloud,new,null,923.6409291,None,923.6409291,None,3,2.3980361,923.6409291,None,2.3980361,926.0716463,None,926.5745818,None,926.5745818,None,f,1.3843489,926.5745818,None,1.3843489,,,Oct22Aloud1,62,2022_Oct_14_1425,ProdSingRedoBetween,2021.2.3,59.87113326
,,,,100,0,100,0,,,,,,,,,,,,,,,,,,,,,,936.2967494,None,,,,,,,,,,,,,,,,,general,81,101,aloud,old,red,928.496738,None,928.496738,None,6,2.8701987,928.496738,None,2.8701987,931.4057435,None,931.9094551,None,931.9094551,None,f,4.3615245,931.9094551,None,4.3615245,,,Oct22Aloud1,62,2022_Oct_14_1425,ProdSingRedoBetween,2021.2.3,59.87113326
,,,,101,0,101,0,,,,,,,,,,,,,,,,,,,,,,941.1853064,None,,,,,,,,,,,,,,,,,husband,93,102,aloud,new,null,936.8039719,None,936.8039719,None,2,2.0589537,936.8039719,None,2.0589537,938.8859067,None,939.4039327,None,939.4039327,None,n,1.7549477,939.4039327,None,1.7549477,,,Oct22Aloud1,62,2022_Oct_14_1425,ProdSingRedoBetween,2021.2.3,59.87113326
,,,,102,0,102,0,,,,,,,,,,,,,,,,,,,,,,945.9232987,None,,,,,,,,,,,,,,,,,patient,106,103,aloud,new,null,941.6903249,None,941.6903249,None,4,3.068526,941.6903249,None,3.068526,944.7915241,None,945.3061272,None,945.3061272,None,f,0.5967878,945.3061272,None,0.5967878,,,Oct22Aloud1,62,2022_Oct_14_1425,ProdSingRedoBetween,2021.2.3,59.87113326
,,,,103,0,103,0,,,,,,,,,,,,,,,,,,,,,,949.1931653,None,,,,,,,,,,,,,,,,,colonel,51,104,aloud,old,blue,946.4263437,None,946.4263437,None,6,1.6046021,946.4263437,None,1.6046021,948.0641672,None,948.5806397,None,948.5806397,None,r,0.5861962,948.5806397,None,0.5861962,,,Oct22Aloud1,62,2022_Oct_14_1425,ProdSingRedoBetween,2021.2.3,59.87113326
,,,,104,0,104,0,,,,,,,,,,,,,,,,,,,,,,953.8316775,None,,,,,,,,,,,,,,,,,crime,155,105,aloud,new,null,949.7013027,None,949.7013027,None,2,1.5296118,949.7013027,None,1.5296118,951.2634738,None,951.7666615,None,951.7666615,None,f,2.0402288,951.7666615,None,2.0402288,,,Oct22Aloud1,62,2022_Oct_14_1425,ProdSingRedoBetween,2021.2.3,59.87113326
,,,,105,0,105,0,,,,,,,,,,,,,,,,,,,,,,956.9862838,None,,,,,,,,,,,,,,,,,burden,2,106,aloud,old,yellow,954.3394829,None,954.3394829,None,6,1.7474568,954.3394829,None,1.7474568,956.1218559,None,956.6340299,None,956.6340299,None,r,0.3248345,956.6340299,None,0.3248345,,,Oct22Aloud1,62,2022_Oct_14_1425,ProdSingRedoBetween,2021.2.3,59.87113326
,,,,106,0,106,0,,,,,,,,,,,,,,,,,,,,,,960.2558774,None,,,,,,,,,,,,,,,,,thick,139,107,aloud,new,null,957.5026277,None,957.5026277,None,1,1.2964013,957.5026277,None,1.2964013,958.8193952,None,959.3254092,None,959.3254092,None,n,0.8974971,959.3254092,None,0.8974971,,,Oct22Aloud1,62,2022_Oct_14_1425,ProdSingRedoBetween,2021.2.3,59.87113326
,,,,107,0,107,0,,,,,,,,,,,,,,,,,,,,,,964.2415577,None,,,,,,,,,,,,,,,,,color,121,108,aloud,new,null,960.7586819,None,960.7586819,None,4,1.4481604,960.7586819,None,1.4481604,962.2255315,None,962.741894,None,962.741894,None,r,1.48097,962.741894,None,1.48097,,,Oct22Aloud1,62,2022_Oct_14_1425,ProdSingRedoBetween,2021.2.3,59.87113326
,,,,108,0,108,0,,,,,,,,,,,,,,,,,,,,,,971.8325018,None,,,,,,,,,,,,,,,,,salary,45,109,aloud,old,blue,964.7526716,None,964.7526716,None,6,5.798228,964.7526716,None,5.798228,970.5839415,None,971.1031009,None,971.1031009,None,r,0.703776,971.1031009,None,0.703776,,,Oct22Aloud1,62,2022_Oct_14_1425,ProdSingRedoBetween,2021.2.3,59.87113326
,,,,109,0,109,0,,,,,,,,,,,,,,,,,,,,,,975.6528848,None,,,,,,,,,,,,,,,,,season,161,110,aloud,new,null,972.3369891,None,972.3369891,None,2,1.3979776,972.3369891,None,1.3979776,973.7574189,None,974.2680218,None,974.2680218,None,f,1.3548385,974.2680218,None,1.3548385,,,Oct22Aloud1,62,2022_Oct_14_1425,ProdSingRedoBetween,2021.2.3,59.87113326
,,,,110,0,110,0,,,,,,,,,,,,,,,,,,,,,,980.2241458,None,,,,,,,,,,,,,,,,,frank,48,111,aloud,old,blue,976.1618922,None,976.1618922,None,1,1.8049654,976.1618922,None,1.8049654,977.9903639,None,978.5058876,None,978.5058876,None,n,1.6929197,978.5058876,None,1.6929197,,,Oct22Aloud1,62,2022_Oct_14_1425,ProdSingRedoBetween,2021.2.3,59.87113326
,,,,111,0,111,0,,,,,,,,,,,,,,,,,,,,,,983.3957636,None,,,,,,,,,,,,,,,,,century,104,112,aloud,new,null,980.7351056,None,980.7351056,None,1,1.8236877,980.7351056,None,1.8236877,982.5778082,None,983.0885635,None,983.0885635,None,n,0.2863052,983.0885635,None,0.2863052,,,Oct22Aloud1,62,2022_Oct_14_1425,ProdSingRedoBetween,2021.2.3,59.87113326
,,,,112,0,112,0,,,,,,,,,,,,,,,,,,,,,,987.2979309,None,,,,,,,,,,,,,,,,,working,89,113,aloud,old,red,983.9186012,None,983.9186012,None,1,1.1762056,983.9186012,None,1.1762056,985.1148239,None,985.6345171,None,985.6345171,None,n,1.6443217,985.6345171,None,1.6443217,,,Oct22Aloud1,62,2022_Oct_14_1425,ProdSingRedoBetween,2021.2.3,59.87113326
,,,,113,0,113,0,,,,,,,,,,,,,,,,,,,,,,992.1027095,None,,,,,,,,,,,,,,,,,industry,135,114,aloud,new,null,987.8073205,None,987.8073205,None,3,2.2635368,987.8073205,None,2.2635368,990.1037729,None,990.618011,None,990.618011,None,f,1.4687954,990.618011,None,1.4687954,,,Oct22Aloud1,62,2022_Oct_14_1425,ProdSingRedoBetween,2021.2.3,59.87113326
,,,,114,0,114,0,,,,,,,,,,,,,,,,,,,,,,996.3068468,None,,,,,,,,,,,,,,,,,drama,170,115,aloud,new,null,992.6095084,None,992.6095084,None,2,1.6374873,992.6095084,None,1.6374873,994.2715064,None,994.7799104,None,994.7799104,None,n,1.49888,994.7799104,None,1.49888,,,Oct22Aloud1,62,2022_Oct_14_1425,ProdSingRedoBetween,2021.2.3,59.87113326
,,,,115,0,115,0,,,,,,,,,,,,,,,,,,,,,,999.9939033,None,,,,,,,,,,,,,,,,,beginning,90,116,aloud,new,null,996.816156,None,996.816156,None,5,1.5346563,996.816156,None,1.5346563,998.3756186,None,998.8762501,None,998.8762501,None,f,1.090519,998.8762501,None,1.090519,,,Oct22Aloud1,62,2022_Oct_14_1425,ProdSingRedoBetween,2021.2.3,59.87113326
,,,,116,0,116,0,,,,,,,,,,,,,,,,,,,,,,1003.080092,None,,,,,,,,,,,,,,,,,profession,34,117,aloud,old,blue,1000.505581,None,1000.505581,None,6,1.5012104,1000.505581,None,1.5012104,1002.031256,None,1002.551143,None,1002.551143,None,r,0.5036568,1002.551143,None,0.5036568,,,Oct22Aloud1,62,2022_Oct_14_1425,ProdSingRedoBetween,2021.2.3,59.87113326
,,,,117,0,117,0,,,,,,,,,,,,,,,,,,,,,,1005.717963,None,,,,,,,,,,,,,,,,,emergency,31,118,aloud,old,blue,1003.588453,None,1003.588453,None,6,1.2182813,1003.588453,None,1.2182813,1004.836622,None,1005.355238,None,1005.355238,None,r,0.3317409,1005.355238,None,0.3317409,,,Oct22Aloud1,62,2022_Oct_14_1425,ProdSingRedoBetween,2021.2.3,59.87113326
,,,,118,0,118,0,,,,,,,,,,,,,,,,,,,,,,1008.68672,None,,,,,,,,,,,,,,,,,story,37,119,aloud,old,blue,1006.235759,None,1006.235759,None,1,1.3231391,1006.235759,None,1.3231391,1007.592031,None,1008.108523,None,1008.108523,None,n,0.5623216,1008.108523,None,0.5623216,,,Oct22Aloud1,62,2022_Oct_14_1425,ProdSingRedoBetween,2021.2.3,59.87113326
,,,,119,0,119,0,,,,,,,,,,,,,,,,,,,,,,1012.439599,None,,,,,,,,,,,,,,,,,position,35,120,aloud,old,blue,1009.191867,None,1009.191867,None,3,1.4950133,1009.191867,None,1.4950133,1010.714754,None,1011.221941,None,1011.221941,None,f,1.1928238,1011.221941,None,1.1928238,,,Oct22Aloud1,62,2022_Oct_14_1425,ProdSingRedoBetween,2021.2.3,59.87113326
,,,,120,0,120,0,,,,,,,,,,,,,,,,,,,,,,1015.176021,None,,,,,,,,,,,,,,,,,speech,50,121,aloud,old,blue,1012.95102,None,1012.95102,None,1,1.2559483,1012.95102,None,1.2559483,1014.226026,None,1014.732856,None,1014.732856,None,n,0.4179386,1014.732856,None,0.4179386,,,Oct22Aloud1,62,2022_Oct_14_1425,ProdSingRedoBetween,2021.2.3,59.87113326
,,,,121,0,121,0,,,,,,,,,,,,,,,,,,,,,,1017.8167,None,,,,,,,,,,,,,,,,,command,19,122,aloud,old,yellow,1015.679907,None,1015.679907,None,1,1.1508809,1015.679907,None,1.1508809,1016.860771,None,1017.367451,None,1017.367451,None,n,0.4233879,1017.367451,None,0.4233879,,,Oct22Aloud1,62,2022_Oct_14_1425,ProdSingRedoBetween,2021.2.3,59.87113326
,,,,122,0,122,0,,,,,,,,,,,,,,,,,,,,,,1020.547811,None,,,,,,,,,,,,,,,,,shock,131,123,aloud,new,null,1018.345618,None,1018.345618,None,1,1.2453475,1018.345618,None,1.2453475,1019.61558,None,1020.131357,None,1020.131357,None,n,0.3874176,1020.131357,None,0.3874176,,,Oct22Aloud1,62,2022_Oct_14_1425,ProdSingRedoBetween,2021.2.3,59.87113326
,,,,123,0,123,0,,,,,,,,,,,,,,,,,,,,,,1025.807966,None,,,,,,,,,,,,,,,,,crowd,13,124,aloud,old,yellow,1021.068033,None,1021.068033,None,1,3.3626411,1021.068033,None,3.3626411,1024.454074,None,1024.968661,None,1024.968661,None,n,0.8062073,1024.968661,None,0.8062073,,,Oct22Aloud1,62,2022_Oct_14_1425,ProdSingRedoBetween,2021.2.3,59.87113326
,,,,124,0,124,0,,,,,,,,,,,,,,,,,,,,,,1032.52618,None,,,,,,,,,,,,,,,,,sunset,5,125,aloud,old,yellow,1026.327298,None,1026.327298,None,6,1.5194688,1026.327298,None,1.5194688,1027.874682,None,1028.392347,None,1028.392347,None,r,4.1104035,1028.392347,None,4.1104035,,,Oct22Aloud1,62,2022_Oct_14_1425,ProdSingRedoBetween,2021.2.3,59.87113326
,,,,125,0,125,0,,,,,,,,,,,,,,,,,,,,,,1035.962905,None,,,,,,,,,,,,,,,,,hunger,129,126,aloud,new,null,1033.04053,None,1033.04053,None,5,2.1904068,1033.04053,None,2.1904068,1035.245715,None,1035.749978,None,1035.749978,None,f,0.1928787,1035.749978,None,0.1928787,,,Oct22Aloud1,62,2022_Oct_14_1425,ProdSingRedoBetween,2021.2.3,59.87113326
,,,,126,0,126,0,,,,,,,,,,,,,,,,,,,,,,1040.701105,None,,,,,,,,,,,,,,,,,universal,79,127,aloud,old,red,1036.475173,None,1036.475173,None,4,3.0995721,1036.475173,None,3.0995721,1039.60638,None,1040.117342,None,1040.117342,None,f,0.5534699,1040.117342,None,0.5534699,,,Oct22Aloud1,62,2022_Oct_14_1425,ProdSingRedoBetween,2021.2.3,59.87113326
,,,,127,0,127,0,,,,,,,,,,,,,,,,,,,,,,1044.922065,None,,,,,,,,,,,,,,,,,election,176,128,aloud,new,null,1041.201681,None,1041.201681,None,1,1.7891446,1041.201681,None,1.7891446,1043.027923,None,1043.537141,None,1043.537141,None,f,1.3656352,1043.537141,None,1.3656352,,,Oct22Aloud1,62,2022_Oct_14_1425,ProdSingRedoBetween,2021.2.3,59.87113326
,,,,128,0,128,0,,,,,,,,,,,,,,,,,,,,,,1049.509896,None,,,,,,,,,,,,,,,,,native,100,129,aloud,new,null,1045.431491,None,1045.431491,None,3,2.5192479,1045.431491,None,2.5192479,1047.976267,None,1048.480902,None,1048.480902,None,n,1.0138253,1048.480902,None,1.0138253,,,Oct22Aloud1,62,2022_Oct_14_1425,ProdSingRedoBetween,2021.2.3,59.87113326
,,,,129,0,129,0,,,,,,,,,,,,,,,,,,,,,,1052.681085,None,,,,,,,,,,,,,,,,,accident,137,130,aloud,new,null,1050.017082,None,1050.017082,None,5,1.9176163,1050.017082,None,1.9176163,1051.963271,None,1052.472342,None,1052.472342,None,r,0.1824643,1052.472342,None,0.1824643,,,Oct22Aloud1,62,2022_Oct_14_1425,ProdSingRedoBetween,2021.2.3,59.87113326
,,,,130,0,130,0,,,,,,,,,,,,,,,,,,,,,,1055.599468,None,,,,,,,,,,,,,,,,,right,149,131,aloud,new,null,1053.185415,None,1053.185415,None,1,1.2773403,1053.185415,None,1.2773403,1054.481641,None,1054.98214,None,1054.98214,None,n,0.6007065,1054.98214,None,0.6007065,,,Oct22Aloud1,62,2022_Oct_14_1425,ProdSingRedoBetween,2021.2.3,59.87113326
,,,,131,0,131,0,,,,,,,,,,,,,,,,,,,,,,1058.301841,None,,,,,,,,,,,,,,,,,community,69,132,aloud,old,red,1056.113087,None,1056.113087,None,6,1.3576204,1056.113087,None,1.3576204,1057.502135,None,1058.002593,None,1058.002593,None,r,0.2681256,1058.002593,None,0.2681256,,,Oct22Aloud1,62,2022_Oct_14_1425,ProdSingRedoBetween,2021.2.3,59.87113326
,,,,132,0,132,0,,,,,,,,,,,,,,,,,,,,,,1060.737706,None,,,,,,,,,,,,,,,,,style,0,133,aloud,old,yellow,1058.802475,None,1058.802475,None,1,1.116132,1058.802475,None,1.116132,1059.938733,None,1060.458413,None,1060.458413,None,n,0.2522299,1060.458413,None,0.2522299,,,Oct22Aloud1,62,2022_Oct_14_1425,ProdSingRedoBetween,2021.2.3,59.87113326
,,,,133,0,133,0,,,,,,,,,,,,,,,,,,,,,,1064.262676,None,,,,,,,,,,,,,,,,,hearing,96,134,aloud,new,null,1061.246288,None,1061.246288,None,3,1.41635,1061.246288,None,1.41635,1062.689747,None,1063.192763,None,1063.192763,None,f,1.0298766,1063.192763,None,1.0298766,,,Oct22Aloud1,62,2022_Oct_14_1425,ProdSingRedoBetween,2021.2.3,59.87113326
,,,,134,0,134,0,,,,,,,,,,,,,,,,,,,,,,1066.595123,None,,,,,,,,,,,,,,,,,guard,151,135,aloud,new,null,1064.775117,None,1064.775117,None,1,1.103515,1064.775117,None,1.103515,1065.912019,None,1066.43098,None,1066.43098,None,n,0.1357214,1066.43098,None,0.1357214,,,Oct22Aloud1,62,2022_Oct_14_1425,ProdSingRedoBetween,2021.2.3,59.87113326
,,,,135,0,135,0,,,,,,,,,,,,,,,,,,,,,,1069.930278,None,,,,,,,,,,,,,,,,,rural,60,136,aloud,old,red,1067.098258,None,1067.098258,None,6,1.7245431,1067.098258,None,1.7245431,1068.845953,None,1069.350287,None,1069.350287,None,r,0.5523345,1069.350287,None,0.5523345,,,Oct22Aloud1,62,2022_Oct_14_1425,ProdSingRedoBetween,2021.2.3,59.87113326
,,,,136,0,136,0,,,,,,,,,,,,,,,,,,,,,,1072.299498,None,,,,,,,,,,,,,,,,,dozen,143,137,aloud,new,null,1070.440985,None,1070.440985,None,1,1.0857122,1070.440985,None,1.0857122,1071.551572,None,1072.066,None,1072.066,None,n,0.2047132,1072.066,None,0.2047132,,,Oct22Aloud1,62,2022_Oct_14_1425,ProdSingRedoBetween,2021.2.3,59.87113326
,,,,137,0,137,0,,,,,,,,,,,,,,,,,,,,,,1075.652657,None,,,,,,,,,,,,,,,,,impact,27,138,aloud,old,yellow,1072.799768,None,1072.799768,None,6,1.4709175,1072.799768,None,1.4709175,1074.302275,None,1074.804427,None,1074.804427,None,r,0.8182938,1074.804427,None,0.8182938,,,Oct22Aloud1,62,2022_Oct_14_1425,ProdSingRedoBetween,2021.2.3,59.87113326
,,,,138,0,138,0,,,,,,,,,,,,,,,,,,,,,,1078.939348,None,,,,,,,,,,,,,,,,,medicine,55,139,aloud,old,blue,1076.156048,None,1076.156048,None,6,1.7866693,1076.156048,None,1.7866693,1077.975859,None,1078.491128,None,1078.491128,None,r,0.4195501,1078.491128,None,0.4195501,,,Oct22Aloud1,62,2022_Oct_14_1425,ProdSingRedoBetween,2021.2.3,59.87113326
,,,,139,0,139,0,,,,,,,,,,,,,,,,,,,,,,1081.343708,None,,,,,,,,,,,,,,,,,solution,68,140,aloud,old,red,1079.446198,None,1079.446198,None,6,1.0724698,1079.446198,None,1.0724698,1080.542876,None,1081.062235,None,1081.062235,None,r,0.2485782,1081.062235,None,0.2485782,,,Oct22Aloud1,62,2022_Oct_14_1425,ProdSingRedoBetween,2021.2.3,59.87113326
,,,,140,0,140,0,,,,,,,,,,,,,,,,,,,,,,1084.378625,None,,,,,,,,,,,,,,,,,series,94,141,aloud,new,null,1081.868515,None,1081.868515,None,2,1.3621298,1081.868515,None,1.3621298,1083.262788,None,1083.778588,None,1083.778588,None,f,0.572197,1083.778588,None,0.572197,,,Oct22Aloud1,62,2022_Oct_14_1425,ProdSingRedoBetween,2021.2.3,59.87113326
,,,,141,0,141,0,,,,,,,,,,,,,,,,,,,,,,1088.51549,None,,,,,,,,,,,,,,,,,candidate,95,142,aloud,new,null,1084.878791,None,1084.878791,None,6,2.2238497,1084.878791,None,2.2238497,1087.131395,None,1087.637585,None,1087.637585,None,r,0.8490779,1087.637585,None,0.8490779,,,Oct22Aloud1,62,2022_Oct_14_1425,ProdSingRedoBetween,2021.2.3,59.87113326
,,,,142,0,142,0,,,,,,,,,,,,,,,,,,,,,,1093.320254,None,,,,,,,,,,,,,,,,,owner,54,143,aloud,old,blue,1089.02321,None,1089.02321,None,1,1.2873844,1089.02321,None,1.2873844,1090.336173,None,1090.852133,None,1090.852133,None,f,2.4425329,1090.852133,None,2.4425329,,,Oct22Aloud1,62,2022_Oct_14_1425,ProdSingRedoBetween,2021.2.3,59.87113326
,,,,143,0,143,0,,,,,,,,,,,,,,,,,,,,,,1100.594177,None,,,,,,,,,,,,,,,,,sweet,4,144,aloud,old,yellow,1093.830186,None,1093.830186,None,3,1.9924631,1093.830186,None,1.9924631,1095.844966,None,1096.359011,None,1096.359011,None,n,4.2156522,1096.359011,None,4.2156522,,,Oct22Aloud1,62,2022_Oct_14_1425,ProdSingRedoBetween,2021.2.3,59.87113326
,,,,144,0,144,0,,,,,,,,,,,,,,,,,,,,,,1103.146526,None,,,,,,,,,,,,,,,,,foundation,63,145,aloud,old,red,1101.102986,None,1101.102986,None,6,1.191619,1101.102986,None,1.191619,1102.313821,None,1102.813171,None,1102.813171,None,r,0.3134749,1102.813171,None,0.3134749,,,Oct22Aloud1,62,2022_Oct_14_1425,ProdSingRedoBetween,2021.2.3,59.87113326
,,,,145,0,145,0,,,,,,,,,,,,,,,,,,,,,,1107.16725,None,,,,,,,,,,,,,,,,,murder,175,146,aloud,new,null,1103.653402,None,1103.653402,None,2,1.7532226,1103.653402,None,1.7532226,1105.432331,None,1105.935996,None,1105.935996,None,f,1.2146132,1105.935996,None,1.2146132,,,Oct22Aloud1,62,2022_Oct_14_1425,ProdSingRedoBetween,2021.2.3,59.87113326
,,,,146,0,146,0,,,,,,,,,,,,,,,,,,,,,,1110.406797,None,,,,,,,,,,,,,,,,,comedy,124,147,aloud,new,null,1107.667924,None,1107.667924,None,2,1.4027598,1107.667924,None,1.4027598,1109.088766,None,1109.604625,None,1109.604625,None,n,0.7780795,1109.604625,None,0.7780795,,,Oct22Aloud1,62,2022_Oct_14_1425,ProdSingRedoBetween,2021.2.3,59.87113326
,,,,147,0,147,0,,,,,,,,,,,,,,,,,,,,,,1112.739044,None,,,,,,,,,,,,,,,,,management,29,148,aloud,old,blue,1110.925743,None,1110.925743,None,6,1.2009695,1110.925743,None,1.2009695,1112.158367,None,1112.680666,None,1112.680666,None,r,0.0221913,1112.680666,None,0.0221913,,,Oct22Aloud1,62,2022_Oct_14_1425,ProdSingRedoBetween,2021.2.3,59.87113326
,,,,148,0,148,0,,,,,,,,,,,,,,,,,,,,,,1115.175485,None,,,,,,,,,,,,,,,,,narrow,41,149,aloud,old,blue,1113.241847,None,1113.241847,None,2,1.1887275,1113.241847,None,1.1887275,1114.460443,None,1114.980278,None,1114.980278,None,n,0.178401,1114.980278,None,0.178401,,,Oct22Aloud1,62,2022_Oct_14_1425,ProdSingRedoBetween,2021.2.3,59.87113326
,,,,149,0,149,0,,,,,,,,,,,,,,,,,,,,,,1119.196186,None,,,,,,,,,,,,,,,,,school,128,150,aloud,new,null,1115.680792,None,1115.680792,None,3,2.5578643,1115.680792,None,2.5578643,1118.265271,None,1118.779181,None,1118.779181,None,n,0.3875454,1118.779181,None,0.3875454,,,Oct22Aloud1,62,2022_Oct_14_1425,ProdSingRedoBetween,2021.2.3,59.87113326
,,,,150,0,150,0,,,,,,,,,,,,,,,,,,,,,,1122.218123,None,,,,,,,,,,,,,,,,,estate,21,151,aloud,old,yellow,1119.71032,None,1119.71032,None,6,1.8644931,1119.71032,None,1.8644931,1121.60671,None,1122.11563,None,1122.11563,None,r,0.0830163,1122.11563,None,0.0830163,,,Oct22Aloud1,62,2022_Oct_14_1425,ProdSingRedoBetween,2021.2.3,59.87113326
,,,,151,0,151,0,,,,,,,,,,,,,,,,,,,,,,1124.535384,None,,,,,,,,,,,,,,,,,revolution,73,152,aloud,old,red,1122.740034,None,1122.740034,None,6,0.9146364,1122.740034,None,0.9146364,1123.684789,None,1124.186465,None,1124.186465,None,r,0.3160553,1124.186465,None,0.3160553,,,Oct22Aloud1,62,2022_Oct_14_1425,ProdSingRedoBetween,2021.2.3,59.87113326
,,,,152,0,152,0,,,,,,,,,,,,,,,,,,,,,,1127.40436,None,,,,,,,,,,,,,,,,,search,179,153,aloud,new,null,1125.037125,None,1125.037125,None,5,1.5934667,1125.037125,None,1.5934667,1126.657712,None,1127.17077,None,1127.17077,None,r,0.2039606,1127.17077,None,0.2039606,,,Oct22Aloud1,62,2022_Oct_14_1425,ProdSingRedoBetween,2021.2.3,59.87113326
,,,,153,0,153,0,,,,,,,,,,,,,,,,,,,,,,1131.341511,None,,,,,,,,,,,,,,,,,nature,56,154,aloud,old,blue,1127.904897,None,1127.904897,None,6,1.9577567,1127.904897,None,1.9577567,1129.898574,None,1130.408465,None,1130.408465,None,r,0.9020714,1130.408465,None,0.9020714,,,Oct22Aloud1,62,2022_Oct_14_1425,ProdSingRedoBetween,2021.2.3,59.87113326
,,,,154,0,154,0,,,,,,,,,,,,,,,,,,,,,,1133.712657,None,,,,,,,,,,,,,,,,,addition,67,155,aloud,old,red,1131.85396,None,1131.85396,None,6,1.2486246,1131.85396,None,1.2486246,1133.129324,None,1133.651183,None,1133.651183,None,r,0.0433647,1133.651183,None,0.0433647,,,Oct22Aloud1,62,2022_Oct_14_1425,ProdSingRedoBetween,2021.2.3,59.87113326
,,,,155,0,155,0,,,,,,,,,,,,,,,,,,,,,,1136.563464,None,,,,,,,,,,,,,,,,,disease,57,156,aloud,old,blue,1134.227671,None,1134.227671,None,6,1.1469362,1134.227671,None,1.1469362,1135.402899,None,1135.91426,None,1135.91426,None,r,0.6283585,1135.91426,None,0.6283585,,,Oct22Aloud1,62,2022_Oct_14_1425,ProdSingRedoBetween,2021.2.3,59.87113326
,,,,156,0,156,0,,,,,,,,,,,,,,,,,,,,,,1143.253348,None,,,,,,,,,,,,,,,,,poetry,53,157,aloud,old,blue,1137.080803,None,1137.080803,None,4,5.1017743,1137.080803,None,5.1017743,1142.203567,None,1142.707309,None,1142.707309,None,f,0.5232241,1142.707309,None,0.5232241,,,Oct22Aloud1,62,2022_Oct_14_1425,ProdSingRedoBetween,2021.2.3,59.87113326
,,,,157,0,157,0,,,,,,,,,,,,,,,,,,,,,,1147.457618,None,,,,,,,,,,,,,,,,,couch,120,158,aloud,new,null,1143.763656,None,1143.763656,None,1,1.4988588,1143.763656,None,1.4988588,1145.28876,None,1145.789372,None,1145.789372,None,n,1.6491995,1145.789372,None,1.6491995,,,Oct22Aloud1,62,2022_Oct_14_1425,ProdSingRedoBetween,2021.2.3,59.87113326
,,,,158,0,158,0,,,,,,,,,,,,,,,,,,,,,,1149.84336,None,,,,,,,,,,,,,,,,,figure,159,159,aloud,new,null,1147.966118,None,1147.966118,None,1,1.024459,1147.966118,None,1.024459,1149.01654,None,1149.531312,None,1149.531312,None,n,0.2833234,1149.531312,None,0.2833234,,,Oct22Aloud1,62,2022_Oct_14_1425,ProdSingRedoBetween,2021.2.3,59.87113326
,,,,159,0,159,0,,,,,,,,,,,,,,,,,,,,,,1153.834849,None,,,,,,,,,,,,,,,,,employment,134,160,aloud,new,null,1150.360349,None,1150.360349,None,6,1.5822071,1150.360349,None,1.5822071,1151.96325,None,1152.471749,None,1152.471749,None,r,1.3348654,1152.471749,None,1.3348654,,,Oct22Aloud1,62,2022_Oct_14_1425,ProdSingRedoBetween,2021.2.3,59.87113326
,,,,160,0,160,0,,,,,,,,,,,,,,,,,,,,,,1157.784502,None,,,,,,,,,,,,,,,,,novel,162,161,aloud,new,null,1154.350991,None,1154.350991,None,1,1.1275426,1154.350991,None,1.1275426,1155.500249,None,1155.99939,None,1155.99939,None,n,1.767104,1155.99939,None,1.767104,,,Oct22Aloud1,62,2022_Oct_14_1425,ProdSingRedoBetween,2021.2.3,59.87113326
,,,,161,0,161,0,,,,,,,,,,,,,,,,,,,,,,1160.870962,None,,,,,,,,,,,,,,,,,alert,169,162,aloud,new,null,1158.285153,None,1158.285153,None,2,1.2575111,1158.285153,None,1.2575111,1159.575159,None,1160.087002,None,1160.087002,None,n,0.7676628,1160.087002,None,0.7676628,,,Oct22Aloud1,62,2022_Oct_14_1425,ProdSingRedoBetween,2021.2.3,59.87113326
,,,,162,0,162,0,,,,,,,,,,,,,,,,,,,,,,1165.892673,None,,,,,,,,,,,,,,,,,discovery,110,163,aloud,new,null,1161.376358,None,1161.376358,None,4,1.5581876,1161.376358,None,1.5581876,1162.957911,None,1163.461355,None,1163.461355,None,r,2.4012248,1163.461355,None,2.4012248,,,Oct22Aloud1,62,2022_Oct_14_1425,ProdSingRedoBetween,2021.2.3,59.87113326
,,,,163,0,163,0,,,,,,,,,,,,,,,,,,,,,,1169.229284,None,,,,,,,,,,,,,,,,,review,14,164,aloud,old,yellow,1166.396527,None,1166.396527,None,3,1.6980381,1166.396527,None,1.6980381,1168.118802,None,1168.63186,None,1168.63186,None,f,0.5666258,1168.63186,None,0.5666258,,,Oct22Aloud1,62,2022_Oct_14_1425,ProdSingRedoBetween,2021.2.3,59.87113326
,,,,164,0,164,0,,,,,,,,,,,,,,,,,,,,,,1172.716205,None,,,,,,,,,,,,,,,,,pretty,111,165,aloud,new,null,1169.740034,None,1169.740034,None,5,2.2504052,1169.740034,None,2.2504052,1172.01673,None,1172.521017,None,1172.521017,None,f,0.1654981,1172.521017,None,0.1654981,,,Oct22Aloud1,62,2022_Oct_14_1425,ProdSingRedoBetween,2021.2.3,59.87113326
,,,,165,0,165,0,,,,,,,,,,,,,,,,,,,,,,1176.086142,None,,,,,,,,,,,,,,,,,heavy,123,166,aloud,new,null,1173.220926,None,1173.220926,None,2,1.9455343,1173.220926,None,1.9455343,1175.186327,None,1175.689518,None,1175.689518,None,n,0.3730401,1175.689518,None,0.3730401,,,Oct22Aloud1,62,2022_Oct_14_1425,ProdSingRedoBetween,2021.2.3,59.87113326
,,,,166,0,166,0,,,,,,,,,,,,,,,,,,,,,,1178.688636,None,,,,,,,,,,,,,,,,,little,71,167,aloud,old,red,1176.591483,None,1176.591483,None,2,1.3509504,1176.591483,None,1.3509504,1177.971231,None,1178.471908,None,1178.471908,None,n,0.1906117,1178.471908,None,0.1906117,,,Oct22Aloud1,62,2022_Oct_14_1425,ProdSingRedoBetween,2021.2.3,59.87113326
,,,,167,0,167,0,,,,,,,,,,,,,,,,,,,,,,1182.545335,None,,,,,,,,,,,,,,,,,count,168,168,aloud,new,null,1179.198283,None,1179.198283,None,4,2.4322451,1179.198283,None,2.4322451,1181.664767,None,1182.175549,None,1182.175549,None,f,0.3431409,1182.175549,None,0.3431409,,,Oct22Aloud1,62,2022_Oct_14_1425,ProdSingRedoBetween,2021.2.3,59.87113326
,,,,168,0,168,0,,,,,,,,,,,,,,,,,,,,,,1185.628987,None,,,,,,,,,,,,,,,,,tennis,3,169,aloud,old,yellow,1183.064491,None,1183.064491,None,6,1.4299109,1183.064491,None,1.4299109,1184.511118,None,1185.011902,None,1185.011902,None,r,0.5945909,1185.011902,None,0.5945909,,,Oct22Aloud1,62,2022_Oct_14_1425,ProdSingRedoBetween,2021.2.3,59.87113326
,,,,169,0,169,0,,,,,,,,,,,,,,,,,,,,,,1188.683357,None,,,,,,,,,,,,,,,,,taste,52,170,aloud,old,blue,1186.133474,None,1186.133474,None,4,1.833064,1186.133474,None,1.833064,1187.98516,None,1188.498638,None,1188.498638,None,f,0.1639282,1188.498638,None,0.1639282,,,Oct22Aloud1,62,2022_Oct_14_1425,ProdSingRedoBetween,2021.2.3,59.87113326
,,,,170,0,170,0,,,,,,,,,,,,,,,,,,,,,,1193.253172,None,,,,,,,,,,,,,,,,,touch,36,171,aloud,old,blue,1189.18553,None,1189.18553,None,3,2.6210407,1189.18553,None,2.6210407,1191.841272,None,1192.35251,None,1192.35251,None,f,0.8779933,1192.35251,None,0.8779933,,,Oct22Aloud1,62,2022_Oct_14_1425,ProdSingRedoBetween,2021.2.3,59.87113326
,,,,171,0,171,0,,,,,,,,,,,,,,,,,,,,,,1198.427467,None,,,,,,,,,,,,,,,,,symbol,166,172,aloud,new,null,1193.757622,None,1193.757622,None,1,3.8008637,1193.757622,None,3.8008637,1197.577483,None,1198.09556,None,1198.09556,None,n,0.302904,1198.09556,None,0.302904,,,Oct22Aloud1,62,2022_Oct_14_1425,ProdSingRedoBetween,2021.2.3,59.87113326
,,,,172,0,172,0,,,,,,,,,,,,,,,,,,,,,,1200.819087,None,,,,,,,,,,,,,,,,,notice,114,173,aloud,new,null,1198.951453,None,1198.951453,None,3,0.8630217,1198.951453,None,0.8630217,1199.847871,None,1200.363177,None,1200.363177,None,f,0.4272689,1200.363177,None,0.4272689,,,Oct22Aloud1,62,2022_Oct_14_1425,ProdSingRedoBetween,2021.2.3,59.87113326
,,,,173,0,173,0,,,,,,,,,,,,,,,,,,,,,,1205.498803,None,,,,,,,,,,,,,,,,,report,83,174,aloud,old,red,1201.328055,None,1201.328055,None,4,1.134462,1201.328055,None,1.134462,1202.483905,None,1202.997977,None,1202.997977,None,n,2.4805045,1202.997977,None,2.4805045,,,Oct22Aloud1,62,2022_Oct_14_1425,ProdSingRedoBetween,2021.2.3,59.87113326
,,,,174,0,174,0,,,,,,,,,,,,,,,,,,,,,,1209.187443,None,,,,,,,,,,,,,,,,,judge,20,175,aloud,old,yellow,1206.009347,None,1206.009347,None,4,2.4372826,1206.009347,None,2.4372826,1208.474955,None,1208.985686,None,1208.985686,None,f,0.1727704,1208.985686,None,0.1727704,,,Oct22Aloud1,62,2022_Oct_14_1425,ProdSingRedoBetween,2021.2.3,59.87113326
,,,,175,0,175,0,,,,,,,,,,,,,,,,,,,,,,1214.174126,None,,,,,,,,,,,,,,,,,balance,108,176,aloud,new,null,1209.707868,None,1209.707868,None,6,1.4905758,1209.707868,None,1.4905758,1211.223848,None,1211.747017,None,1211.747017,None,r,2.4113058,1211.747017,None,2.4113058,,,Oct22Aloud1,62,2022_Oct_14_1425,ProdSingRedoBetween,2021.2.3,59.87113326
,,,,176,0,176,0,,,,,,,,,,,,,,,,,,,,,,1217.310675,None,,,,,,,,,,,,,,,,,bicycle,145,177,aloud,new,null,1214.67446,None,1214.67446,None,2,1.8279614,1214.67446,None,1.8279614,1216.5277,None,1217.027074,None,1217.027074,None,f,0.2672734,1217.027074,None,0.2672734,,,Oct22Aloud1,62,2022_Oct_14_1425,ProdSingRedoBetween,2021.2.3,59.87113326
,,,,177,0,177,0,,,,,,,,,,,,,,,,,,,,,,1219.612917,None,,,,,,,,,,,,,,,,,shear,24,178,aloud,old,yellow,1217.823358,None,1217.823358,None,1,1.0630672,1217.823358,None,1.0630672,1218.912103,None,1219.412799,None,1219.412799,None,n,0.1696578,1219.412799,None,0.1696578,,,Oct22Aloud1,62,2022_Oct_14_1425,ProdSingRedoBetween,2021.2.3,59.87113326
,,,,178,0,178,0,,,,,,,,,,,,,,,,,,,,,,1222.23224,None,,,,,,,,,,,,,,,,,problem,12,179,aloud,old,yellow,1220.114665,None,1220.114665,None,2,1.2277859,1220.114665,None,1.2277859,1221.365909,None,1221.871169,None,1221.871169,None,n,0.3352762,1221.871169,None,0.3352762,,,Oct22Aloud1,62,2022_Oct_14_1425,ProdSingRedoBetween,2021.2.3,59.87113326
,,,,179,0,179,0,,,,,,,,,,,,,,,,,,,,,,1225.385383,None,,,,,,,,,,,,,,,,,brief,70,180,aloud,old,red,1222.740494,None,1222.740494,None,3,1.5299247,1222.740494,None,1.5299247,1224.301102,None,1224.809102,None,1224.809102,None,f,0.5492674,1224.809102,None,0.5492674,,,Oct22Aloud1,62,2022_Oct_14_1425,ProdSingRedoBetween,2021.2.3,59.87113326
,,,,,,,,,,,,,,,,,,,,,,,,,,,,,,,,,,,,,,,,,,,,,,,,,,,,,,,,,,,,,,,,,,,,,,,,,1225.886544,None,,,,,,
