StudyLoop.thisRepN,StudyLoop.thisTrialN,StudyLoop.thisN,StudyLoop.thisIndex,TestLoop.thisRepN,TestLoop.thisTrialN,TestLoop.thisN,TestLoop.thisIndex,textCondition.started,textCondition.stopped,keyCondition.keys,keyCondition.rt,keyCondition.started,keyCondition.stopped,Condition,textWelcome.started,textWelcome.stopped,keyWelcome.keys,keyWelcome.rt,keyWelcome.started,keyWelcome.stopped,textAloud.started,textAloud.stopped,textSilent.started,textSilent.stopped,textSing.started,textSing.stopped,conditional_text.started,conditional_text.stopped,textBlank500.started,textBlank500.stopped,study_word,study_num,study_order,study_type,word_color,textStudy.started,textStudy.stopped,keyStudy.keys,keyStudy.started,keyStudy.stopped,textTestInstructions.started,textTestInstructions.stopped,key_resp_3.keys,key_resp_3.rt,key_resp_3.started,key_resp_3.stopped,test_word,test_num,test_order,test_condition,old_new_test,test_word_original_color,textConf.started,textConf.stopped,textConfScale.started,textConfScale.stopped,keyConf.keys,keyConf.rt,keyConf.started,keyConf.stopped,confidence response time,textTestBlank.started,textTestBlank.stopped,textRKN.started,textRKN.stopped,textRKNScale.started,textRKNScale.stopped,keyRKN.keys,keyRKN.rt,keyRKN.started,keyRKN.stopped,rkn response time,textEnd.started,textEnd.stopped,participant,session,date,expName,psychopyVersion,frameRate
,,,,,,,,454.7198162,None,b,165.7240984,454.7198162,None,,,,,,,,,,,,,,,,,,,,,,,,,,,,,,,,,,,,,,,,,,,,,,,,,,,,,,,,,,,,,,Oct24Aloud1,65,2022_Oct_24_1624,ProdSingRedoBetween,2021.2.3,59.94244332
,,,,,,,,,,,,,,AloudTest,620.5039122,None,space,12.4276894,620.5039122,None,,,,,,,,,,,,,,,,,,,,,,,,,,,,,,,,,,,,,,,,,,,,,,,,,,,,,,,Oct24Aloud1,65,2022_Oct_24_1624,ProdSingRedoBetween,2021.2.3,59.94244332
0,0,0,0,,,,,,,,,,,,,,,,,,620.5039122,None,620.5039122,None,620.5039122,None,620.5039122,None,635.4801185,None,rural,39,1,aloud,blue,633.466453,None,None,633.466453,None,,,,,,,,,,,,,,,,,,,,,,,,,,,,,,,,,,,Oct24Aloud1,65,2022_Oct_24_1624,ProdSingRedoBetween,2021.2.3,59.94244332
1,0,1,0,,,,,,,,,,,,,,,,,,,,,,,,,,637.9825907,None,pressure,72,2,aloud,red,635.980568,None,None,635.980568,None,,,,,,,,,,,,,,,,,,,,,,,,,,,,,,,,,,,Oct24Aloud1,65,2022_Oct_24_1624,ProdSingRedoBetween,2021.2.3,59.94244332
2,0,2,0,,,,,,,,,,,,,,,,,,,,,,,,,,640.5016993,None,testimony,52,3,aloud,blue,638.4892348,None,None,638.4892348,None,,,,,,,,,,,,,,,,,,,,,,,,,,,,,,,,,,,Oct24Aloud1,65,2022_Oct_24_1624,ProdSingRedoBetween,2021.2.3,59.94244332
3,0,3,0,,,,,,,,,,,,,,,,,,,,,,,,,,643.0207276,None,block,41,4,aloud,blue,641.0085534,None,None,641.0085534,None,,,,,,,,,,,,,,,,,,,,,,,,,,,,,,,,,,,Oct24Aloud1,65,2022_Oct_24_1624,ProdSingRedoBetween,2021.2.3,59.94244332
4,0,4,0,,,,,,,,,,,,,,,,,,,,,,,,,,645.5233743,None,revolution,57,5,aloud,blue,643.5212801,None,None,643.5212801,None,,,,,,,,,,,,,,,,,,,,,,,,,,,,,,,,,,,Oct24Aloud1,65,2022_Oct_24_1624,ProdSingRedoBetween,2021.2.3,59.94244332
5,0,5,0,,,,,,,,,,,,,,,,,,,,,,,,,,648.0256176,None,vision,60,6,aloud,red,646.0283146,None,None,646.0283146,None,,,,,,,,,,,,,,,,,,,,,,,,,,,,,,,,,,,Oct24Aloud1,65,2022_Oct_24_1624,ProdSingRedoBetween,2021.2.3,59.94244332
6,0,6,0,,,,,,,,,,,,,,,,,,,,,,,,,,650.5450839,None,signal,45,7,aloud,blue,648.5293067,None,None,648.5293067,None,,,,,,,,,,,,,,,,,,,,,,,,,,,,,,,,,,,Oct24Aloud1,65,2022_Oct_24_1624,ProdSingRedoBetween,2021.2.3,59.94244332
7,0,7,0,,,,,,,,,,,,,,,,,,,,,,,,,,653.0475546,None,general,67,8,aloud,red,651.0480321,None,None,651.0480321,None,,,,,,,,,,,,,,,,,,,,,,,,,,,,,,,,,,,Oct24Aloud1,65,2022_Oct_24_1624,ProdSingRedoBetween,2021.2.3,59.94244332
8,0,8,0,,,,,,,,,,,,,,,,,,,,,,,,,,655.5500698,None,sleep,32,9,aloud,blue,653.5491816,None,None,653.5491816,None,,,,,,,,,,,,,,,,,,,,,,,,,,,,,,,,,,,Oct24Aloud1,65,2022_Oct_24_1624,ProdSingRedoBetween,2021.2.3,59.94244332
9,0,9,0,,,,,,,,,,,,,,,,,,,,,,,,,,658.0525478,None,candidate,83,10,aloud,red,656.0505746,None,None,656.0505746,None,,,,,,,,,,,,,,,,,,,,,,,,,,,,,,,,,,,Oct24Aloud1,65,2022_Oct_24_1624,ProdSingRedoBetween,2021.2.3,59.94244332
10,0,10,0,,,,,,,,,,,,,,,,,,,,,,,,,,660.5718145,None,citizen,37,11,aloud,blue,658.5612746,None,None,658.5612746,None,,,,,,,,,,,,,,,,,,,,,,,,,,,,,,,,,,,Oct24Aloud1,65,2022_Oct_24_1624,ProdSingRedoBetween,2021.2.3,59.94244332
11,0,11,0,,,,,,,,,,,,,,,,,,,,,,,,,,663.0909,None,alert,85,12,aloud,red,661.0806996,None,None,661.0806996,None,,,,,,,,,,,,,,,,,,,,,,,,,,,,,,,,,,,Oct24Aloud1,65,2022_Oct_24_1624,ProdSingRedoBetween,2021.2.3,59.94244332
12,0,12,0,,,,,,,,,,,,,,,,,,,,,,,,,,665.5934722,None,staff,44,13,aloud,blue,663.5914195,None,None,663.5914195,None,,,,,,,,,,,,,,,,,,,,,,,,,,,,,,,,,,,Oct24Aloud1,65,2022_Oct_24_1624,ProdSingRedoBetween,2021.2.3,59.94244332
13,0,13,0,,,,,,,,,,,,,,,,,,,,,,,,,,668.0959512,None,court,87,14,aloud,red,666.0962562,None,None,666.0962562,None,,,,,,,,,,,,,,,,,,,,,,,,,,,,,,,,,,,Oct24Aloud1,65,2022_Oct_24_1624,ProdSingRedoBetween,2021.2.3,59.94244332
14,0,14,0,,,,,,,,,,,,,,,,,,,,,,,,,,670.6150847,None,republic,75,15,aloud,red,668.6065795,None,None,668.6065795,None,,,,,,,,,,,,,,,,,,,,,,,,,,,,,,,,,,,Oct24Aloud1,65,2022_Oct_24_1624,ProdSingRedoBetween,2021.2.3,59.94244332
15,0,15,0,,,,,,,,,,,,,,,,,,,,,,,,,,673.134137,None,weight,8,16,aloud,yellow,671.1192466,None,None,671.1192466,None,,,,,,,,,,,,,,,,,,,,,,,,,,,,,,,,,,,Oct24Aloud1,65,2022_Oct_24_1624,ProdSingRedoBetween,2021.2.3,59.94244332
16,0,16,0,,,,,,,,,,,,,,,,,,,,,,,,,,675.6366158,None,music,80,17,aloud,red,673.6347981,None,None,673.6347981,None,,,,,,,,,,,,,,,,,,,,,,,,,,,,,,,,,,,Oct24Aloud1,65,2022_Oct_24_1624,ProdSingRedoBetween,2021.2.3,59.94244332
17,0,17,0,,,,,,,,,,,,,,,,,,,,,,,,,,678.155985,None,exchange,4,18,aloud,yellow,676.1474559,None,None,676.1474559,None,,,,,,,,,,,,,,,,,,,,,,,,,,,,,,,,,,,Oct24Aloud1,65,2022_Oct_24_1624,ProdSingRedoBetween,2021.2.3,59.94244332
18,0,18,0,,,,,,,,,,,,,,,,,,,,,,,,,,680.6750673,None,voice,19,19,aloud,yellow,678.661018,None,None,678.661018,None,,,,,,,,,,,,,,,,,,,,,,,,,,,,,,,,,,,Oct24Aloud1,65,2022_Oct_24_1624,ProdSingRedoBetween,2021.2.3,59.94244332
19,0,19,0,,,,,,,,,,,,,,,,,,,,,,,,,,683.177744,None,engineer,62,20,aloud,red,681.1753789,None,None,681.1753789,None,,,,,,,,,,,,,,,,,,,,,,,,,,,,,,,,,,,Oct24Aloud1,65,2022_Oct_24_1624,ProdSingRedoBetween,2021.2.3,59.94244332
20,0,20,0,,,,,,,,,,,,,,,,,,,,,,,,,,685.6801926,None,treatment,43,21,aloud,blue,683.6803565,None,None,683.6803565,None,,,,,,,,,,,,,,,,,,,,,,,,,,,,,,,,,,,Oct24Aloud1,65,2022_Oct_24_1624,ProdSingRedoBetween,2021.2.3,59.94244332
21,0,21,0,,,,,,,,,,,,,,,,,,,,,,,,,,688.1992748,None,comedy,17,22,aloud,yellow,686.1856902,None,None,686.1856902,None,,,,,,,,,,,,,,,,,,,,,,,,,,,,,,,,,,,Oct24Aloud1,65,2022_Oct_24_1624,ProdSingRedoBetween,2021.2.3,59.94244332
22,0,22,0,,,,,,,,,,,,,,,,,,,,,,,,,,690.7017748,None,trail,14,23,aloud,yellow,688.6998589,None,None,688.6998589,None,,,,,,,,,,,,,,,,,,,,,,,,,,,,,,,,,,,Oct24Aloud1,65,2022_Oct_24_1624,ProdSingRedoBetween,2021.2.3,59.94244332
23,0,23,0,,,,,,,,,,,,,,,,,,,,,,,,,,693.2208965,None,income,16,24,aloud,yellow,691.2062381,None,None,691.2062381,None,,,,,,,,,,,,,,,,,,,,,,,,,,,,,,,,,,,Oct24Aloud1,65,2022_Oct_24_1624,ProdSingRedoBetween,2021.2.3,59.94244332
24,0,24,0,,,,,,,,,,,,,,,,,,,,,,,,,,695.7234432,None,fight,59,25,aloud,yellow,693.7214166,None,None,693.7214166,None,,,,,,,,,,,,,,,,,,,,,,,,,,,,,,,,,,,Oct24Aloud1,65,2022_Oct_24_1624,ProdSingRedoBetween,2021.2.3,59.94244332
25,0,25,0,,,,,,,,,,,,,,,,,,,,,,,,,,698.2260189,None,light,30,26,aloud,blue,696.2240016,None,None,696.2240016,None,,,,,,,,,,,,,,,,,,,,,,,,,,,,,,,,,,,Oct24Aloud1,65,2022_Oct_24_1624,ProdSingRedoBetween,2021.2.3,59.94244332
26,0,26,0,,,,,,,,,,,,,,,,,,,,,,,,,,700.7452315,None,finance,18,27,aloud,yellow,698.7325549,None,None,698.7325549,None,,,,,,,,,,,,,,,,,,,,,,,,,,,,,,,,,,,Oct24Aloud1,65,2022_Oct_24_1624,ProdSingRedoBetween,2021.2.3,59.94244332
27,0,27,0,,,,,,,,,,,,,,,,,,,,,,,,,,703.2643232,None,passage,81,28,aloud,red,701.2486892,None,None,701.2486892,None,,,,,,,,,,,,,,,,,,,,,,,,,,,,,,,,,,,Oct24Aloud1,65,2022_Oct_24_1624,ProdSingRedoBetween,2021.2.3,59.94244332
28,0,28,0,,,,,,,,,,,,,,,,,,,,,,,,,,705.766668,None,charter,15,29,aloud,yellow,703.7648363,None,None,703.7648363,None,,,,,,,,,,,,,,,,,,,,,,,,,,,,,,,,,,,Oct24Aloud1,65,2022_Oct_24_1624,ProdSingRedoBetween,2021.2.3,59.94244332
29,0,29,0,,,,,,,,,,,,,,,,,,,,,,,,,,708.285802,None,beginning,50,30,aloud,blue,706.2712825,None,None,706.2712825,None,,,,,,,,,,,,,,,,,,,,,,,,,,,,,,,,,,,Oct24Aloud1,65,2022_Oct_24_1624,ProdSingRedoBetween,2021.2.3,59.94244332
30,0,30,0,,,,,,,,,,,,,,,,,,,,,,,,,,710.8051837,None,spoke,5,31,aloud,yellow,708.7993307,None,None,708.7993307,None,,,,,,,,,,,,,,,,,,,,,,,,,,,,,,,,,,,Oct24Aloud1,65,2022_Oct_24_1624,ProdSingRedoBetween,2021.2.3,59.94244332
31,0,31,0,,,,,,,,,,,,,,,,,,,,,,,,,,713.3077879,None,harmony,46,32,aloud,blue,711.3079691,None,None,711.3079691,None,,,,,,,,,,,,,,,,,,,,,,,,,,,,,,,,,,,Oct24Aloud1,65,2022_Oct_24_1624,ProdSingRedoBetween,2021.2.3,59.94244332
32,0,32,0,,,,,,,,,,,,,,,,,,,,,,,,,,715.8099465,None,quarter,42,33,aloud,blue,713.8085898,None,None,713.8085898,None,,,,,,,,,,,,,,,,,,,,,,,,,,,,,,,,,,,Oct24Aloud1,65,2022_Oct_24_1624,ProdSingRedoBetween,2021.2.3,59.94244332
33,0,33,0,,,,,,,,,,,,,,,,,,,,,,,,,,718.3293168,None,dozen,77,34,aloud,red,716.3213258,None,None,716.3213258,None,,,,,,,,,,,,,,,,,,,,,,,,,,,,,,,,,,,Oct24Aloud1,65,2022_Oct_24_1624,ProdSingRedoBetween,2021.2.3,59.94244332
34,0,34,0,,,,,,,,,,,,,,,,,,,,,,,,,,720.8318758,None,service,65,35,aloud,red,718.8296288,None,None,718.8296288,None,,,,,,,,,,,,,,,,,,,,,,,,,,,,,,,,,,,Oct24Aloud1,65,2022_Oct_24_1624,ProdSingRedoBetween,2021.2.3,59.94244332
35,0,35,0,,,,,,,,,,,,,,,,,,,,,,,,,,723.3510226,None,science,70,36,aloud,red,721.340143,None,None,721.340143,None,,,,,,,,,,,,,,,,,,,,,,,,,,,,,,,,,,,Oct24Aloud1,65,2022_Oct_24_1624,ProdSingRedoBetween,2021.2.3,59.94244332
36,0,36,0,,,,,,,,,,,,,,,,,,,,,,,,,,725.8701529,None,course,54,37,aloud,blue,723.8565425,None,None,723.8565425,None,,,,,,,,,,,,,,,,,,,,,,,,,,,,,,,,,,,Oct24Aloud1,65,2022_Oct_24_1624,ProdSingRedoBetween,2021.2.3,59.94244332
37,0,37,0,,,,,,,,,,,,,,,,,,,,,,,,,,728.3894405,None,trash,31,38,aloud,blue,726.3754736,None,None,726.3754736,None,,,,,,,,,,,,,,,,,,,,,,,,,,,,,,,,,,,Oct24Aloud1,65,2022_Oct_24_1624,ProdSingRedoBetween,2021.2.3,59.94244332
38,0,38,0,,,,,,,,,,,,,,,,,,,,,,,,,,730.8916529,None,medicine,61,39,aloud,red,728.8918834,None,None,728.8918834,None,,,,,,,,,,,,,,,,,,,,,,,,,,,,,,,,,,,Oct24Aloud1,65,2022_Oct_24_1624,ProdSingRedoBetween,2021.2.3,59.94244332
39,0,39,0,,,,,,,,,,,,,,,,,,,,,,,,,,733.4111043,None,judge,53,40,aloud,blue,731.3974603,None,None,731.3974603,None,,,,,,,,,,,,,,,,,,,,,,,,,,,,,,,,,,,Oct24Aloud1,65,2022_Oct_24_1624,ProdSingRedoBetween,2021.2.3,59.94244332
40,0,40,0,,,,,,,,,,,,,,,,,,,,,,,,,,735.9137198,None,pattern,21,41,aloud,yellow,733.9125118,None,None,733.9125118,None,,,,,,,,,,,,,,,,,,,,,,,,,,,,,,,,,,,Oct24Aloud1,65,2022_Oct_24_1624,ProdSingRedoBetween,2021.2.3,59.94244332
41,0,41,0,,,,,,,,,,,,,,,,,,,,,,,,,,738.4160166,None,military,68,42,aloud,red,736.4139001,None,None,736.4139001,None,,,,,,,,,,,,,,,,,,,,,,,,,,,,,,,,,,,Oct24Aloud1,65,2022_Oct_24_1624,ProdSingRedoBetween,2021.2.3,59.94244332
42,0,42,0,,,,,,,,,,,,,,,,,,,,,,,,,,740.9352017,None,majority,76,43,aloud,red,738.9227868,None,None,738.9227868,None,,,,,,,,,,,,,,,,,,,,,,,,,,,,,,,,,,,Oct24Aloud1,65,2022_Oct_24_1624,ProdSingRedoBetween,2021.2.3,59.94244332
43,0,43,0,,,,,,,,,,,,,,,,,,,,,,,,,,743.4378268,None,brief,71,44,aloud,red,741.4357531,None,None,741.4357531,None,,,,,,,,,,,,,,,,,,,,,,,,,,,,,,,,,,,Oct24Aloud1,65,2022_Oct_24_1624,ProdSingRedoBetween,2021.2.3,59.94244332
44,0,44,0,,,,,,,,,,,,,,,,,,,,,,,,,,745.9402418,None,distance,24,45,aloud,yellow,743.9382224,None,None,743.9382224,None,,,,,,,,,,,,,,,,,,,,,,,,,,,,,,,,,,,Oct24Aloud1,65,2022_Oct_24_1624,ProdSingRedoBetween,2021.2.3,59.94244332
45,0,45,0,,,,,,,,,,,,,,,,,,,,,,,,,,748.4425525,None,oxygen,66,46,aloud,red,746.4407087,None,None,746.4407087,None,,,,,,,,,,,,,,,,,,,,,,,,,,,,,,,,,,,Oct24Aloud1,65,2022_Oct_24_1624,ProdSingRedoBetween,2021.2.3,59.94244332
46,0,46,0,,,,,,,,,,,,,,,,,,,,,,,,,,750.9452016,None,prime,55,47,aloud,blue,748.9456897,None,None,748.9456897,None,,,,,,,,,,,,,,,,,,,,,,,,,,,,,,,,,,,Oct24Aloud1,65,2022_Oct_24_1624,ProdSingRedoBetween,2021.2.3,59.94244332
47,0,47,0,,,,,,,,,,,,,,,,,,,,,,,,,,753.4475928,None,count,11,48,aloud,yellow,751.4464775,None,None,751.4464775,None,,,,,,,,,,,,,,,,,,,,,,,,,,,,,,,,,,,Oct24Aloud1,65,2022_Oct_24_1624,ProdSingRedoBetween,2021.2.3,59.94244332
48,0,48,0,,,,,,,,,,,,,,,,,,,,,,,,,,755.95022,None,sweet,49,49,aloud,blue,753.9481685,None,None,753.9481685,None,,,,,,,,,,,,,,,,,,,,,,,,,,,,,,,,,,,Oct24Aloud1,65,2022_Oct_24_1624,ProdSingRedoBetween,2021.2.3,59.94244332
49,0,49,0,,,,,,,,,,,,,,,,,,,,,,,,,,758.4693969,None,rough,82,50,aloud,red,756.4550566,None,None,756.4550566,None,,,,,,,,,,,,,,,,,,,,,,,,,,,,,,,,,,,Oct24Aloud1,65,2022_Oct_24_1624,ProdSingRedoBetween,2021.2.3,59.94244332
50,0,50,0,,,,,,,,,,,,,,,,,,,,,,,,,,760.9720579,None,skill,35,51,aloud,blue,758.9720218,None,None,758.9720218,None,,,,,,,,,,,,,,,,,,,,,,,,,,,,,,,,,,,Oct24Aloud1,65,2022_Oct_24_1624,ProdSingRedoBetween,2021.2.3,59.94244332
51,0,51,0,,,,,,,,,,,,,,,,,,,,,,,,,,763.4910601,None,drama,88,52,aloud,red,761.4757544,None,None,761.4757544,None,,,,,,,,,,,,,,,,,,,,,,,,,,,,,,,,,,,Oct24Aloud1,65,2022_Oct_24_1624,ProdSingRedoBetween,2021.2.3,59.94244332
52,0,52,0,,,,,,,,,,,,,,,,,,,,,,,,,,765.9934038,None,raise,84,53,aloud,red,763.9913118,None,None,763.9913118,None,,,,,,,,,,,,,,,,,,,,,,,,,,,,,,,,,,,Oct24Aloud1,65,2022_Oct_24_1624,ProdSingRedoBetween,2021.2.3,59.94244332
53,0,53,0,,,,,,,,,,,,,,,,,,,,,,,,,,768.4958769,None,attack,2,54,aloud,yellow,766.4953858,None,None,766.4953858,None,,,,,,,,,,,,,,,,,,,,,,,,,,,,,,,,,,,Oct24Aloud1,65,2022_Oct_24_1624,ProdSingRedoBetween,2021.2.3,59.94244332
54,0,54,0,,,,,,,,,,,,,,,,,,,,,,,,,,771.0150622,None,strength,69,55,aloud,red,769.0019303,None,None,769.0019303,None,,,,,,,,,,,,,,,,,,,,,,,,,,,,,,,,,,,Oct24Aloud1,65,2022_Oct_24_1624,ProdSingRedoBetween,2021.2.3,59.94244332
55,0,55,0,,,,,,,,,,,,,,,,,,,,,,,,,,773.5345268,None,research,86,56,aloud,red,771.5197235,None,None,771.5197235,None,,,,,,,,,,,,,,,,,,,,,,,,,,,,,,,,,,,Oct24Aloud1,65,2022_Oct_24_1624,ProdSingRedoBetween,2021.2.3,59.94244332
56,0,56,0,,,,,,,,,,,,,,,,,,,,,,,,,,776.0369655,None,relation,79,57,aloud,red,774.0347416,None,None,774.0347416,None,,,,,,,,,,,,,,,,,,,,,,,,,,,,,,,,,,,Oct24Aloud1,65,2022_Oct_24_1624,ProdSingRedoBetween,2021.2.3,59.94244332
57,0,57,0,,,,,,,,,,,,,,,,,,,,,,,,,,778.539491,None,smooth,28,58,aloud,yellow,776.538396,None,None,776.538396,None,,,,,,,,,,,,,,,,,,,,,,,,,,,,,,,,,,,Oct24Aloud1,65,2022_Oct_24_1624,ProdSingRedoBetween,2021.2.3,59.94244332
58,0,58,0,,,,,,,,,,,,,,,,,,,,,,,,,,781.0418638,None,symbol,12,59,aloud,yellow,779.0399122,None,None,779.0399122,None,,,,,,,,,,,,,,,,,,,,,,,,,,,,,,,,,,,Oct24Aloud1,65,2022_Oct_24_1624,ProdSingRedoBetween,2021.2.3,59.94244332
59,0,59,0,,,,,,,,,,,,,,,,,,,,,,,,,,783.5443507,None,month,20,60,aloud,yellow,781.544632,None,None,781.544632,None,,,,,,,,,,,,,,,,,,,,,,,,,,,,,,,,,,,Oct24Aloud1,65,2022_Oct_24_1624,ProdSingRedoBetween,2021.2.3,59.94244332
60,0,60,0,,,,,,,,,,,,,,,,,,,,,,,,,,786.0469275,None,question,34,61,aloud,blue,784.0446949,None,None,784.0446949,None,,,,,,,,,,,,,,,,,,,,,,,,,,,,,,,,,,,Oct24Aloud1,65,2022_Oct_24_1624,ProdSingRedoBetween,2021.2.3,59.94244332
61,0,61,0,,,,,,,,,,,,,,,,,,,,,,,,,,788.56613,None,suggestion,38,62,aloud,blue,786.561087,None,None,786.561087,None,,,,,,,,,,,,,,,,,,,,,,,,,,,,,,,,,,,Oct24Aloud1,65,2022_Oct_24_1624,ProdSingRedoBetween,2021.2.3,59.94244332
62,0,62,0,,,,,,,,,,,,,,,,,,,,,,,,,,791.0852666,None,answer,3,63,aloud,yellow,789.0693935,None,None,789.0693935,None,,,,,,,,,,,,,,,,,,,,,,,,,,,,,,,,,,,Oct24Aloud1,65,2022_Oct_24_1624,ProdSingRedoBetween,2021.2.3,59.94244332
63,0,63,0,,,,,,,,,,,,,,,,,,,,,,,,,,793.5878092,None,opening,0,64,aloud,yellow,791.5858557,None,None,791.5858557,None,,,,,,,,,,,,,,,,,,,,,,,,,,,,,,,,,,,Oct24Aloud1,65,2022_Oct_24_1624,ProdSingRedoBetween,2021.2.3,59.94244332
64,0,64,0,,,,,,,,,,,,,,,,,,,,,,,,,,796.0902707,None,review,40,65,aloud,blue,794.0909679,None,None,794.0909679,None,,,,,,,,,,,,,,,,,,,,,,,,,,,,,,,,,,,Oct24Aloud1,65,2022_Oct_24_1624,ProdSingRedoBetween,2021.2.3,59.94244332
65,0,65,0,,,,,,,,,,,,,,,,,,,,,,,,,,798.6095009,None,comfort,48,66,aloud,blue,796.5977349,None,None,796.5977349,None,,,,,,,,,,,,,,,,,,,,,,,,,,,,,,,,,,,Oct24Aloud1,65,2022_Oct_24_1624,ProdSingRedoBetween,2021.2.3,59.94244332
66,0,66,0,,,,,,,,,,,,,,,,,,,,,,,,,,801.1119505,None,track,6,67,aloud,yellow,799.1096574,None,None,799.1096574,None,,,,,,,,,,,,,,,,,,,,,,,,,,,,,,,,,,,Oct24Aloud1,65,2022_Oct_24_1624,ProdSingRedoBetween,2021.2.3,59.94244332
67,0,67,0,,,,,,,,,,,,,,,,,,,,,,,,,,803.6310973,None,employment,74,68,aloud,red,801.6200047,None,None,801.6200047,None,,,,,,,,,,,,,,,,,,,,,,,,,,,,,,,,,,,Oct24Aloud1,65,2022_Oct_24_1624,ProdSingRedoBetween,2021.2.3,59.94244332
68,0,68,0,,,,,,,,,,,,,,,,,,,,,,,,,,806.1336014,None,guide,47,69,aloud,blue,804.1314496,None,None,804.1314496,None,,,,,,,,,,,,,,,,,,,,,,,,,,,,,,,,,,,Oct24Aloud1,65,2022_Oct_24_1624,ProdSingRedoBetween,2021.2.3,59.94244332
69,0,69,0,,,,,,,,,,,,,,,,,,,,,,,,,,808.6360282,None,health,13,70,aloud,yellow,806.6343817,None,None,806.6343817,None,,,,,,,,,,,,,,,,,,,,,,,,,,,,,,,,,,,Oct24Aloud1,65,2022_Oct_24_1624,ProdSingRedoBetween,2021.2.3,59.94244332
70,0,70,0,,,,,,,,,,,,,,,,,,,,,,,,,,811.138633,None,cousin,36,71,aloud,blue,809.1370117,None,None,809.1370117,None,,,,,,,,,,,,,,,,,,,,,,,,,,,,,,,,,,,Oct24Aloud1,65,2022_Oct_24_1624,ProdSingRedoBetween,2021.2.3,59.94244332
71,0,71,0,,,,,,,,,,,,,,,,,,,,,,,,,,813.6410871,None,trend,22,72,aloud,yellow,811.6411949,None,None,811.6411949,None,,,,,,,,,,,,,,,,,,,,,,,,,,,,,,,,,,,Oct24Aloud1,65,2022_Oct_24_1624,ProdSingRedoBetween,2021.2.3,59.94244332
72,0,72,0,,,,,,,,,,,,,,,,,,,,,,,,,,816.1601805,None,session,78,73,aloud,red,814.1449571,None,None,814.1449571,None,,,,,,,,,,,,,,,,,,,,,,,,,,,,,,,,,,,Oct24Aloud1,65,2022_Oct_24_1624,ProdSingRedoBetween,2021.2.3,59.94244332
73,0,73,0,,,,,,,,,,,,,,,,,,,,,,,,,,818.6626985,None,dream,26,74,aloud,yellow,816.6607619,None,None,816.6607619,None,,,,,,,,,,,,,,,,,,,,,,,,,,,,,,,,,,,Oct24Aloud1,65,2022_Oct_24_1624,ProdSingRedoBetween,2021.2.3,59.94244332
74,0,74,0,,,,,,,,,,,,,,,,,,,,,,,,,,821.1819626,None,height,23,75,aloud,yellow,819.1667785,None,None,819.1667785,None,,,,,,,,,,,,,,,,,,,,,,,,,,,,,,,,,,,Oct24Aloud1,65,2022_Oct_24_1624,ProdSingRedoBetween,2021.2.3,59.94244332
75,0,75,0,,,,,,,,,,,,,,,,,,,,,,,,,,823.7011068,None,account,56,76,aloud,blue,821.6857664,None,None,821.6857664,None,,,,,,,,,,,,,,,,,,,,,,,,,,,,,,,,,,,Oct24Aloud1,65,2022_Oct_24_1624,ProdSingRedoBetween,2021.2.3,59.94244332
76,0,76,0,,,,,,,,,,,,,,,,,,,,,,,,,,826.2036326,None,machinery,89,77,aloud,red,824.2017136,None,None,824.2017136,None,,,,,,,,,,,,,,,,,,,,,,,,,,,,,,,,,,,Oct24Aloud1,65,2022_Oct_24_1624,ProdSingRedoBetween,2021.2.3,59.94244332
77,0,77,0,,,,,,,,,,,,,,,,,,,,,,,,,,828.722728,None,error,7,78,aloud,yellow,826.7156336,None,None,826.7156336,None,,,,,,,,,,,,,,,,,,,,,,,,,,,,,,,,,,,Oct24Aloud1,65,2022_Oct_24_1624,ProdSingRedoBetween,2021.2.3,59.94244332
78,0,78,0,,,,,,,,,,,,,,,,,,,,,,,,,,831.2250531,None,recall,10,79,aloud,yellow,829.2233549,None,None,829.2233549,None,,,,,,,,,,,,,,,,,,,,,,,,,,,,,,,,,,,Oct24Aloud1,65,2022_Oct_24_1624,ProdSingRedoBetween,2021.2.3,59.94244332
79,0,79,0,,,,,,,,,,,,,,,,,,,,,,,,,,833.7277369,None,clean,73,80,aloud,red,831.7258607,None,None,831.7258607,None,,,,,,,,,,,,,,,,,,,,,,,,,,,,,,,,,,,Oct24Aloud1,65,2022_Oct_24_1624,ProdSingRedoBetween,2021.2.3,59.94244332
80,0,80,0,,,,,,,,,,,,,,,,,,,,,,,,,,836.2469631,None,point,27,81,aloud,yellow,834.2401696,None,None,834.2401696,None,,,,,,,,,,,,,,,,,,,,,,,,,,,,,,,,,,,Oct24Aloud1,65,2022_Oct_24_1624,ProdSingRedoBetween,2021.2.3,59.94244332
81,0,81,0,,,,,,,,,,,,,,,,,,,,,,,,,,838.7661039,None,finish,33,82,aloud,blue,836.7531883,None,None,836.7531883,None,,,,,,,,,,,,,,,,,,,,,,,,,,,,,,,,,,,Oct24Aloud1,65,2022_Oct_24_1624,ProdSingRedoBetween,2021.2.3,59.94244332
82,0,82,0,,,,,,,,,,,,,,,,,,,,,,,,,,841.2853769,None,payment,29,83,aloud,blue,839.2706492,None,None,839.2706492,None,,,,,,,,,,,,,,,,,,,,,,,,,,,,,,,,,,,Oct24Aloud1,65,2022_Oct_24_1624,ProdSingRedoBetween,2021.2.3,59.94244332
83,0,83,0,,,,,,,,,,,,,,,,,,,,,,,,,,843.8044798,None,agency,9,84,aloud,yellow,841.7901659,None,None,841.7901659,None,,,,,,,,,,,,,,,,,,,,,,,,,,,,,,,,,,,Oct24Aloud1,65,2022_Oct_24_1624,ProdSingRedoBetween,2021.2.3,59.94244332
84,0,84,0,,,,,,,,,,,,,,,,,,,,,,,,,,846.3236469,None,property,1,85,aloud,yellow,844.308031,None,None,844.308031,None,,,,,,,,,,,,,,,,,,,,,,,,,,,,,,,,,,,Oct24Aloud1,65,2022_Oct_24_1624,ProdSingRedoBetween,2021.2.3,59.94244332
85,0,85,0,,,,,,,,,,,,,,,,,,,,,,,,,,848.8428728,None,fellow,63,86,aloud,red,846.8345644,None,None,846.8345644,None,,,,,,,,,,,,,,,,,,,,,,,,,,,,,,,,,,,Oct24Aloud1,65,2022_Oct_24_1624,ProdSingRedoBetween,2021.2.3,59.94244332
86,0,86,0,,,,,,,,,,,,,,,,,,,,,,,,,,851.3453428,None,swift,58,87,aloud,blue,849.3434333,None,None,849.3434333,None,,,,,,,,,,,,,,,,,,,,,,,,,,,,,,,,,,,Oct24Aloud1,65,2022_Oct_24_1624,ProdSingRedoBetween,2021.2.3,59.94244332
87,0,87,0,,,,,,,,,,,,,,,,,,,,,,,,,,853.8645522,None,sound,64,88,aloud,red,851.8505737,None,None,851.8505737,None,,,,,,,,,,,,,,,,,,,,,,,,,,,,,,,,,,,Oct24Aloud1,65,2022_Oct_24_1624,ProdSingRedoBetween,2021.2.3,59.94244332
88,0,88,0,,,,,,,,,,,,,,,,,,,,,,,,,,856.3670071,None,bucket,25,89,aloud,yellow,854.3670129,None,None,854.3670129,None,,,,,,,,,,,,,,,,,,,,,,,,,,,,,,,,,,,Oct24Aloud1,65,2022_Oct_24_1624,ProdSingRedoBetween,2021.2.3,59.94244332
89,0,89,0,,,,,,,,,,,,,,,,,,,,,,,,,,858.8694549,None,direction,51,90,aloud,blue,856.8675477,None,None,856.8675477,None,,,,,,,,,,,,,,,,,,,,,,,,,,,,,,,,,,,Oct24Aloud1,65,2022_Oct_24_1624,ProdSingRedoBetween,2021.2.3,59.94244332
,,,,,,,,,,,,,,,,,,,,,,,,,,,,,,,,,,,,,,,,,859.3703881,None,k,86.752935,859.3703881,None,,,,,,,,,,,,,,,,,,,,,,,,,,,,,Oct24Aloud1,65,2022_Oct_24_1624,ProdSingRedoBetween,2021.2.3,59.94244332
,,,,0,0,0,0,,,,,,,,,,,,,,,,,,,,,,980.040328,None,,,,,,,,,,,,,,,,,property,1,1,aloud,old,yellow,946.6568815,None,946.6568815,None,6,26.386058,946.6568815,None,26.386058,973.0731095,None,973.5839302,None,973.5839302,None,r,6.427035,973.5839302,None,6.427035,,,Oct24Aloud1,65,2022_Oct_24_1624,ProdSingRedoBetween,2021.2.3,59.94244332
,,,,1,0,1,0,,,,,,,,,,,,,,,,,,,,,,989.616472,None,,,,,,,,,,,,,,,,,ground,173,2,aloud,new,null,980.5409421,None,980.5409421,None,1,6.8140651,980.5409421,None,6.8140651,987.3829711,None,987.9014501,None,987.9014501,None,n,1.6935303,987.9014501,None,1.6935303,,,Oct24Aloud1,65,2022_Oct_24_1624,ProdSingRedoBetween,2021.2.3,59.94244332
,,,,2,0,2,0,,,,,,,,,,,,,,,,,,,,,,995.8224708,None,,,,,,,,,,,,,,,,,worker,98,3,aloud,new,null,990.1321837,None,990.1321837,None,1,4.0067887,990.1321837,None,4.0067887,994.1563636,None,994.6799284,None,994.6799284,None,n,1.1229626,994.6799284,None,1.1229626,,,Oct24Aloud1,65,2022_Oct_24_1624,ProdSingRedoBetween,2021.2.3,59.94244332
,,,,3,0,3,0,,,,,,,,,,,,,,,,,,,,,,1006.516797,None,,,,,,,,,,,,,,,,,finish,33,4,aloud,old,blue,996.3315841,None,996.3315841,None,6,5.231359,996.3315841,None,5.231359,1001.579844,None,1002.079079,None,1002.079079,None,r,4.411886,1002.079079,None,4.411886,,,Oct24Aloud1,65,2022_Oct_24_1624,ProdSingRedoBetween,2021.2.3,59.94244332
,,,,4,0,4,0,,,,,,,,,,,,,,,,,,,,,,1011.054563,None,,,,,,,,,,,,,,,,,suggestion,38,5,aloud,old,blue,1007.022571,None,1007.022571,None,6,2.5403058,1007.022571,None,2.5403058,1009.592932,None,1010.108196,None,1010.108196,None,r,0.9267579,1010.108196,None,0.9267579,,,Oct24Aloud1,65,2022_Oct_24_1624,ProdSingRedoBetween,2021.2.3,59.94244332
,,,,5,0,5,0,,,,,,,,,,,,,,,,,,,,,,1015.211312,None,,,,,,,,,,,,,,,,,payment,29,6,aloud,old,blue,1011.566374,None,1011.566374,None,6,2.3325714,1011.566374,None,2.3325714,1013.926309,None,1014.441385,None,1014.441385,None,r,0.7456215,1014.441385,None,0.7456215,,,Oct24Aloud1,65,2022_Oct_24_1624,ProdSingRedoBetween,2021.2.3,59.94244332
,,,,6,0,6,0,,,,,,,,,,,,,,,,,,,,,,1022.944575,None,,,,,,,,,,,,,,,,,cross,160,7,aloud,new,null,1015.736326,None,1015.736326,None,6,6.0666208,1015.736326,None,6.0666208,1021.8341,None,1022.351016,None,1022.351016,None,r,0.5638541,1022.351016,None,0.5638541,,,Oct24Aloud1,65,2022_Oct_24_1624,ProdSingRedoBetween,2021.2.3,59.94244332
,,,,7,0,7,0,,,,,,,,,,,,,,,,,,,,,,1027.254047,None,,,,,,,,,,,,,,,,,pretty,148,8,aloud,new,null,1023.456887,None,1023.456887,None,1,1.9780226,1023.456887,None,1.9780226,1025.453475,None,1025.952951,None,1025.952951,None,n,1.273924,1025.952951,None,1.273924,,,Oct24Aloud1,65,2022_Oct_24_1624,ProdSingRedoBetween,2021.2.3,59.94244332
,,,,8,0,8,0,,,,,,,,,,,,,,,,,,,,,,1032.475964,None,,,,,,,,,,,,,,,,,bucket,25,9,aloud,old,yellow,1027.762855,None,1027.762855,None,6,3.6080535,1027.762855,None,3.6080535,1031.394442,None,1031.911972,None,1031.911972,None,r,0.5390497,1031.911972,None,0.5390497,,,Oct24Aloud1,65,2022_Oct_24_1624,ProdSingRedoBetween,2021.2.3,59.94244332
,,,,9,0,9,0,,,,,,,,,,,,,,,,,,,,,,1035.495635,None,,,,,,,,,,,,,,,,,service,65,10,aloud,old,red,1032.978086,None,1032.978086,None,6,1.6807871,1032.978086,None,1.6807871,1034.680111,None,1035.19841,None,1035.19841,None,r,0.2684996,1035.19841,None,0.2684996,,,Oct24Aloud1,65,2022_Oct_24_1624,ProdSingRedoBetween,2021.2.3,59.94244332
,,,,10,0,10,0,,,,,,,,,,,,,,,,,,,,,,1037.999944,None,,,,,,,,,,,,,,,,,direction,51,11,aloud,old,blue,1036.003022,None,1036.003022,None,6,1.1278566,1036.003022,None,1.1278566,1037.148246,None,1037.652675,None,1037.652675,None,r,0.3182689,1037.652675,None,0.3182689,,,Oct24Aloud1,65,2022_Oct_24_1624,ProdSingRedoBetween,2021.2.3,59.94244332
,,,,11,0,11,0,,,,,,,,,,,,,,,,,,,,,,1040.136151,None,,,,,,,,,,,,,,,,,agency,9,12,aloud,old,yellow,1038.517503,None,1038.517503,None,6,0.7973583,1038.517503,None,0.7973583,1039.333964,None,1039.835403,None,1039.835403,None,r,0.2795691,1039.835403,None,0.2795691,,,Oct24Aloud1,65,2022_Oct_24_1624,ProdSingRedoBetween,2021.2.3,59.94244332
,,,,12,0,12,0,,,,,,,,,,,,,,,,,,,,,,1042.470481,None,,,,,,,,,,,,,,,,,citizen,37,13,aloud,old,blue,1040.660451,None,1040.660451,None,6,0.9903905,1040.660451,None,0.9903905,1041.671238,None,1042.185743,None,1042.185743,None,r,0.2652754,1042.185743,None,0.2652754,,,Oct24Aloud1,65,2022_Oct_24_1624,ProdSingRedoBetween,2021.2.3,59.94244332
,,,,13,0,13,0,,,,,,,,,,,,,,,,,,,,,,1049.059087,None,,,,,,,,,,,,,,,,,hunger,133,14,aloud,new,null,1042.974607,None,1042.974607,None,1,4.8363675,1042.974607,None,4.8363675,1047.855578,None,1048.364157,None,1048.364157,None,n,0.6790136,1048.364157,None,0.6790136,,,Oct24Aloud1,65,2022_Oct_24_1624,ProdSingRedoBetween,2021.2.3,59.94244332
,,,,14,0,14,0,,,,,,,,,,,,,,,,,,,,,,1055.532907,None,,,,,,,,,,,,,,,,,private,156,15,aloud,new,null,1049.564758,None,1049.564758,None,2,4.1501261,1049.564758,None,4.1501261,1053.73202,None,1054.24014,None,1054.24014,None,f,1.266777,1054.24014,None,1.266777,,,Oct24Aloud1,65,2022_Oct_24_1624,ProdSingRedoBetween,2021.2.3,59.94244332
,,,,15,0,15,0,,,,,,,,,,,,,,,,,,,,,,1058.485198,None,,,,,,,,,,,,,,,,,passage,81,16,aloud,old,red,1056.036811,None,1056.036811,None,6,1.7340507,1056.036811,None,1.7340507,1057.801194,None,1058.301789,None,1058.301789,None,r,0.157141,1058.301789,None,0.157141,,,Oct24Aloud1,65,2022_Oct_24_1624,ProdSingRedoBetween,2021.2.3,59.94244332
,,,,16,0,16,0,,,,,,,,,,,,,,,,,,,,,,1068.511807,None,,,,,,,,,,,,,,,,,business,175,17,aloud,new,null,1058.993611,None,1058.993611,None,2,7.4491749,1058.993611,None,7.4491749,1066.460699,None,1066.969478,None,1066.969478,None,f,1.5213808,1066.969478,None,1.5213808,,,Oct24Aloud1,65,2022_Oct_24_1624,ProdSingRedoBetween,2021.2.3,59.94244332
,,,,17,0,17,0,,,,,,,,,,,,,,,,,,,,,,1073.249991,None,,,,,,,,,,,,,,,,,principal,158,18,aloud,new,null,1069.017279,None,1069.017279,None,1,2.1214821,1069.017279,None,2.1214821,1071.164306,None,1071.665206,None,1071.665206,None,n,1.5696345,1071.665206,None,1.5696345,,,Oct24Aloud1,65,2022_Oct_24_1624,ProdSingRedoBetween,2021.2.3,59.94244332
,,,,18,0,18,0,,,,,,,,,,,,,,,,,,,,,,1077.020392,None,,,,,,,,,,,,,,,,,brilliant,161,19,aloud,new,null,1073.753307,None,1073.753307,None,1,1.1935307,1073.753307,None,1.1935307,1074.972112,None,1075.48921,None,1075.48921,None,n,1.5137061,1075.48921,None,1.5137061,,,Oct24Aloud1,65,2022_Oct_24_1624,ProdSingRedoBetween,2021.2.3,59.94244332
,,,,19,0,19,0,,,,,,,,,,,,,,,,,,,,,,1084.065367,None,,,,,,,,,,,,,,,,,court,87,20,aloud,old,red,1077.526922,None,1077.526922,None,6,5.3319179,1077.526922,None,5.3319179,1082.876307,None,1083.376821,None,1083.376821,None,r,0.6661892,1083.376821,None,0.6661892,,,Oct24Aloud1,65,2022_Oct_24_1624,ProdSingRedoBetween,2021.2.3,59.94244332
,,,,20,0,20,0,,,,,,,,,,,,,,,,,,,,,,1097.107998,None,,,,,,,,,,,,,,,,,store,111,21,aloud,new,null,1084.584292,None,1084.584292,None,1,9.2825782,1084.584292,None,9.2825782,1093.888359,None,1094.395063,None,1094.395063,None,n,2.6957591,1094.395063,None,2.6957591,,,Oct24Aloud1,65,2022_Oct_24_1624,ProdSingRedoBetween,2021.2.3,59.94244332
,,,,21,0,21,0,,,,,,,,,,,,,,,,,,,,,,1106.183613,None,,,,,,,,,,,,,,,,,raise,84,22,aloud,old,red,1097.607775,None,1097.607775,None,3,6.9150169,1097.607775,None,6.9150169,1104.549241,None,1105.048423,None,1105.048423,None,f,1.1064598,1105.048423,None,1.1064598,,,Oct24Aloud1,65,2022_Oct_24_1624,ProdSingRedoBetween,2021.2.3,59.94244332
,,,,22,0,22,0,,,,,,,,,,,,,,,,,,,,,,1110.270157,None,,,,,,,,,,,,,,,,,company,99,23,aloud,new,null,1106.687836,None,1106.687836,None,6,2.7308816,1106.687836,None,2.7308816,1109.437572,None,1109.947876,None,1109.947876,None,r,0.2949329,1109.947876,None,0.2949329,,,Oct24Aloud1,65,2022_Oct_24_1624,ProdSingRedoBetween,2021.2.3,59.94244332
,,,,23,0,23,0,,,,,,,,,,,,,,,,,,,,,,1113.573288,None,,,,,,,,,,,,,,,,,primary,155,24,aloud,new,null,1110.773851,None,1110.773851,None,1,1.9249396,1110.773851,None,1.9249396,1112.726943,None,1113.24103,None,1113.24103,None,n,0.3138264,1113.24103,None,0.3138264,,,Oct24Aloud1,65,2022_Oct_24_1624,ProdSingRedoBetween,2021.2.3,59.94244332
,,,,24,0,24,0,,,,,,,,,,,,,,,,,,,,,,1119.295879,None,,,,,,,,,,,,,,,,,touch,168,25,aloud,new,null,1114.083578,None,1114.083578,None,6,4.3511462,1114.083578,None,4.3511462,1118.461969,None,1118.962094,None,1118.962094,None,r,0.3127544,1118.962094,None,0.3127544,,,Oct24Aloud1,65,2022_Oct_24_1624,ProdSingRedoBetween,2021.2.3,59.94244332
,,,,25,0,25,0,,,,,,,,,,,,,,,,,,,,,,1122.36562,None,,,,,,,,,,,,,,,,,turkey,164,26,aloud,new,null,1119.799993,None,1119.799993,None,1,1.4826963,1119.799993,None,1.4826963,1121.300686,None,1121.815132,None,1121.815132,None,n,0.5317082,1121.815132,None,0.5317082,,,Oct24Aloud1,65,2022_Oct_24_1624,ProdSingRedoBetween,2021.2.3,59.94244332
,,,,26,0,26,0,,,,,,,,,,,,,,,,,,,,,,1127.704246,None,,,,,,,,,,,,,,,,,second,172,27,aloud,new,null,1122.868581,None,1122.868581,None,1,3.8061563,1122.868581,None,3.8061563,1126.719695,None,1127.220578,None,1127.220578,None,n,0.4623075,1127.220578,None,0.4623075,,,Oct24Aloud1,65,2022_Oct_24_1624,ProdSingRedoBetween,2021.2.3,59.94244332
,,,,27,0,27,0,,,,,,,,,,,,,,,,,,,,,,1130.860704,None,,,,,,,,,,,,,,,,,drama,88,28,aloud,old,red,1128.204741,None,1128.204741,None,6,1.742103,1128.204741,None,1.742103,1129.991414,None,1130.49435,None,1130.49435,None,r,0.3325413,1130.49435,None,0.3325413,,,Oct24Aloud1,65,2022_Oct_24_1624,ProdSingRedoBetween,2021.2.3,59.94244332
,,,,28,0,28,0,,,,,,,,,,,,,,,,,,,,,,1133.993849,None,,,,,,,,,,,,,,,,,bureau,138,29,aloud,new,null,1131.377553,None,1131.377553,None,1,1.7291912,1131.377553,None,1.7291912,1133.129798,None,1133.644736,None,1133.644736,None,n,0.3260415,1133.644736,None,0.3260415,,,Oct24Aloud1,65,2022_Oct_24_1624,ProdSingRedoBetween,2021.2.3,59.94244332
,,,,29,0,29,0,,,,,,,,,,,,,,,,,,,,,,1138.453621,None,,,,,,,,,,,,,,,,,graduate,92,30,aloud,new,null,1134.501579,None,1134.501579,None,1,2.8531106,1134.501579,None,2.8531106,1137.383216,None,1137.899903,None,1137.899903,None,n,0.5268694,1137.899903,None,0.5268694,,,Oct24Aloud1,65,2022_Oct_24_1624,ProdSingRedoBetween,2021.2.3,59.94244332
,,,,30,0,30,0,,,,,,,,,,,,,,,,,,,,,,1141.534715,None,,,,,,,,,,,,,,,,,heavy,140,31,aloud,new,null,1138.968098,None,1138.968098,None,1,1.6026168,1138.968098,None,1.6026168,1140.60171,None,1141.101905,None,1141.101905,None,n,0.412848,1141.101905,None,0.412848,,,Oct24Aloud1,65,2022_Oct_24_1624,ProdSingRedoBetween,2021.2.3,59.94244332
,,,,31,0,31,0,,,,,,,,,,,,,,,,,,,,,,1144.587738,None,,,,,,,,,,,,,,,,,opening,0,32,aloud,old,yellow,1142.043494,None,1142.043494,None,6,1.6872186,1142.043494,None,1.6872186,1143.754108,None,1144.261153,None,1144.261153,None,r,0.3016807,1144.261153,None,0.3016807,,,Oct24Aloud1,65,2022_Oct_24_1624,ProdSingRedoBetween,2021.2.3,59.94244332
,,,,32,0,32,0,,,,,,,,,,,,,,,,,,,,,,1146.723239,None,,,,,,,,,,,,,,,,,trash,31,33,aloud,old,blue,1145.091701,None,1145.091701,None,6,0.7990495,1145.091701,None,0.7990495,1145.907084,None,1146.406269,None,1146.406269,None,r,0.2924402,1146.406269,None,0.2924402,,,Oct24Aloud1,65,2022_Oct_24_1624,ProdSingRedoBetween,2021.2.3,59.94244332
,,,,33,0,33,0,,,,,,,,,,,,,,,,,,,,,,1150.376809,None,,,,,,,,,,,,,,,,,fellow,63,34,aloud,old,red,1147.234483,None,1147.234483,None,1,2.2642911,1147.234483,None,2.2642911,1149.532443,None,1150.047401,None,1150.047401,None,n,0.3073729,1150.047401,None,0.3073729,,,Oct24Aloud1,65,2022_Oct_24_1624,ProdSingRedoBetween,2021.2.3,59.94244332
,,,,34,0,34,0,,,,,,,,,,,,,,,,,,,,,,1153.463316,None,,,,,,,,,,,,,,,,,society,171,35,aloud,new,null,1150.890973,None,1150.890973,None,1,1.6797384,1150.890973,None,1.6797384,1152.597,None,1153.096328,None,1153.096328,None,n,0.3382992,1153.096328,None,0.3382992,,,Oct24Aloud1,65,2022_Oct_24_1624,ProdSingRedoBetween,2021.2.3,59.94244332
,,,,35,0,35,0,,,,,,,,,,,,,,,,,,,,,,1157.901137,None,,,,,,,,,,,,,,,,,straight,102,36,aloud,new,null,1153.966238,None,1153.966238,None,2,1.956524,1153.966238,None,1.956524,1155.950214,None,1156.453128,None,1156.453128,None,f,1.4296737,1156.453128,None,1.4296737,,,Oct24Aloud1,65,2022_Oct_24_1624,ProdSingRedoBetween,2021.2.3,59.94244332
,,,,36,0,36,0,,,,,,,,,,,,,,,,,,,,,,1162.705798,None,,,,,,,,,,,,,,,,,couch,177,37,aloud,new,null,1158.403653,None,1158.403653,None,6,3.4391282,1158.403653,None,3.4391282,1161.871739,None,1162.375918,None,1162.375918,None,r,0.3068529,1162.375918,None,0.3068529,,,Oct24Aloud1,65,2022_Oct_24_1624,ProdSingRedoBetween,2021.2.3,59.94244332
,,,,37,0,37,0,,,,,,,,,,,,,,,,,,,,,,1166.009115,None,,,,,,,,,,,,,,,,,count,11,38,aloud,old,yellow,1163.206536,None,1163.206536,None,6,0.8841491,1163.206536,None,0.8841491,1164.107178,None,1164.612096,None,1164.612096,None,r,1.3745924,1164.612096,None,1.3745924,,,Oct24Aloud1,65,2022_Oct_24_1624,ProdSingRedoBetween,2021.2.3,59.94244332
,,,,38,0,38,0,,,,,,,,,,,,,,,,,,,,,,1169.078746,None,,,,,,,,,,,,,,,,,surprise,97,39,aloud,new,null,1166.518641,None,1166.518641,None,1,1.724037,1166.518641,None,1.724037,1168.26609,None,1168.779901,None,1168.779901,None,n,0.2706757,1168.779901,None,0.2706757,,,Oct24Aloud1,65,2022_Oct_24_1624,ProdSingRedoBetween,2021.2.3,59.94244332
,,,,39,0,39,0,,,,,,,,,,,,,,,,,,,,,,1171.42021,None,,,,,,,,,,,,,,,,,personnel,139,40,aloud,new,null,1169.585449,None,1169.585449,None,1,1.2011605,1169.585449,None,1.2011605,1170.815789,None,1171.342404,None,1171.342404,None,n,0.0445776,1171.342404,None,0.0445776,,,Oct24Aloud1,65,2022_Oct_24_1624,ProdSingRedoBetween,2021.2.3,59.94244332
,,,,40,0,40,0,,,,,,,,,,,,,,,,,,,,,,1174.384197,None,,,,,,,,,,,,,,,,,guide,47,41,aloud,old,blue,1171.937329,None,1171.937329,None,6,1.6173535,1171.937329,None,1.6173535,1173.584027,None,1174.091518,None,1174.091518,None,r,0.2711814,1174.091518,None,0.2711814,,,Oct24Aloud1,65,2022_Oct_24_1624,ProdSingRedoBetween,2021.2.3,59.94244332
,,,,41,0,41,0,,,,,,,,,,,,,,,,,,,,,,1176.469568,None,,,,,,,,,,,,,,,,,quarter,42,42,aloud,old,blue,1174.885172,None,1174.885172,None,6,0.7335629,1174.885172,None,0.7335629,1175.637189,None,1176.156045,None,1176.156045,None,r,0.2946536,1176.156045,None,0.2946536,,,Oct24Aloud1,65,2022_Oct_24_1624,ProdSingRedoBetween,2021.2.3,59.94244332
,,,,42,0,42,0,,,,,,,,,,,,,,,,,,,,,,1179.121977,None,,,,,,,,,,,,,,,,,marriage,110,43,aloud,new,null,1176.976159,None,1176.976159,None,1,1.2344409,1176.976159,None,1.2344409,1178.238619,None,1178.741104,None,1178.741104,None,n,0.3655816,1178.741104,None,0.3655816,,,Oct24Aloud1,65,2022_Oct_24_1624,ProdSingRedoBetween,2021.2.3,59.94244332
,,,,43,0,43,0,,,,,,,,,,,,,,,,,,,,,,1181.7081,None,,,,,,,,,,,,,,,,,growth,179,44,aloud,new,null,1179.633103,None,1179.633103,None,1,1.4736027,1179.633103,None,1.4736027,1181.130303,None,1181.642734,None,1181.642734,None,n,0.0480244,1181.642734,None,0.0480244,,,Oct24Aloud1,65,2022_Oct_24_1624,ProdSingRedoBetween,2021.2.3,59.94244332
,,,,44,0,44,0,,,,,,,,,,,,,,,,,,,,,,1185.44515,None,,,,,,,,,,,,,,,,,state,112,45,aloud,new,null,1182.217681,None,1182.217681,None,1,1.1208869,1182.217681,None,1.1208869,1183.360811,None,1183.864144,None,1183.864144,None,n,1.5624211,1183.864144,None,1.5624211,,,Oct24Aloud1,65,2022_Oct_24_1624,ProdSingRedoBetween,2021.2.3,59.94244332
,,,,45,0,45,0,,,,,,,,,,,,,,,,,,,,,,1188.849406,None,,,,,,,,,,,,,,,,,shape,141,46,aloud,new,null,1185.95498,None,1185.95498,None,1,1.4156332,1185.95498,None,1.4156332,1187.399959,None,1187.919133,None,1187.919133,None,n,0.8997053,1187.919133,None,0.8997053,,,Oct24Aloud1,65,2022_Oct_24_1624,ProdSingRedoBetween,2021.2.3,59.94244332
,,,,46,0,46,0,,,,,,,,,,,,,,,,,,,,,,1191.651411,None,,,,,,,,,,,,,,,,,block,41,47,aloud,old,blue,1189.359275,None,1189.359275,None,6,1.3154273,1189.359275,None,1.3154273,1190.703491,None,1191.217746,None,1191.217746,None,r,0.4169908,1191.217746,None,0.4169908,,,Oct24Aloud1,65,2022_Oct_24_1624,ProdSingRedoBetween,2021.2.3,59.94244332
,,,,47,0,47,0,,,,,,,,,,,,,,,,,,,,,,1193.686703,None,,,,,,,,,,,,,,,,,exchange,4,48,aloud,old,yellow,1192.162048,None,1192.162048,None,6,0.6646306,1192.162048,None,0.6646306,1192.864303,None,1193.373392,None,1193.373392,None,r,0.2852249,1193.373392,None,0.2852249,,,Oct24Aloud1,65,2022_Oct_24_1624,ProdSingRedoBetween,2021.2.3,59.94244332
,,,,48,0,48,0,,,,,,,,,,,,,,,,,,,,,,1198.074409,None,,,,,,,,,,,,,,,,,guest,146,49,aloud,new,null,1194.193169,None,1194.193169,None,4,2.7054679,1194.193169,None,2.7054679,1196.924636,None,1197.428067,None,1197.428067,None,f,0.6306112,1197.428067,None,0.6306112,,,Oct24Aloud1,65,2022_Oct_24_1624,ProdSingRedoBetween,2021.2.3,59.94244332
,,,,49,0,49,0,,,,,,,,,,,,,,,,,,,,,,1202.44994,None,,,,,,,,,,,,,,,,,enemy,157,50,aloud,new,null,1198.576473,None,1198.576473,None,2,2.8661386,1198.576473,None,2.8661386,1201.461061,None,1201.961714,None,1201.961714,None,f,0.4650091,1201.961714,None,0.4650091,,,Oct24Aloud1,65,2022_Oct_24_1624,ProdSingRedoBetween,2021.2.3,59.94244332
,,,,50,0,50,0,,,,,,,,,,,,,,,,,,,,,,1205.081411,None,,,,,,,,,,,,,,,,,goose,113,51,aloud,new,null,1202.964096,None,1202.964096,None,1,1.4545269,1202.964096,None,1.4545269,1204.449391,None,1204.964811,None,1204.964811,None,n,0.085884,1204.964811,None,0.085884,,,Oct24Aloud1,65,2022_Oct_24_1624,ProdSingRedoBetween,2021.2.3,59.94244332
,,,,51,0,51,0,,,,,,,,,,,,,,,,,,,,,,1208.83512,None,,,,,,,,,,,,,,,,,substance,105,52,aloud,new,null,1205.58875,None,1205.58875,None,6,2.2938763,1205.58875,None,2.2938763,1207.903016,None,1208.42152,None,1208.42152,None,r,0.3890814,1208.42152,None,0.3890814,,,Oct24Aloud1,65,2022_Oct_24_1624,ProdSingRedoBetween,2021.2.3,59.94244332
,,,,52,0,52,0,,,,,,,,,,,,,,,,,,,,,,1214.661645,None,,,,,,,,,,,,,,,,,broad,120,53,aloud,new,null,1209.340509,None,1209.340509,None,1,4.3980254,1209.340509,None,4.3980254,1213.757967,None,1214.257414,None,1214.257414,None,n,0.3772627,1214.257414,None,0.3772627,,,Oct24Aloud1,65,2022_Oct_24_1624,ProdSingRedoBetween,2021.2.3,59.94244332
,,,,53,0,53,0,,,,,,,,,,,,,,,,,,,,,,1221.714618,None,,,,,,,,,,,,,,,,,machinery,89,54,aloud,old,red,1215.187256,None,1215.187256,None,6,5.7112772,1215.187256,None,5.7112772,1220.915162,None,1221.414562,None,1221.414562,None,r,0.2760889,1221.414562,None,0.2760889,,,Oct24Aloud1,65,2022_Oct_24_1624,ProdSingRedoBetween,2021.2.3,59.94244332
,,,,54,0,54,0,,,,,,,,,,,,,,,,,,,,,,1224.483944,None,,,,,,,,,,,,,,,,,master,142,55,aloud,new,null,1222.219278,None,1222.219278,None,6,1.471317,1222.219278,None,1.471317,1223.721356,None,1224.233954,None,1224.233954,None,r,0.2326441,1224.233954,None,0.2326441,,,Oct24Aloud1,65,2022_Oct_24_1624,ProdSingRedoBetween,2021.2.3,59.94244332
,,,,55,0,55,0,,,,,,,,,,,,,,,,,,,,,,1227.119856,None,,,,,,,,,,,,,,,,,phrase,167,56,aloud,new,null,1224.98616,None,1224.98616,None,1,1.4563217,1224.98616,None,1.4563217,1226.474083,None,1226.988276,None,1226.988276,None,n,0.1102597,1226.988276,None,0.1102597,,,Oct24Aloud1,65,2022_Oct_24_1624,ProdSingRedoBetween,2021.2.3,59.94244332
,,,,56,0,56,0,,,,,,,,,,,,,,,,,,,,,,1230.890806,None,,,,,,,,,,,,,,,,,general,67,57,aloud,old,red,1227.62761,None,1227.62761,None,6,2.3669856,1227.62761,None,2.3669856,1230.023604,None,1230.526447,None,1230.526447,None,r,0.3480796,1230.526447,None,0.3480796,,,Oct24Aloud1,65,2022_Oct_24_1624,ProdSingRedoBetween,2021.2.3,59.94244332
,,,,57,0,57,0,,,,,,,,,,,,,,,,,,,,,,1233.543711,None,,,,,,,,,,,,,,,,,equipment,103,58,aloud,new,null,1231.405659,None,1231.405659,None,1,1.4769188,1231.405659,None,1.4769188,1232.910152,None,1233.420844,None,1233.420844,None,n,0.1017662,1233.420844,None,0.1017662,,,Oct24Aloud1,65,2022_Oct_24_1624,ProdSingRedoBetween,2021.2.3,59.94244332
,,,,58,0,58,0,,,,,,,,,,,,,,,,,,,,,,1236.412644,None,,,,,,,,,,,,,,,,,speech,166,59,aloud,new,null,1234.059662,None,1234.059662,None,6,1.5109206,1234.059662,None,1.5109206,1235.602992,None,1236.113515,None,1236.113515,None,r,0.2809744,1236.113515,None,0.2809744,,,Oct24Aloud1,65,2022_Oct_24_1624,ProdSingRedoBetween,2021.2.3,59.94244332
,,,,59,0,59,0,,,,,,,,,,,,,,,,,,,,,,1238.765016,None,,,,,,,,,,,,,,,,,frank,123,60,aloud,new,null,1236.93276,None,1236.93276,None,1,1.149806,1236.93276,None,1.149806,1238.099394,None,1238.617268,None,1238.617268,None,n,0.1212463,1238.617268,None,0.1212463,,,Oct24Aloud1,65,2022_Oct_24_1624,ProdSingRedoBetween,2021.2.3,59.94244332
,,,,60,0,60,0,,,,,,,,,,,,,,,,,,,,,,1241.652699,None,,,,,,,,,,,,,,,,,weight,8,61,aloud,old,yellow,1239.272905,None,1239.272905,None,6,1.2018526,1239.272905,None,1.2018526,1240.506787,None,1241.018215,None,1241.018215,None,r,0.6083594,1241.018215,None,0.6083594,,,Oct24Aloud1,65,2022_Oct_24_1624,ProdSingRedoBetween,2021.2.3,59.94244332
,,,,61,0,61,0,,,,,,,,,,,,,,,,,,,,,,1243.975721,None,,,,,,,,,,,,,,,,,cover,154,62,aloud,new,null,1242.172027,None,1242.172027,None,1,1.2384774,1242.172027,None,1.2384774,1243.436167,None,1243.94109,None,1243.94109,None,n,0.0057153,1243.94109,None,0.0057153,,,Oct24Aloud1,65,2022_Oct_24_1624,ProdSingRedoBetween,2021.2.3,59.94244332
,,,,62,0,62,0,,,,,,,,,,,,,,,,,,,,,,1247.790659,None,,,,,,,,,,,,,,,,,track,6,63,aloud,old,yellow,1244.491798,None,1244.491798,None,6,2.1668638,1244.491798,None,2.1668638,1246.691289,None,1247.209257,None,1247.209257,None,r,0.5533043,1247.209257,None,0.5533043,,,Oct24Aloud1,65,2022_Oct_24_1624,ProdSingRedoBetween,2021.2.3,59.94244332
,,,,63,0,63,0,,,,,,,,,,,,,,,,,,,,,,1250.499161,None,,,,,,,,,,,,,,,,,research,86,64,aloud,old,red,1248.293976,None,1248.293976,None,6,1.3007694,1248.293976,None,1.3007694,1249.6316,None,1250.148606,None,1250.148606,None,r,0.3178623,1250.148606,None,0.3178623,,,Oct24Aloud1,65,2022_Oct_24_1624,ProdSingRedoBetween,2021.2.3,59.94244332
,,,,64,0,64,0,,,,,,,,,,,,,,,,,,,,,,1253.062597,None,,,,,,,,,,,,,,,,,military,68,65,aloud,old,red,1251.02136,None,1251.02136,None,6,1.2213129,1251.02136,None,1.2213129,1252.261875,None,1252.762416,None,1252.762416,None,r,0.2801524,1252.762416,None,0.2801524,,,Oct24Aloud1,65,2022_Oct_24_1624,ProdSingRedoBetween,2021.2.3,59.94244332
,,,,65,0,65,0,,,,,,,,,,,,,,,,,,,,,,1255.765373,None,,,,,,,,,,,,,,,,,management,170,66,aloud,new,null,1253.573097,None,1253.573097,None,6,1.2694451,1253.573097,None,1.2694451,1254.864196,None,1255.367022,None,1255.367022,None,r,0.3795332,1255.367022,None,0.3795332,,,Oct24Aloud1,65,2022_Oct_24_1624,ProdSingRedoBetween,2021.2.3,59.94244332
,,,,66,0,66,0,,,,,,,,,,,,,,,,,,,,,,1259.702629,None,,,,,,,,,,,,,,,,,income,16,67,aloud,old,yellow,1256.273565,None,1256.273565,None,1,2.7289533,1256.273565,None,2.7289533,1259.019455,None,1259.524509,None,1259.524509,None,n,0.1500089,1259.524509,None,0.1500089,,,Oct24Aloud1,65,2022_Oct_24_1624,ProdSingRedoBetween,2021.2.3,59.94244332
,,,,67,0,67,0,,,,,,,,,,,,,,,,,,,,,,1262.271573,None,,,,,,,,,,,,,,,,,symbol,12,68,aloud,old,yellow,1260.211394,None,1260.211394,None,6,1.1670914,1260.211394,None,1.1670914,1261.405368,None,1261.910461,None,1261.910461,None,r,0.3321531,1261.910461,None,0.3321531,,,Oct24Aloud1,65,2022_Oct_24_1624,ProdSingRedoBetween,2021.2.3,59.94244332
,,,,68,0,68,0,,,,,,,,,,,,,,,,,,,,,,1266.175696,None,,,,,,,,,,,,,,,,,pressure,72,69,aloud,old,red,1262.782645,None,1262.782645,None,2,2.7317935,1262.782645,None,2.7317935,1265.542556,None,1266.044247,None,1266.044247,None,f,0.1103315,1266.044247,None,0.1103315,,,Oct24Aloud1,65,2022_Oct_24_1624,ProdSingRedoBetween,2021.2.3,59.94244332
,,,,69,0,69,0,,,,,,,,,,,,,,,,,,,,,,1270.413222,None,,,,,,,,,,,,,,,,,dozen,77,70,aloud,old,red,1266.679129,None,1266.679129,None,6,2.5553199,1266.679129,None,2.5553199,1269.26313,None,1269.766529,None,1269.766529,None,r,0.6199186,1269.766529,None,0.6199186,,,Oct24Aloud1,65,2022_Oct_24_1624,ProdSingRedoBetween,2021.2.3,59.94244332
,,,,70,0,70,0,,,,,,,,,,,,,,,,,,,,,,1273.849996,None,,,,,,,,,,,,,,,,,scene,143,71,aloud,new,null,1270.913718,None,1270.913718,None,1,2.064732,1270.913718,None,2.064732,1272.999025,None,1273.499724,None,1273.499724,None,n,0.3188354,1273.499724,None,0.3188354,,,Oct24Aloud1,65,2022_Oct_24_1624,ProdSingRedoBetween,2021.2.3,59.94244332
,,,,71,0,71,0,,,,,,,,,,,,,,,,,,,,,,1276.786327,None,,,,,,,,,,,,,,,,,republic,75,72,aloud,old,red,1274.357797,None,1274.357797,None,6,1.4046956,1274.357797,None,1.4046956,1275.78661,None,1276.289141,None,1276.289141,None,r,0.48128,1276.289141,None,0.48128,,,Oct24Aloud1,65,2022_Oct_24_1624,ProdSingRedoBetween,2021.2.3,59.94244332
,,,,72,0,72,0,,,,,,,,,,,,,,,,,,,,,,1280.940355,None,,,,,,,,,,,,,,,,,article,95,73,aloud,new,null,1277.297071,None,1277.297071,None,2,2.1133861,1277.297071,None,2.1133861,1279.439035,None,1279.943784,None,1279.943784,None,f,0.9706596,1279.943784,None,0.9706596,,,Oct24Aloud1,65,2022_Oct_24_1624,ProdSingRedoBetween,2021.2.3,59.94244332
,,,,73,0,73,0,,,,,,,,,,,,,,,,,,,,,,1284.860969,None,,,,,,,,,,,,,,,,,fight,59,74,aloud,old,yellow,1281.450244,None,1281.450244,None,6,2.5842093,1281.450244,None,2.5842093,1284.062118,None,1284.580468,None,1284.580468,None,r,0.2619931,1284.580468,None,0.2619931,,,Oct24Aloud1,65,2022_Oct_24_1624,ProdSingRedoBetween,2021.2.3,59.94244332
,,,,74,0,74,0,,,,,,,,,,,,,,,,,,,,,,1287.599768,None,,,,,,,,,,,,,,,,,angle,165,75,aloud,new,null,1285.361618,None,1285.361618,None,1,1.440807,1285.361618,None,1.440807,1286.829628,None,1287.334167,None,1287.334167,None,n,0.2442897,1287.334167,None,0.2442897,,,Oct24Aloud1,65,2022_Oct_24_1624,ProdSingRedoBetween,2021.2.3,59.94244332
,,,,75,0,75,0,,,,,,,,,,,,,,,,,,,,,,1296.95639,None,,,,,,,,,,,,,,,,,science,70,76,aloud,old,red,1288.118818,None,1288.118818,None,4,5.1636553,1288.118818,None,5.1636553,1293.303935,None,1293.80345,None,1293.80345,None,f,3.1349515,1293.80345,None,3.1349515,,,Oct24Aloud1,65,2022_Oct_24_1624,ProdSingRedoBetween,2021.2.3,59.94244332
,,,,76,0,76,0,,,,,,,,,,,,,,,,,,,,,,1300.109556,None,,,,,,,,,,,,,,,,,recall,10,77,aloud,old,yellow,1297.468873,None,1297.468873,None,1,1.8295134,1297.468873,None,1.8295134,1299.326064,None,1299.826081,None,1299.826081,None,n,0.2644184,1299.826081,None,0.2644184,,,Oct24Aloud1,65,2022_Oct_24_1624,ProdSingRedoBetween,2021.2.3,59.94244332
,,,,77,0,77,0,,,,,,,,,,,,,,,,,,,,,,1303.129088,None,,,,,,,,,,,,,,,,,medicine,61,78,aloud,old,red,1300.620194,None,1300.620194,None,6,1.6543166,1300.620194,None,1.6543166,1302.300376,None,1302.81205,None,1302.81205,None,r,0.2943769,1302.81205,None,0.2943769,,,Oct24Aloud1,65,2022_Oct_24_1624,ProdSingRedoBetween,2021.2.3,59.94244332
,,,,78,0,78,0,,,,,,,,,,,,,,,,,,,,,,1305.381457,None,,,,,,,,,,,,,,,,,brief,71,79,aloud,old,red,1303.629789,None,1303.629789,None,6,0.7726201,1303.629789,None,0.7726201,1304.431471,None,1304.931096,None,1304.931096,None,r,0.4313518,1304.931096,None,0.4313518,,,Oct24Aloud1,65,2022_Oct_24_1624,ProdSingRedoBetween,2021.2.3,59.94244332
,,,,79,0,79,0,,,,,,,,,,,,,,,,,,,,,,1307.550253,None,,,,,,,,,,,,,,,,,strength,69,80,aloud,old,red,1305.892819,None,1305.892819,None,6,0.7895489,1305.892819,None,0.7895489,1306.701068,None,1307.216773,None,1307.216773,None,r,0.3056161,1307.216773,None,0.3056161,,,Oct24Aloud1,65,2022_Oct_24_1624,ProdSingRedoBetween,2021.2.3,59.94244332
,,,,80,0,80,0,,,,,,,,,,,,,,,,,,,,,,1309.702407,None,,,,,,,,,,,,,,,,,vision,60,81,aloud,old,red,1308.063999,None,1308.063999,None,6,0.8105078,1308.063999,None,0.8105078,1308.9094,None,1309.420956,None,1309.420956,None,r,0.2535219,1309.420956,None,0.2535219,,,Oct24Aloud1,65,2022_Oct_24_1624,ProdSingRedoBetween,2021.2.3,59.94244332
,,,,81,0,81,0,,,,,,,,,,,,,,,,,,,,,,1312.738763,None,,,,,,,,,,,,,,,,,member,162,82,aloud,new,null,1310.207361,None,1310.207361,None,6,1.7309838,1310.207361,None,1.7309838,1311.954653,None,1312.457021,None,1312.457021,None,r,0.2653405,1312.457021,None,0.2653405,,,Oct24Aloud1,65,2022_Oct_24_1624,ProdSingRedoBetween,2021.2.3,59.94244332
,,,,82,0,82,0,,,,,,,,,,,,,,,,,,,,,,1315.175207,None,,,,,,,,,,,,,,,,,candidate,83,83,aloud,old,red,1313.249101,None,1313.249101,None,6,1.1052908,1313.249101,None,1.1052908,1314.375624,None,1314.891126,None,1314.891126,None,r,0.2634293,1314.891126,None,0.2634293,,,Oct24Aloud1,65,2022_Oct_24_1624,ProdSingRedoBetween,2021.2.3,59.94244332
,,,,83,0,83,0,,,,,,,,,,,,,,,,,,,,,,1319.178587,None,,,,,,,,,,,,,,,,,narrow,100,84,aloud,new,null,1315.680762,None,1315.680762,None,1,2.7617465,1315.680762,None,2.7617465,1318.470086,None,1318.982652,None,1318.982652,None,n,0.1717864,1318.982652,None,0.1717864,,,Oct24Aloud1,65,2022_Oct_24_1624,ProdSingRedoBetween,2021.2.3,59.94244332
,,,,84,0,84,0,,,,,,,,,,,,,,,,,,,,,,1322.417189,None,,,,,,,,,,,,,,,,,division,125,85,aloud,new,null,1319.682478,None,1319.682478,None,1,1.8720608,1319.682478,None,1.8720608,1321.582256,None,1322.090005,None,1322.090005,None,n,0.3044808,1322.090005,None,0.3044808,,,Oct24Aloud1,65,2022_Oct_24_1624,ProdSingRedoBetween,2021.2.3,59.94244332
,,,,85,0,85,0,,,,,,,,,,,,,,,,,,,,,,1324.950937,None,,,,,,,,,,,,,,,,,charter,15,86,aloud,old,yellow,1322.93418,None,1322.93418,None,6,1.2123189,1322.93418,None,1.2123189,1324.168737,None,1324.686284,None,1324.686284,None,r,0.2441203,1324.686284,None,0.2441203,,,Oct24Aloud1,65,2022_Oct_24_1624,ProdSingRedoBetween,2021.2.3,59.94244332
,,,,86,0,86,0,,,,,,,,,,,,,,,,,,,,,,1328.387821,None,,,,,,,,,,,,,,,,,universal,116,87,aloud,new,null,1325.456535,None,1325.456535,None,1,2.0977655,1325.456535,None,2.0977655,1327.572657,None,1328.087507,None,1328.087507,None,n,0.2749792,1328.087507,None,0.2749792,,,Oct24Aloud1,65,2022_Oct_24_1624,ProdSingRedoBetween,2021.2.3,59.94244332
,,,,87,0,87,0,,,,,,,,,,,,,,,,,,,,,,1331.291148,None,,,,,,,,,,,,,,,,,smell,136,88,aloud,new,null,1328.892577,None,1328.892577,None,1,1.8298439,1328.892577,None,1.8298439,1330.74331,None,1331.257442,None,1331.257442,None,n,0.0170495,1331.257442,None,0.0170495,,,Oct24Aloud1,65,2022_Oct_24_1624,ProdSingRedoBetween,2021.2.3,59.94244332
,,,,88,0,88,0,,,,,,,,,,,,,,,,,,,,,,1333.642828,None,,,,,,,,,,,,,,,,,religion,114,89,aloud,new,null,1331.794334,None,1331.794334,None,1,0.9280598,1331.794334,None,0.9280598,1332.762923,None,1333.275804,None,1333.275804,None,n,0.3506003,1333.275804,None,0.3506003,,,Oct24Aloud1,65,2022_Oct_24_1624,ProdSingRedoBetween,2021.2.3,59.94244332
,,,,89,0,89,0,,,,,,,,,,,,,,,,,,,,,,1336.445834,None,,,,,,,,,,,,,,,,,staff,44,90,aloud,old,blue,1334.155071,None,1334.155071,None,6,1.2952468,1334.155071,None,1.2952468,1335.47902,None,1335.983304,None,1335.983304,None,r,0.4350494,1335.983304,None,0.4350494,,,Oct24Aloud1,65,2022_Oct_24_1624,ProdSingRedoBetween,2021.2.3,59.94244332
,,,,90,0,90,0,,,,,,,,,,,,,,,,,,,,,,1338.787238,None,,,,,,,,,,,,,,,,,sweet,49,91,aloud,old,blue,1336.9523,None,1336.9523,None,6,0.9940237,1336.9523,None,0.9940237,1337.969241,None,1338.487391,None,1338.487391,None,r,0.2752359,1338.487391,None,0.2752359,,,Oct24Aloud1,65,2022_Oct_24_1624,ProdSingRedoBetween,2021.2.3,59.94244332
,,,,91,0,91,0,,,,,,,,,,,,,,,,,,,,,,1341.951265,None,,,,,,,,,,,,,,,,,history,124,92,aloud,new,null,1339.303949,None,1339.303949,None,1,1.8105162,1339.303949,None,1.8105162,1341.141206,None,1341.651067,None,1341.651067,None,n,0.2714011,1341.651067,None,0.2714011,,,Oct24Aloud1,65,2022_Oct_24_1624,ProdSingRedoBetween,2021.2.3,59.94244332
,,,,92,0,92,0,,,,,,,,,,,,,,,,,,,,,,1344.870808,None,,,,,,,,,,,,,,,,,collection,151,93,aloud,new,null,1342.454546,None,1342.454546,None,1,1.7398621,1342.454546,None,1.7398621,1344.224242,None,1344.737502,None,1344.737502,None,n,0.1049408,1344.737502,None,0.1049408,,,Oct24Aloud1,65,2022_Oct_24_1624,ProdSingRedoBetween,2021.2.3,59.94244332
,,,,93,0,93,0,,,,,,,,,,,,,,,,,,,,,,1347.390016,None,,,,,,,,,,,,,,,,,background,137,94,aloud,new,null,1345.385881,None,1345.385881,None,1,1.3204068,1345.385881,None,1.3204068,1346.727018,None,1347.24004,None,1347.24004,None,n,0.1222913,1347.24004,None,0.1222913,,,Oct24Aloud1,65,2022_Oct_24_1624,ProdSingRedoBetween,2021.2.3,59.94244332
,,,,94,0,94,0,,,,,,,,,,,,,,,,,,,,,,1350.175889,None,,,,,,,,,,,,,,,,,course,54,95,aloud,old,blue,1347.900954,None,1347.900954,None,6,1.4534018,1347.900954,None,1.4534018,1349.377268,None,1349.894638,None,1349.894638,None,r,0.2597884,1349.894638,None,0.2597884,,,Oct24Aloud1,65,2022_Oct_24_1624,ProdSingRedoBetween,2021.2.3,59.94244332
,,,,95,0,95,0,,,,,,,,,,,,,,,,,,,,,,1353.696181,None,,,,,,,,,,,,,,,,,engineer,62,96,aloud,old,red,1350.679286,None,1350.679286,None,1,1.6031515,1350.679286,None,1.6031515,1352.316155,None,1352.828866,None,1352.828866,None,n,0.8375471,1352.828866,None,0.8375471,,,Oct24Aloud1,65,2022_Oct_24_1624,ProdSingRedoBetween,2021.2.3,59.94244332
,,,,96,0,96,0,,,,,,,,,,,,,,,,,,,,,,1356.449096,None,,,,,,,,,,,,,,,,,pattern,21,97,aloud,old,yellow,1354.203124,None,1354.203124,None,6,1.2712183,1354.203124,None,1.2712183,1355.49856,None,1356.004419,None,1356.004419,None,r,0.4139032,1356.004419,None,0.4139032,,,Oct24Aloud1,65,2022_Oct_24_1624,ProdSingRedoBetween,2021.2.3,59.94244332
,,,,97,0,97,0,,,,,,,,,,,,,,,,,,,,,,1358.768618,None,,,,,,,,,,,,,,,,,crime,126,98,aloud,new,null,1356.958953,None,1356.958953,None,1,1.2354199,1356.958953,None,1.2354199,1358.219347,None,1358.73855,None,1358.73855,None,n,0.0077994,1358.73855,None,0.0077994,,,Oct24Aloud1,65,2022_Oct_24_1624,ProdSingRedoBetween,2021.2.3,59.94244332
,,,,98,0,98,0,,,,,,,,,,,,,,,,,,,,,,1361.07232,None,,,,,,,,,,,,,,,,,sound,64,99,aloud,old,red,1359.271116,None,1359.271116,None,6,1.1312833,1359.271116,None,1.1312833,1360.422351,None,1360.941478,None,1360.941478,None,r,0.1089078,1360.941478,None,0.1089078,,,Oct24Aloud1,65,2022_Oct_24_1624,ProdSingRedoBetween,2021.2.3,59.94244332
,,,,99,0,99,0,,,,,,,,,,,,,,,,,,,,,,1363.173957,None,,,,,,,,,,,,,,,,,harmony,46,100,aloud,old,blue,1361.587805,None,1361.587805,None,6,0.7105469,1361.587805,None,0.7105469,1362.324873,None,1362.838824,None,1362.838824,None,r,0.3155509,1362.838824,None,0.3155509,,,Oct24Aloud1,65,2022_Oct_24_1624,ProdSingRedoBetween,2021.2.3,59.94244332
,,,,100,0,100,0,,,,,,,,,,,,,,,,,,,,,,1366.025278,None,,,,,,,,,,,,,,,,,question,34,101,aloud,old,blue,1363.672866,None,1363.672866,None,6,1.4494735,1363.672866,None,1.4494735,1365.142692,None,1365.658318,None,1365.658318,None,r,0.3520141,1365.658318,None,0.3520141,,,Oct24Aloud1,65,2022_Oct_24_1624,ProdSingRedoBetween,2021.2.3,59.94244332
,,,,101,0,101,0,,,,,,,,,,,,,,,,,,,,,,1368.780944,None,,,,,,,,,,,,,,,,,rapid,147,102,aloud,new,null,1366.533532,None,1366.533532,None,1,1.3727922,1366.533532,None,1.3727922,1367.928331,None,1368.431803,None,1368.431803,None,n,0.3147021,1368.431803,None,0.3147021,,,Oct24Aloud1,65,2022_Oct_24_1624,ProdSingRedoBetween,2021.2.3,59.94244332
,,,,102,0,102,0,,,,,,,,,,,,,,,,,,,,,,1371.280576,None,,,,,,,,,,,,,,,,,beauty,178,103,aloud,new,null,1369.30131,None,1369.30131,None,6,1.3009622,1369.30131,None,1.3009622,1370.630737,None,1371.130155,None,1371.130155,None,r,0.1200569,1371.130155,None,0.1200569,,,Oct24Aloud1,65,2022_Oct_24_1624,ProdSingRedoBetween,2021.2.3,59.94244332
,,,,103,0,103,0,,,,,,,,,,,,,,,,,,,,,,1375.234285,None,,,,,,,,,,,,,,,,,generation,152,104,aloud,new,null,1371.789202,None,1371.789202,None,6,2.5651551,1371.789202,None,2.5651551,1374.386482,None,1374.903635,None,1374.903635,None,r,0.3067792,1374.903635,None,0.3067792,,,Oct24Aloud1,65,2022_Oct_24_1624,ProdSingRedoBetween,2021.2.3,59.94244332
,,,,104,0,104,0,,,,,,,,,,,,,,,,,,,,,,1377.536759,None,,,,,,,,,,,,,,,,,smooth,28,105,aloud,old,yellow,1375.739078,None,1375.739078,None,6,0.9592392,1375.739078,None,0.9592392,1376.722274,None,1377.236591,None,1377.236591,None,r,0.2776791,1377.236591,None,0.2776791,,,Oct24Aloud1,65,2022_Oct_24_1624,ProdSingRedoBetween,2021.2.3,59.94244332
,,,,105,0,105,0,,,,,,,,,,,,,,,,,,,,,,1381.256999,None,,,,,,,,,,,,,,,,,department,169,106,aloud,new,null,1378.05036,None,1378.05036,None,1,1.3439402,1378.05036,None,1.3439402,1379.426312,None,1379.942462,None,1379.942462,None,n,1.2997152,1379.942462,None,1.2997152,,,Oct24Aloud1,65,2022_Oct_24_1624,ProdSingRedoBetween,2021.2.3,59.94244332
,,,,106,0,106,0,,,,,,,,,,,,,,,,,,,,,,1384.145945,None,,,,,,,,,,,,,,,,,distance,24,107,aloud,old,yellow,1381.761772,None,1381.761772,None,1,1.5765383,1381.761772,None,1.5765383,1383.360653,None,1383.868801,None,1383.868801,None,n,0.2535232,1383.868801,None,0.2535232,,,Oct24Aloud1,65,2022_Oct_24_1624,ProdSingRedoBetween,2021.2.3,59.94244332
,,,,107,0,107,0,,,,,,,,,,,,,,,,,,,,,,1391.500629,None,,,,,,,,,,,,,,,,,trial,90,108,aloud,new,null,1384.670638,None,1384.670638,None,6,5.947639,1384.670638,None,5.947639,1390.63298,None,1391.133952,None,1391.133952,None,r,0.3485411,1391.133952,None,0.3485411,,,Oct24Aloud1,65,2022_Oct_24_1624,ProdSingRedoBetween,2021.2.3,59.94244332
,,,,108,0,108,0,,,,,,,,,,,,,,,,,,,,,,1394.370292,None,,,,,,,,,,,,,,,,,travel,149,109,aloud,new,null,1392.009045,None,1392.009045,None,1,1.6893608,1392.009045,None,1.6893608,1393.720461,None,1394.227298,None,1394.227298,None,n,0.1189562,1394.227298,None,0.1189562,,,Oct24Aloud1,65,2022_Oct_24_1624,ProdSingRedoBetween,2021.2.3,59.94244332
,,,,109,0,109,0,,,,,,,,,,,,,,,,,,,,,,1396.922741,None,,,,,,,,,,,,,,,,,grade,132,110,aloud,new,null,1394.877741,None,1394.877741,None,1,1.228508,1394.877741,None,1.228508,1396.12175,None,1396.62391,None,1396.62391,None,n,0.282445,1396.62391,None,0.282445,,,Oct24Aloud1,65,2022_Oct_24_1624,ProdSingRedoBetween,2021.2.3,59.94244332
,,,,110,0,110,0,,,,,,,,,,,,,,,,,,,,,,1399.992457,None,,,,,,,,,,,,,,,,,testimony,52,111,aloud,old,blue,1397.437077,None,1397.437077,None,6,1.4611753,1397.437077,None,1.4611753,1398.927928,None,1399.442073,None,1399.442073,None,r,0.5202259,1399.442073,None,0.5202259,,,Oct24Aloud1,65,2022_Oct_24_1624,ProdSingRedoBetween,2021.2.3,59.94244332
,,,,111,0,111,0,,,,,,,,,,,,,,,,,,,,,,1402.378163,None,,,,,,,,,,,,,,,,,finance,18,112,aloud,old,yellow,1400.492942,None,1400.492942,None,6,0.9492495,1400.492942,None,0.9492495,1401.461732,None,1401.965597,None,1401.965597,None,r,0.3886789,1401.965597,None,0.3886789,,,Oct24Aloud1,65,2022_Oct_24_1624,ProdSingRedoBetween,2021.2.3,59.94244332
,,,,112,0,112,0,,,,,,,,,,,,,,,,,,,,,,1404.64712,None,,,,,,,,,,,,,,,,,individual,150,113,aloud,new,null,1402.887163,None,1402.887163,None,6,1.0430654,1402.887163,None,1.0430654,1403.947629,None,1404.447425,None,1404.447425,None,r,0.1708411,1404.447425,None,0.1708411,,,Oct24Aloud1,65,2022_Oct_24_1624,ProdSingRedoBetween,2021.2.3,59.94244332
,,,,113,0,113,0,,,,,,,,,,,,,,,,,,,,,,1406.515431,None,,,,,,,,,,,,,,,,,dream,26,114,aloud,old,yellow,1405.157379,None,1405.157379,None,6,0.6689077,1405.157379,None,0.6689077,1405.849703,None,1406.351578,None,1406.351578,None,r,0.1466748,1406.351578,None,0.1466748,,,Oct24Aloud1,65,2022_Oct_24_1624,ProdSingRedoBetween,2021.2.3,59.94244332
,,,,114,0,114,0,,,,,,,,,,,,,,,,,,,,,,1409.935687,None,,,,,,,,,,,,,,,,,light,30,115,aloud,old,blue,1407.016527,None,1407.016527,None,1,1.3218094,1407.016527,None,1.3218094,1408.381646,None,1408.88523,None,1408.88523,None,n,1.0210588,1408.88523,None,1.0210588,,,Oct24Aloud1,65,2022_Oct_24_1624,ProdSingRedoBetween,2021.2.3,59.94244332
,,,,115,0,115,0,,,,,,,,,,,,,,,,,,,,,,1412.129235,None,,,,,,,,,,,,,,,,,household,144,116,aloud,new,null,1410.4364,None,1410.4364,None,1,0.8298608,1410.4364,None,0.8298608,1411.28826,None,1411.792273,None,1411.792273,None,n,0.2982753,1411.792273,None,0.2982753,,,Oct24Aloud1,65,2022_Oct_24_1624,ProdSingRedoBetween,2021.2.3,59.94244332
,,,,116,0,116,0,,,,,,,,,,,,,,,,,,,,,,1414.640408,None,,,,,,,,,,,,,,,,,corner,93,117,aloud,new,null,1412.645924,None,1412.645924,None,1,1.1403217,1412.645924,None,1.1403217,1413.806288,None,1414.306925,None,1414.306925,None,n,0.3113264,1414.306925,None,0.3113264,,,Oct24Aloud1,65,2022_Oct_24_1624,ProdSingRedoBetween,2021.2.3,59.94244332
,,,,117,0,117,0,,,,,,,,,,,,,,,,,,,,,,1416.742569,None,,,,,,,,,,,,,,,,,skill,35,118,aloud,old,blue,1415.152233,None,1415.152233,None,1,0.7140315,1415.152233,None,0.7140315,1415.896857,None,1416.423236,None,1416.423236,None,n,0.2909792,1416.423236,None,0.2909792,,,Oct24Aloud1,65,2022_Oct_24_1624,ProdSingRedoBetween,2021.2.3,59.94244332
,,,,118,0,118,0,,,,,,,,,,,,,,,,,,,,,,1418.727851,None,,,,,,,,,,,,,,,,,clear,117,119,aloud,new,null,1417.2594,None,1417.2594,None,1,0.638914,1417.2594,None,0.638914,1417.93139,None,1418.444374,None,1418.444374,None,n,0.2538655,1418.444374,None,0.2538655,,,Oct24Aloud1,65,2022_Oct_24_1624,ProdSingRedoBetween,2021.2.3,59.94244332
,,,,119,0,119,0,,,,,,,,,,,,,,,,,,,,,,1423.282106,None,,,,,,,,,,,,,,,,,relation,79,120,aloud,old,red,1419.236947,None,1419.236947,None,6,3.1333676,1419.236947,None,3.1333676,1422.4026,None,1422.915207,None,1422.915207,None,r,0.3429224,1422.915207,None,0.3429224,,,Oct24Aloud1,65,2022_Oct_24_1624,ProdSingRedoBetween,2021.2.3,59.94244332
,,,,120,0,120,0,,,,,,,,,,,,,,,,,,,,,,1426.185233,None,,,,,,,,,,,,,,,,,defeat,135,121,aloud,new,null,1423.790162,None,1423.790162,None,1,1.4520707,1423.790162,None,1.4520707,1425.269779,None,1425.787915,None,1425.787915,None,n,0.382418,1425.787915,None,0.382418,,,Oct24Aloud1,65,2022_Oct_24_1624,ProdSingRedoBetween,2021.2.3,59.94244332
,,,,121,0,121,0,,,,,,,,,,,,,,,,,,,,,,1428.354049,None,,,,,,,,,,,,,,,,,shock,108,122,aloud,new,null,1426.68997,None,1426.68997,None,1,0.768328,1426.68997,None,0.768328,1427.491444,None,1428.003833,None,1428.003833,None,n,0.3265089,1428.003833,None,0.3265089,,,Oct24Aloud1,65,2022_Oct_24_1624,ProdSingRedoBetween,2021.2.3,59.94244332
,,,,122,0,122,0,,,,,,,,,,,,,,,,,,,,,,1431.008905,None,,,,,,,,,,,,,,,,,music,80,123,aloud,old,red,1428.865648,None,1428.865648,None,6,1.2965764,1428.865648,None,1.2965764,1430.192578,None,1430.706536,None,1430.706536,None,r,0.2717824,1430.706536,None,0.2717824,,,Oct24Aloud1,65,2022_Oct_24_1624,ProdSingRedoBetween,2021.2.3,59.94244332
,,,,123,0,123,0,,,,,,,,,,,,,,,,,,,,,,1433.809451,None,,,,,,,,,,,,,,,,,addition,130,124,aloud,new,null,1431.524095,None,1431.524095,None,1,1.3421338,1431.524095,None,1.3421338,1432.891721,None,1433.392535,None,1433.392535,None,n,0.3937252,1433.392535,None,0.3937252,,,Oct24Aloud1,65,2022_Oct_24_1624,ProdSingRedoBetween,2021.2.3,59.94244332
,,,,124,0,124,0,,,,,,,,,,,,,,,,,,,,,,1436.59563,None,,,,,,,,,,,,,,,,,majority,76,125,aloud,old,red,1434.320683,None,1434.320683,None,6,1.5535783,1434.320683,None,1.5535783,1435.899278,None,1436.416773,None,1436.416773,None,r,0.1614119,1436.416773,None,0.1614119,,,Oct24Aloud1,65,2022_Oct_24_1624,ProdSingRedoBetween,2021.2.3,59.94244332
,,,,125,0,125,0,,,,,,,,,,,,,,,,,,,,,,1438.78108,None,,,,,,,,,,,,,,,,,signal,45,126,aloud,old,blue,1437.108162,None,1437.108162,None,6,0.8779968,1437.108162,None,0.8779968,1438.016447,None,1438.534699,None,1438.534699,None,r,0.2275414,1438.534699,None,0.2275414,,,Oct24Aloud1,65,2022_Oct_24_1624,ProdSingRedoBetween,2021.2.3,59.94244332
,,,,126,0,126,0,,,,,,,,,,,,,,,,,,,,,,1441.116767,None,,,,,,,,,,,,,,,,,surface,96,127,aloud,new,null,1439.289891,None,1439.289891,None,1,1.1763206,1439.289891,None,1.1763206,1440.484297,None,1440.98869,None,1440.98869,None,n,0.1014177,1440.98869,None,0.1014177,,,Oct24Aloud1,65,2022_Oct_24_1624,ProdSingRedoBetween,2021.2.3,59.94244332
,,,,127,0,127,0,,,,,,,,,,,,,,,,,,,,,,1445.304311,None,,,,,,,,,,,,,,,,,sleep,32,128,aloud,old,blue,1441.624187,None,1441.624187,None,6,2.1219501,1441.624187,None,2.1219501,1443.771472,None,1444.286617,None,1444.286617,None,r,0.987774,1444.286617,None,0.987774,,,Oct24Aloud1,65,2022_Oct_24_1624,ProdSingRedoBetween,2021.2.3,59.94244332
,,,,128,0,128,0,,,,,,,,,,,,,,,,,,,,,,1448.524154,None,,,,,,,,,,,,,,,,,answer,3,129,aloud,old,yellow,1445.815044,None,1445.815044,None,1,1.9631478,1445.815044,None,1.9631478,1447.807846,None,1448.312693,None,1448.312693,None,n,0.1934108,1448.312693,None,0.1934108,,,Oct24Aloud1,65,2022_Oct_24_1624,ProdSingRedoBetween,2021.2.3,59.94244332
,,,,129,0,129,0,,,,,,,,,,,,,,,,,,,,,,1450.659664,None,,,,,,,,,,,,,,,,,front,121,130,aloud,new,null,1449.033013,None,1449.033013,None,1,0.8814152,1449.033013,None,0.8814152,1449.947941,None,1450.459583,None,1450.459583,None,n,0.1745648,1450.459583,None,0.1745648,,,Oct24Aloud1,65,2022_Oct_24_1624,ProdSingRedoBetween,2021.2.3,59.94244332
,,,,130,0,130,0,,,,,,,,,,,,,,,,,,,,,,1455.38106,None,,,,,,,,,,,,,,,,,rural,39,131,aloud,old,blue,1451.161436,None,1451.161436,None,6,3.4006952,1451.161436,None,3.4006952,1454.581717,None,1455.081502,None,1455.081502,None,r,0.2726232,1455.081502,None,0.2726232,,,Oct24Aloud1,65,2022_Oct_24_1624,ProdSingRedoBetween,2021.2.3,59.94244332
,,,,131,0,131,0,,,,,,,,,,,,,,,,,,,,,,1457.4664,None,,,,,,,,,,,,,,,,,height,23,132,aloud,old,yellow,1455.88304,None,1455.88304,None,6,0.815176,1455.88304,None,0.815176,1456.719912,None,1457.233045,None,1457.233045,None,r,0.2093444,1457.233045,None,0.2093444,,,Oct24Aloud1,65,2022_Oct_24_1624,ProdSingRedoBetween,2021.2.3,59.94244332
,,,,132,0,132,0,,,,,,,,,,,,,,,,,,,,,,1460.552621,None,,,,,,,,,,,,,,,,,platform,118,133,aloud,new,null,1457.980002,None,1457.980002,None,1,1.934162,1457.980002,None,1.934162,1459.936916,None,1460.436194,None,1460.436194,None,n,0.0940088,1460.436194,None,0.0940088,,,Oct24Aloud1,65,2022_Oct_24_1624,ProdSingRedoBetween,2021.2.3,59.94244332
,,,,133,0,133,0,,,,,,,,,,,,,,,,,,,,,,1462.938359,None,,,,,,,,,,,,,,,,,alert,85,134,aloud,old,red,1461.054838,None,1461.054838,None,6,1.1552886,1461.054838,None,1.1552886,1462.237848,None,1462.744491,None,1462.744491,None,r,0.1696845,1462.744491,None,0.1696845,,,Oct24Aloud1,65,2022_Oct_24_1624,ProdSingRedoBetween,2021.2.3,59.94244332
,,,,134,0,134,0,,,,,,,,,,,,,,,,,,,,,,1465.076605,None,,,,,,,,,,,,,,,,,employment,74,135,aloud,old,red,1463.446579,None,1463.446579,None,6,0.7956673,1463.446579,None,0.7956673,1464.279403,None,1464.793956,None,1464.793956,None,r,0.2643155,1464.793956,None,0.2643155,,,Oct24Aloud1,65,2022_Oct_24_1624,ProdSingRedoBetween,2021.2.3,59.94244332
,,,,135,0,135,0,,,,,,,,,,,,,,,,,,,,,,1467.063121,None,,,,,,,,,,,,,,,,,voice,19,136,aloud,old,yellow,1465.597383,None,1465.597383,None,6,0.6527546,1465.597383,None,0.6527546,1466.278106,None,1466.793054,None,1466.793054,None,r,0.2493219,1466.793054,None,0.2493219,,,Oct24Aloud1,65,2022_Oct_24_1624,ProdSingRedoBetween,2021.2.3,59.94244332
,,,,136,0,136,0,,,,,,,,,,,,,,,,,,,,,,1468.994592,None,,,,,,,,,,,,,,,,,point,27,137,aloud,old,yellow,1467.576873,None,1467.576873,None,6,0.6332454,1467.576873,None,0.6332454,1468.238203,None,1468.744469,None,1468.744469,None,r,0.2336444,1468.744469,None,0.2336444,,,Oct24Aloud1,65,2022_Oct_24_1624,ProdSingRedoBetween,2021.2.3,59.94244332
,,,,137,0,137,0,,,,,,,,,,,,,,,,,,,,,,1471.747362,None,,,,,,,,,,,,,,,,,welcome,159,138,aloud,new,null,1469.504959,None,1469.504959,None,1,1.169218,1469.504959,None,1.169218,1470.699732,None,1471.213631,None,1471.213631,None,n,0.5165002,1471.213631,None,0.5165002,,,Oct24Aloud1,65,2022_Oct_24_1624,ProdSingRedoBetween,2021.2.3,59.94244332
,,,,138,0,138,0,,,,,,,,,,,,,,,,,,,,,,1475.017291,None,,,,,,,,,,,,,,,,,scale,94,139,aloud,new,null,1472.256162,None,1472.256162,None,1,1.881892,1472.256162,None,1.881892,1474.16819,None,1474.683565,None,1474.683565,None,n,0.3105562,1474.683565,None,0.3105562,,,Oct24Aloud1,65,2022_Oct_24_1624,ProdSingRedoBetween,2021.2.3,59.94244332
,,,,139,0,139,0,,,,,,,,,,,,,,,,,,,,,,1477.369629,None,,,,,,,,,,,,,,,,,cousin,36,140,aloud,old,blue,1475.525622,None,1475.525622,None,6,1.2205055,1475.525622,None,1.2205055,1476.772089,None,1477.290779,None,1477.290779,None,r,0.0633394,1477.290779,None,0.0633394,,,Oct24Aloud1,65,2022_Oct_24_1624,ProdSingRedoBetween,2021.2.3,59.94244332
,,,,140,0,140,0,,,,,,,,,,,,,,,,,,,,,,1482.608191,None,,,,,,,,,,,,,,,,,period,104,141,aloud,new,null,1477.873323,None,1477.873323,None,1,3.4407674,1477.873323,None,3.4407674,1481.343679,None,1481.861076,None,1481.861076,None,n,0.717116,1481.861076,None,0.717116,,,Oct24Aloud1,65,2022_Oct_24_1624,ProdSingRedoBetween,2021.2.3,59.94244332
,,,,141,0,141,0,,,,,,,,,,,,,,,,,,,,,,1485.444311,None,,,,,,,,,,,,,,,,,month,20,142,aloud,old,yellow,1483.109036,None,1483.109036,None,6,1.3650658,1483.109036,None,1.3650658,1484.494331,None,1484.999619,None,1484.999619,None,r,0.4264002,1484.999619,None,0.4264002,,,Oct24Aloud1,65,2022_Oct_24_1624,ProdSingRedoBetween,2021.2.3,59.94244332
,,,,142,0,142,0,,,,,,,,,,,,,,,,,,,,,,1488.1971,None,,,,,,,,,,,,,,,,,benefit,122,143,aloud,new,null,1485.952948,None,1485.952948,None,1,1.4331303,1485.952948,None,1.4331303,1487.414427,None,1487.913527,None,1487.913527,None,n,0.2565534,1487.913527,None,0.2565534,,,Oct24Aloud1,65,2022_Oct_24_1624,ProdSingRedoBetween,2021.2.3,59.94244332
,,,,143,0,143,0,,,,,,,,,,,,,,,,,,,,,,1490.649511,None,,,,,,,,,,,,,,,,,treatment,43,144,aloud,old,blue,1488.700136,None,1488.700136,None,6,1.2220927,1488.700136,None,1.2220927,1489.957463,None,1490.466176,None,1490.466176,None,r,0.1599504,1490.466176,None,0.1599504,,,Oct24Aloud1,65,2022_Oct_24_1624,ProdSingRedoBetween,2021.2.3,59.94244332
,,,,144,0,144,0,,,,,,,,,,,,,,,,,,,,,,1494.269819,None,,,,,,,,,,,,,,,,,attack,2,145,aloud,old,yellow,1491.15178,None,1491.15178,None,1,2.5306888,1491.15178,None,2.5306888,1493.71611,None,1494.21989,None,1494.21989,None,n,0.0222136,1494.21989,None,0.0222136,,,Oct24Aloud1,65,2022_Oct_24_1624,ProdSingRedoBetween,2021.2.3,59.94244332
,,,,145,0,145,0,,,,,,,,,,,,,,,,,,,,,,1496.922471,None,,,,,,,,,,,,,,,,,gesture,131,146,aloud,new,null,1494.772023,None,1494.772023,None,1,1.3820621,1494.772023,None,1.3820621,1496.179266,None,1496.688758,None,1496.688758,None,n,0.2173757,1496.688758,None,0.2173757,,,Oct24Aloud1,65,2022_Oct_24_1624,ProdSingRedoBetween,2021.2.3,59.94244332
,,,,146,0,146,0,,,,,,,,,,,,,,,,,,,,,,1498.90775,None,,,,,,,,,,,,,,,,,crowd,106,147,aloud,new,null,1497.434426,None,1497.434426,None,1,0.7116389,1497.434426,None,0.7116389,1498.174587,None,1498.679798,None,1498.679798,None,n,0.2023015,1498.679798,None,0.2023015,,,Oct24Aloud1,65,2022_Oct_24_1624,ProdSingRedoBetween,2021.2.3,59.94244332
,,,,147,0,147,0,,,,,,,,,,,,,,,,,,,,,,1502.678323,None,,,,,,,,,,,,,,,,,series,115,148,aloud,new,null,1499.41561,None,1499.41561,None,1,2.3624737,1499.41561,None,2.3624737,1501.79535,None,1502.300641,None,1502.300641,None,n,0.3576351,1502.300641,None,0.3576351,,,Oct24Aloud1,65,2022_Oct_24_1624,ProdSingRedoBetween,2021.2.3,59.94244332
,,,,148,0,148,0,,,,,,,,,,,,,,,,,,,,,,1506.932445,None,,,,,,,,,,,,,,,,,review,40,149,aloud,old,blue,1503.193065,None,1503.193065,None,1,0.6410353,1503.193065,None,0.6410353,1503.86408,None,1504.368887,None,1504.368887,None,f,2.5451261,1504.368887,None,2.5451261,,,Oct24Aloud1,65,2022_Oct_24_1624,ProdSingRedoBetween,2021.2.3,59.94244332
,,,,149,0,149,0,,,,,,,,,,,,,,,,,,,,,,1513.572399,None,,,,,,,,,,,,,,,,,listen,129,150,aloud,new,null,1507.440645,None,1507.440645,None,4,4.5454646,1507.440645,None,4.5454646,1512.009276,None,1512.522206,None,1512.522206,None,f,1.0239013,1512.522206,None,1.0239013,,,Oct24Aloud1,65,2022_Oct_24_1624,ProdSingRedoBetween,2021.2.3,59.94244332
,,,,150,0,150,0,,,,,,,,,,,,,,,,,,,,,,1516.960618,None,,,,,,,,,,,,,,,,,rough,82,151,aloud,old,red,1514.07904,None,1514.07904,None,1,1.9629702,1514.07904,None,1.9629702,1516.061522,None,1516.581558,None,1516.581558,None,n,0.356567,1516.581558,None,0.356567,,,Oct24Aloud1,65,2022_Oct_24_1624,ProdSingRedoBetween,2021.2.3,59.94244332
,,,,151,0,151,0,,,,,,,,,,,,,,,,,,,,,,1520.31254,None,,,,,,,,,,,,,,,,,trail,14,152,aloud,old,yellow,1517.479868,None,1517.479868,None,6,1.9701769,1517.479868,None,1.9701769,1519.478079,None,1519.982889,None,1519.982889,None,r,0.2992274,1519.982889,None,0.2992274,,,Oct24Aloud1,65,2022_Oct_24_1624,ProdSingRedoBetween,2021.2.3,59.94244332
,,,,152,0,152,0,,,,,,,,,,,,,,,,,,,,,,1522.665762,None,,,,,,,,,,,,,,,,,threat,174,153,aloud,new,null,1520.815762,None,1520.815762,None,1,1.250307,1520.815762,None,1.250307,1522.083596,None,1522.599662,None,1522.599662,None,n,0.050434,1522.599662,None,0.050434,,,Oct24Aloud1,65,2022_Oct_24_1624,ProdSingRedoBetween,2021.2.3,59.94244332
,,,,153,0,153,0,,,,,,,,,,,,,,,,,,,,,,1525.217383,None,,,,,,,,,,,,,,,,,suspect,107,154,aloud,new,null,1523.168201,None,1523.168201,None,1,1.1778638,1523.168201,None,1.1778638,1524.367848,None,1524.876944,None,1524.876944,None,n,0.3091339,1524.876944,None,0.3091339,,,Oct24Aloud1,65,2022_Oct_24_1624,ProdSingRedoBetween,2021.2.3,59.94244332
,,,,154,0,154,0,,,,,,,,,,,,,,,,,,,,,,1528.439778,None,,,,,,,,,,,,,,,,,comfort,48,155,aloud,old,blue,1525.730611,None,1525.730611,None,6,2.0314908,1525.730611,None,2.0314908,1527.791688,None,1528.305282,None,1528.305282,None,r,0.1047971,1528.305282,None,0.1047971,,,Oct24Aloud1,65,2022_Oct_24_1624,ProdSingRedoBetween,2021.2.3,59.94244332
,,,,155,0,155,0,,,,,,,,,,,,,,,,,,,,,,1530.578112,None,,,,,,,,,,,,,,,,,error,7,156,aloud,old,yellow,1528.955062,None,1528.955062,None,6,0.7749074,1528.955062,None,0.7749074,1529.755264,None,1530.266553,None,1530.266553,None,r,0.2875085,1530.266553,None,0.2875085,,,Oct24Aloud1,65,2022_Oct_24_1624,ProdSingRedoBetween,2021.2.3,59.94244332
,,,,156,0,156,0,,,,,,,,,,,,,,,,,,,,,,1532.79138,None,,,,,,,,,,,,,,,,,spoke,5,157,aloud,old,yellow,1531.110713,None,1531.110713,None,6,0.8193069,1531.110713,None,0.8193069,1531.962405,None,1532.474649,None,1532.474649,None,r,0.2954049,1532.474649,None,0.2954049,,,Oct24Aloud1,65,2022_Oct_24_1624,ProdSingRedoBetween,2021.2.3,59.94244332
,,,,157,0,157,0,,,,,,,,,,,,,,,,,,,,,,1535.310747,None,,,,,,,,,,,,,,,,,group,109,158,aloud,new,null,1533.302526,None,1533.302526,None,1,1.4195258,1533.302526,None,1.4195258,1534.743959,None,1535.244152,None,1535.244152,None,n,0.0380018,1535.244152,None,0.0380018,,,Oct24Aloud1,65,2022_Oct_24_1624,ProdSingRedoBetween,2021.2.3,59.94244332
,,,,158,0,158,0,,,,,,,,,,,,,,,,,,,,,,1539.131276,None,,,,,,,,,,,,,,,,,account,56,159,aloud,old,blue,1535.815393,None,1535.815393,None,6,2.5305758,1535.815393,None,2.5305758,1538.364838,None,1538.864523,None,1538.864523,None,r,0.2494979,1538.864523,None,0.2494979,,,Oct24Aloud1,65,2022_Oct_24_1624,ProdSingRedoBetween,2021.2.3,59.94244332
,,,,159,0,159,0,,,,,,,,,,,,,,,,,,,,,,1541.217151,None,,,,,,,,,,,,,,,,,trend,22,160,aloud,old,yellow,1539.637549,None,1539.637549,None,6,0.7485589,1539.637549,None,0.7485589,1540.416501,None,1540.916455,None,1540.916455,None,r,0.2696367,1540.916455,None,0.2696367,,,Oct24Aloud1,65,2022_Oct_24_1624,ProdSingRedoBetween,2021.2.3,59.94244332
,,,,160,0,160,0,,,,,,,,,,,,,,,,,,,,,,1544.319732,None,,,,,,,,,,,,,,,,,judge,53,161,aloud,old,blue,1541.71819,None,1541.71819,None,6,1.8757898,1541.71819,None,1.8757898,1543.620979,None,1544.14071,None,1544.14071,None,r,0.1493128,1544.14071,None,0.1493128,,,Oct24Aloud1,65,2022_Oct_24_1624,ProdSingRedoBetween,2021.2.3,59.94244332
,,,,161,0,161,0,,,,,,,,,,,,,,,,,,,,,,1547.307468,None,,,,,,,,,,,,,,,,,youth,163,162,aloud,new,null,1544.82466,None,1544.82466,None,1,1.4895309,1544.82466,None,1.4895309,1546.339094,None,1546.839007,None,1546.839007,None,n,0.4432294,1546.839007,None,0.4432294,,,Oct24Aloud1,65,2022_Oct_24_1624,ProdSingRedoBetween,2021.2.3,59.94244332
,,,,162,0,162,0,,,,,,,,,,,,,,,,,,,,,,1550.509054,None,,,,,,,,,,,,,,,,,agreement,145,163,aloud,new,null,1547.810583,None,1547.810583,None,6,1.9834859,1547.810583,None,1.9834859,1549.831212,None,1550.343992,None,1550.343992,None,r,0.1460149,1550.343992,None,0.1460149,,,Oct24Aloud1,65,2022_Oct_24_1624,ProdSingRedoBetween,2021.2.3,59.94244332
,,,,163,0,163,0,,,,,,,,,,,,,,,,,,,,,,1554.248535,None,,,,,,,,,,,,,,,,,committee,91,164,aloud,new,null,1551.025328,None,1551.025328,None,1,2.5687304,1551.025328,None,2.5687304,1553.617801,None,1554.130187,None,1554.130187,None,n,0.0958894,1554.130187,None,0.0958894,,,Oct24Aloud1,65,2022_Oct_24_1624,ProdSingRedoBetween,2021.2.3,59.94244332
,,,,164,0,164,0,,,,,,,,,,,,,,,,,,,,,,1556.848885,None,,,,,,,,,,,,,,,,,estate,101,165,aloud,new,null,1554.763813,None,1554.763813,None,1,1.2541087,1554.763813,None,1.2541087,1556.048365,None,1556.549522,None,1556.549522,None,n,0.2766671,1556.549522,None,0.2766671,,,Oct24Aloud1,65,2022_Oct_24_1624,ProdSingRedoBetween,2021.2.3,59.94244332
,,,,165,0,165,0,,,,,,,,,,,,,,,,,,,,,,1559.618368,None,,,,,,,,,,,,,,,,,prime,55,166,aloud,old,blue,1557.360445,None,1557.360445,None,1,1.4734904,1557.360445,None,1.4734904,1558.85193,None,1559.355671,None,1559.355671,None,n,0.2463107,1559.355671,None,0.2463107,,,Oct24Aloud1,65,2022_Oct_24_1624,ProdSingRedoBetween,2021.2.3,59.94244332
,,,,166,0,166,0,,,,,,,,,,,,,,,,,,,,,,1564.025297,None,,,,,,,,,,,,,,,,,revolution,57,167,aloud,old,blue,1560.128154,None,1560.128154,None,6,2.0657859,1560.128154,None,2.0657859,1562.222,None,1562.72158,None,1562.72158,None,r,1.2804674,1562.72158,None,1.2804674,,,Oct24Aloud1,65,2022_Oct_24_1624,ProdSingRedoBetween,2021.2.3,59.94244332
,,,,167,0,167,0,,,,,,,,,,,,,,,,,,,,,,1566.141565,None,,,,,,,,,,,,,,,,,session,78,168,aloud,old,red,1564.548753,None,1564.548753,None,6,0.7491491,1564.548753,None,0.7491491,1565.327211,None,1565.846327,None,1565.846327,None,r,0.2675609,1565.846327,None,0.2675609,,,Oct24Aloud1,65,2022_Oct_24_1624,ProdSingRedoBetween,2021.2.3,59.94244332
,,,,168,0,168,0,,,,,,,,,,,,,,,,,,,,,,1570.329076,None,,,,,,,,,,,,,,,,,plane,119,169,aloud,new,null,1566.643703,None,1566.643703,None,1,3.0462929,1566.643703,None,3.0462929,1569.718091,None,1570.228972,None,1570.228972,None,n,0.0850402,1570.228972,None,0.0850402,,,Oct24Aloud1,65,2022_Oct_24_1624,ProdSingRedoBetween,2021.2.3,59.94244332
,,,,169,0,169,0,,,,,,,,,,,,,,,,,,,,,,1572.998475,None,,,,,,,,,,,,,,,,,health,13,170,aloud,old,yellow,1570.837703,None,1570.837703,None,1,1.396301,1570.837703,None,1.396301,1572.264374,None,1572.767074,None,1572.767074,None,n,0.2108099,1572.767074,None,0.2108099,,,Oct24Aloud1,65,2022_Oct_24_1624,ProdSingRedoBetween,2021.2.3,59.94244332
,,,,170,0,170,0,,,,,,,,,,,,,,,,,,,,,,1575.734384,None,,,,,,,,,,,,,,,,,swift,58,171,aloud,old,blue,1573.502998,None,1573.502998,None,6,1.3709352,1573.502998,None,1.3709352,1574.901564,None,1575.405365,None,1575.405365,None,r,0.3006215,1575.405365,None,0.3006215,,,Oct24Aloud1,65,2022_Oct_24_1624,ProdSingRedoBetween,2021.2.3,59.94244332
,,,,171,0,171,0,,,,,,,,,,,,,,,,,,,,,,1577.97196,None,,,,,,,,,,,,,,,,,poetry,127,172,aloud,new,null,1576.242899,None,1576.242899,None,1,1.17511,1576.242899,None,1.17511,1577.436471,None,1577.938978,None,1577.938978,None,n,0.0071433,1577.938978,None,0.0071433,,,Oct24Aloud1,65,2022_Oct_24_1624,ProdSingRedoBetween,2021.2.3,59.94244332
,,,,172,0,172,0,,,,,,,,,,,,,,,,,,,,,,1580.856228,None,,,,,,,,,,,,,,,,,clean,73,173,aloud,old,red,1578.492883,None,1578.492883,None,6,1.3490527,1578.492883,None,1.3490527,1579.872504,None,1580.376381,None,1580.376381,None,r,0.4497128,1580.376381,None,0.4497128,,,Oct24Aloud1,65,2022_Oct_24_1624,ProdSingRedoBetween,2021.2.3,59.94244332
,,,,173,0,173,0,,,,,,,,,,,,,,,,,,,,,,1583.191906,None,,,,,,,,,,,,,,,,,beginning,50,174,aloud,old,blue,1581.363116,None,1581.363116,None,6,0.8948529,1581.363116,None,0.8948529,1582.274358,None,1582.774927,None,1582.774927,None,r,0.3870157,1582.774927,None,0.3870157,,,Oct24Aloud1,65,2022_Oct_24_1624,ProdSingRedoBetween,2021.2.3,59.94244332
,,,,174,0,174,0,,,,,,,,,,,,,,,,,,,,,,1585.494133,None,,,,,,,,,,,,,,,,,comedy,17,175,aloud,old,yellow,1583.695278,None,1583.695278,None,6,0.7066791,1583.695278,None,0.7066791,1584.42801,None,1584.944908,None,1584.944908,None,r,0.529137,1584.944908,None,0.529137,,,Oct24Aloud1,65,2022_Oct_24_1624,ProdSingRedoBetween,2021.2.3,59.94244332
,,,,175,0,175,0,,,,,,,,,,,,,,,,,,,,,,1589.131079,None,,,,,,,,,,,,,,,,,character,176,176,aloud,new,null,1585.997664,None,1585.997664,None,6,1.8682815,1585.997664,None,1.8682815,1587.89643,None,1588.399442,None,1588.399442,None,r,0.7065023,1588.399442,None,0.7065023,,,Oct24Aloud1,65,2022_Oct_24_1624,ProdSingRedoBetween,2021.2.3,59.94244332
,,,,176,0,176,0,,,,,,,,,,,,,,,,,,,,,,1594.286223,None,,,,,,,,,,,,,,,,,position,128,177,aloud,new,null,1589.640362,None,1589.640362,None,1,3.8415888,1589.640362,None,3.8415888,1593.503245,None,1594.00272,None,1594.00272,None,n,0.2632553,1594.00272,None,0.2632553,,,Oct24Aloud1,65,2022_Oct_24_1624,ProdSingRedoBetween,2021.2.3,59.94244332
,,,,177,0,177,0,,,,,,,,,,,,,,,,,,,,,,1597.072413,None,,,,,,,,,,,,,,,,,oxygen,66,178,aloud,old,red,1594.79106,None,1594.79106,None,6,1.5309915,1594.79106,None,1.5309915,1596.339425,None,1596.838844,None,1596.838844,None,r,0.2030987,1596.838844,None,0.2030987,,,Oct24Aloud1,65,2022_Oct_24_1624,ProdSingRedoBetween,2021.2.3,59.94244332
,,,,178,0,178,0,,,,,,,,,,,,,,,,,,,,,,1600.358956,None,,,,,,,,,,,,,,,,,expansion,134,179,aloud,new,null,1597.583083,None,1597.583083,None,1,1.7308713,1597.583083,None,1.7308713,1599.344839,None,1599.861706,None,1599.861706,None,n,0.4762482,1599.861706,None,0.4762482,,,Oct24Aloud1,65,2022_Oct_24_1624,ProdSingRedoBetween,2021.2.3,59.94244332
,,,,179,0,179,0,,,,,,,,,,,,,,,,,,,,,,1604.729942,None,,,,,,,,,,,,,,,,,budget,153,180,aloud,new,null,1600.865681,None,1600.865681,None,6,2.9202233,1600.865681,None,2.9202233,1603.814424,None,1604.33233,None,1604.33233,None,r,0.3736908,1604.33233,None,0.3736908,,,Oct24Aloud1,65,2022_Oct_24_1624,ProdSingRedoBetween,2021.2.3,59.94244332
,,,,,,,,,,,,,,,,,,,,,,,,,,,,,,,,,,,,,,,,,,,,,,,,,,,,,,,,,,,,,,,,,,,,,,,,,1605.231039,None,,,,,,
