StudyLoop.thisRepN,StudyLoop.thisTrialN,StudyLoop.thisN,StudyLoop.thisIndex,TestLoop.thisRepN,TestLoop.thisTrialN,TestLoop.thisN,TestLoop.thisIndex,textCondition.started,textCondition.stopped,keyCondition.keys,keyCondition.rt,keyCondition.started,keyCondition.stopped,Condition,textWelcome.started,textWelcome.stopped,keyWelcome.keys,keyWelcome.rt,keyWelcome.started,keyWelcome.stopped,textAloud.started,textAloud.stopped,textSilent.started,textSilent.stopped,textSing.started,textSing.stopped,conditional_text.started,conditional_text.stopped,textBlank500.started,textBlank500.stopped,study_word,study_num,study_order,study_type,word_color,textStudy.started,textStudy.stopped,keyStudy.keys,keyStudy.started,keyStudy.stopped,textTestInstructions.started,textTestInstructions.stopped,key_resp_3.keys,key_resp_3.rt,key_resp_3.started,key_resp_3.stopped,test_word,test_num,test_order,test_condition,old_new_test,test_word_original_color,textConf.started,textConf.stopped,textConfScale.started,textConfScale.stopped,keyConf.keys,keyConf.rt,keyConf.started,keyConf.stopped,confidence response time,textTestBlank.started,textTestBlank.stopped,textRKN.started,textRKN.stopped,textRKNScale.started,textRKNScale.stopped,keyRKN.keys,keyRKN.rt,keyRKN.started,keyRKN.stopped,rkn response time,textEnd.started,textEnd.stopped,participant,session,date,expName,psychopyVersion,frameRate
,,,,,,,,39.1406523,None,a,489.3470927,39.1406523,None,,,,,,,,,,,,,,,,,,,,,,,,,,,,,,,,,,,,,,,,,,,,,,,,,,,,,,,,,,,,,,July18Silent1,4,2022_Jul_18_1417,ProdSingRedoBetween,2021.2.3,59.92706877
,,,,,,,,,,,,,,SilentTest,528.5567312,None,space,13.8029386,528.5567312,None,,,,,,,,,,,,,,,,,,,,,,,,,,,,,,,,,,,,,,,,,,,,,,,,,,,,,,,July18Silent1,4,2022_Jul_18_1417,ProdSingRedoBetween,2021.2.3,59.92706877
0,0,0,0,,,,,,,,,,,,,,,,,,528.5567312,None,528.5567312,None,528.5567312,None,528.5567312,None,544.9032781,None,career,85,1,silent,red,542.902074,None,None,542.902074,None,,,,,,,,,,,,,,,,,,,,,,,,,,,,,,,,,,,July18Silent1,4,2022_Jul_18_1417,ProdSingRedoBetween,2021.2.3,59.92706877
1,0,1,0,,,,,,,,,,,,,,,,,,,,,,,,,,547.4217898,None,trend,20,2,silent,yellow,545.4106147,None,None,545.4106147,None,,,,,,,,,,,,,,,,,,,,,,,,,,,,,,,,,,,July18Silent1,4,2022_Jul_18_1417,ProdSingRedoBetween,2021.2.3,59.92706877
2,0,2,0,,,,,,,,,,,,,,,,,,,,,,,,,,549.9408965,None,science,68,3,silent,red,547.9312805,None,None,547.9312805,None,,,,,,,,,,,,,,,,,,,,,,,,,,,,,,,,,,,July18Silent1,4,2022_Jul_18_1417,ProdSingRedoBetween,2021.2.3,59.92706877
3,0,3,0,,,,,,,,,,,,,,,,,,,,,,,,,,552.4600361,None,property,37,4,silent,blue,550.4498375,None,None,550.4498375,None,,,,,,,,,,,,,,,,,,,,,,,,,,,,,,,,,,,July18Silent1,4,2022_Jul_18_1417,ProdSingRedoBetween,2021.2.3,59.92706877
4,0,4,0,,,,,,,,,,,,,,,,,,,,,,,,,,554.9792604,None,speech,70,5,silent,red,552.9694251,None,None,552.9694251,None,,,,,,,,,,,,,,,,,,,,,,,,,,,,,,,,,,,July18Silent1,4,2022_Jul_18_1417,ProdSingRedoBetween,2021.2.3,59.92706877
5,0,5,0,,,,,,,,,,,,,,,,,,,,,,,,,,557.4980701,None,empty,81,6,silent,red,555.4894216,None,None,555.4894216,None,,,,,,,,,,,,,,,,,,,,,,,,,,,,,,,,,,,July18Silent1,4,2022_Jul_18_1417,ProdSingRedoBetween,2021.2.3,59.92706877
6,0,6,0,,,,,,,,,,,,,,,,,,,,,,,,,,560.0009761,None,power,29,7,silent,blue,557.9987023,None,None,557.9987023,None,,,,,,,,,,,,,,,,,,,,,,,,,,,,,,,,,,,July18Silent1,4,2022_Jul_18_1417,ProdSingRedoBetween,2021.2.3,59.92706877
7,0,7,0,,,,,,,,,,,,,,,,,,,,,,,,,,562.5201223,None,watch,57,8,silent,blue,560.5112048,None,None,560.5112048,None,,,,,,,,,,,,,,,,,,,,,,,,,,,,,,,,,,,July18Silent1,4,2022_Jul_18_1417,ProdSingRedoBetween,2021.2.3,59.92706877
8,0,8,0,,,,,,,,,,,,,,,,,,,,,,,,,,565.0393177,None,surface,77,9,silent,red,563.0297805,None,None,563.0297805,None,,,,,,,,,,,,,,,,,,,,,,,,,,,,,,,,,,,July18Silent1,4,2022_Jul_18_1417,ProdSingRedoBetween,2021.2.3,59.92706877
9,0,9,0,,,,,,,,,,,,,,,,,,,,,,,,,,567.5584782,None,bicycle,35,10,silent,blue,565.546222,None,None,565.546222,None,,,,,,,,,,,,,,,,,,,,,,,,,,,,,,,,,,,July18Silent1,4,2022_Jul_18_1417,ProdSingRedoBetween,2021.2.3,59.92706877
10,0,10,0,,,,,,,,,,,,,,,,,,,,,,,,,,570.0775777,None,drink,88,11,silent,red,568.0672777,None,None,568.0672777,None,,,,,,,,,,,,,,,,,,,,,,,,,,,,,,,,,,,July18Silent1,4,2022_Jul_18_1417,ProdSingRedoBetween,2021.2.3,59.92706877
11,0,11,0,,,,,,,,,,,,,,,,,,,,,,,,,,572.5968507,None,benefit,9,12,silent,yellow,570.5872406,None,None,570.5872406,None,,,,,,,,,,,,,,,,,,,,,,,,,,,,,,,,,,,July18Silent1,4,2022_Jul_18_1417,ProdSingRedoBetween,2021.2.3,59.92706877
12,0,12,0,,,,,,,,,,,,,,,,,,,,,,,,,,575.116031,None,shape,40,13,silent,blue,573.1065232,None,None,573.1065232,None,,,,,,,,,,,,,,,,,,,,,,,,,,,,,,,,,,,July18Silent1,4,2022_Jul_18_1417,ProdSingRedoBetween,2021.2.3,59.92706877
13,0,13,0,,,,,,,,,,,,,,,,,,,,,,,,,,577.6352364,None,stand,55,14,silent,blue,575.6246921,None,None,575.6246921,None,,,,,,,,,,,,,,,,,,,,,,,,,,,,,,,,,,,July18Silent1,4,2022_Jul_18_1417,ProdSingRedoBetween,2021.2.3,59.92706877
14,0,14,0,,,,,,,,,,,,,,,,,,,,,,,,,,580.1543971,None,committee,38,15,silent,blue,578.1437041,None,None,578.1437041,None,,,,,,,,,,,,,,,,,,,,,,,,,,,,,,,,,,,July18Silent1,4,2022_Jul_18_1417,ProdSingRedoBetween,2021.2.3,59.92706877
15,0,15,0,,,,,,,,,,,,,,,,,,,,,,,,,,582.673564,None,subject,19,16,silent,yellow,580.6691957,None,None,580.6691957,None,,,,,,,,,,,,,,,,,,,,,,,,,,,,,,,,,,,July18Silent1,4,2022_Jul_18_1417,ProdSingRedoBetween,2021.2.3,59.92706877
16,0,16,0,,,,,,,,,,,,,,,,,,,,,,,,,,585.1928036,None,voice,13,17,silent,yellow,583.1851165,None,None,583.1851165,None,,,,,,,,,,,,,,,,,,,,,,,,,,,,,,,,,,,July18Silent1,4,2022_Jul_18_1417,ProdSingRedoBetween,2021.2.3,59.92706877
17,0,17,0,,,,,,,,,,,,,,,,,,,,,,,,,,587.7115705,None,music,31,18,silent,blue,585.702393,None,None,585.702393,None,,,,,,,,,,,,,,,,,,,,,,,,,,,,,,,,,,,July18Silent1,4,2022_Jul_18_1417,ProdSingRedoBetween,2021.2.3,59.92706877
18,0,18,0,,,,,,,,,,,,,,,,,,,,,,,,,,590.2140942,None,individual,78,19,silent,red,588.2122069,None,None,588.2122069,None,,,,,,,,,,,,,,,,,,,,,,,,,,,,,,,,,,,July18Silent1,4,2022_Jul_18_1417,ProdSingRedoBetween,2021.2.3,59.92706877
19,0,19,0,,,,,,,,,,,,,,,,,,,,,,,,,,592.7169529,None,threat,64,20,silent,red,590.7145946,None,None,590.7145946,None,,,,,,,,,,,,,,,,,,,,,,,,,,,,,,,,,,,July18Silent1,4,2022_Jul_18_1417,ProdSingRedoBetween,2021.2.3,59.92706877
20,0,20,0,,,,,,,,,,,,,,,,,,,,,,,,,,595.2357814,None,audience,86,21,silent,red,593.2257768,None,None,593.2257768,None,,,,,,,,,,,,,,,,,,,,,,,,,,,,,,,,,,,July18Silent1,4,2022_Jul_18_1417,ProdSingRedoBetween,2021.2.3,59.92706877
21,0,21,0,,,,,,,,,,,,,,,,,,,,,,,,,,597.7553298,None,brilliant,34,22,silent,blue,595.7447556,None,None,595.7447556,None,,,,,,,,,,,,,,,,,,,,,,,,,,,,,,,,,,,July18Silent1,4,2022_Jul_18_1417,ProdSingRedoBetween,2021.2.3,59.92706877
22,0,22,0,,,,,,,,,,,,,,,,,,,,,,,,,,600.2744471,None,pancakes,89,23,silent,red,598.2665569,None,None,598.2665569,None,,,,,,,,,,,,,,,,,,,,,,,,,,,,,,,,,,,July18Silent1,4,2022_Jul_18_1417,ProdSingRedoBetween,2021.2.3,59.92706877
23,0,23,0,,,,,,,,,,,,,,,,,,,,,,,,,,602.7936877,None,question,61,24,silent,red,600.7923235,None,None,600.7923235,None,,,,,,,,,,,,,,,,,,,,,,,,,,,,,,,,,,,July18Silent1,4,2022_Jul_18_1417,ProdSingRedoBetween,2021.2.3,59.92706877
24,0,24,0,,,,,,,,,,,,,,,,,,,,,,,,,,605.3128806,None,captain,56,25,silent,blue,603.3038439,None,None,603.3038439,None,,,,,,,,,,,,,,,,,,,,,,,,,,,,,,,,,,,July18Silent1,4,2022_Jul_18_1417,ProdSingRedoBetween,2021.2.3,59.92706877
25,0,25,0,,,,,,,,,,,,,,,,,,,,,,,,,,607.8320068,None,state,42,26,silent,blue,605.8217542,None,None,605.8217542,None,,,,,,,,,,,,,,,,,,,,,,,,,,,,,,,,,,,July18Silent1,4,2022_Jul_18_1417,ProdSingRedoBetween,2021.2.3,59.92706877
26,0,26,0,,,,,,,,,,,,,,,,,,,,,,,,,,610.3510671,None,equipment,52,27,silent,blue,608.343339,None,None,608.343339,None,,,,,,,,,,,,,,,,,,,,,,,,,,,,,,,,,,,July18Silent1,4,2022_Jul_18_1417,ProdSingRedoBetween,2021.2.3,59.92706877
27,0,27,0,,,,,,,,,,,,,,,,,,,,,,,,,,612.8704159,None,problem,51,28,silent,blue,610.8610776,None,None,610.8610776,None,,,,,,,,,,,,,,,,,,,,,,,,,,,,,,,,,,,July18Silent1,4,2022_Jul_18_1417,ProdSingRedoBetween,2021.2.3,59.92706877
28,0,28,0,,,,,,,,,,,,,,,,,,,,,,,,,,615.3895799,None,series,49,29,silent,blue,613.3789263,None,None,613.3789263,None,,,,,,,,,,,,,,,,,,,,,,,,,,,,,,,,,,,July18Silent1,4,2022_Jul_18_1417,ProdSingRedoBetween,2021.2.3,59.92706877
29,0,29,0,,,,,,,,,,,,,,,,,,,,,,,,,,617.9084753,None,entrance,39,30,silent,blue,615.8972473,None,None,615.8972473,None,,,,,,,,,,,,,,,,,,,,,,,,,,,,,,,,,,,July18Silent1,4,2022_Jul_18_1417,ProdSingRedoBetween,2021.2.3,59.92706877
30,0,30,0,,,,,,,,,,,,,,,,,,,,,,,,,,620.4279334,None,south,76,31,silent,red,618.4169335,None,None,618.4169335,None,,,,,,,,,,,,,,,,,,,,,,,,,,,,,,,,,,,July18Silent1,4,2022_Jul_18_1417,ProdSingRedoBetween,2021.2.3,59.92706877
31,0,31,0,,,,,,,,,,,,,,,,,,,,,,,,,,622.9471062,None,passage,73,32,silent,red,620.936257,None,None,620.936257,None,,,,,,,,,,,,,,,,,,,,,,,,,,,,,,,,,,,July18Silent1,4,2022_Jul_18_1417,ProdSingRedoBetween,2021.2.3,59.92706877
32,0,32,0,,,,,,,,,,,,,,,,,,,,,,,,,,625.4662929,None,meeting,48,33,silent,blue,623.4541173,None,None,623.4541173,None,,,,,,,,,,,,,,,,,,,,,,,,,,,,,,,,,,,July18Silent1,4,2022_Jul_18_1417,ProdSingRedoBetween,2021.2.3,59.92706877
33,0,33,0,,,,,,,,,,,,,,,,,,,,,,,,,,627.9854791,None,judge,41,34,silent,blue,625.9748472,None,None,625.9748472,None,,,,,,,,,,,,,,,,,,,,,,,,,,,,,,,,,,,July18Silent1,4,2022_Jul_18_1417,ProdSingRedoBetween,2021.2.3,59.92706877
34,0,34,0,,,,,,,,,,,,,,,,,,,,,,,,,,630.5046582,None,vision,45,35,silent,blue,628.497957,None,None,628.497957,None,,,,,,,,,,,,,,,,,,,,,,,,,,,,,,,,,,,July18Silent1,4,2022_Jul_18_1417,ProdSingRedoBetween,2021.2.3,59.92706877
35,0,35,0,,,,,,,,,,,,,,,,,,,,,,,,,,633.0238442,None,provision,25,36,silent,yellow,631.0161252,None,None,631.0161252,None,,,,,,,,,,,,,,,,,,,,,,,,,,,,,,,,,,,July18Silent1,4,2022_Jul_18_1417,ProdSingRedoBetween,2021.2.3,59.92706877
36,0,36,0,,,,,,,,,,,,,,,,,,,,,,,,,,635.5430251,None,century,4,37,silent,yellow,633.5320828,None,None,633.5320828,None,,,,,,,,,,,,,,,,,,,,,,,,,,,,,,,,,,,July18Silent1,4,2022_Jul_18_1417,ProdSingRedoBetween,2021.2.3,59.92706877
37,0,37,0,,,,,,,,,,,,,,,,,,,,,,,,,,638.0620486,None,primary,11,38,silent,yellow,636.0529465,None,None,636.0529465,None,,,,,,,,,,,,,,,,,,,,,,,,,,,,,,,,,,,July18Silent1,4,2022_Jul_18_1417,ProdSingRedoBetween,2021.2.3,59.92706877
38,0,38,0,,,,,,,,,,,,,,,,,,,,,,,,,,640.5814195,None,edition,43,39,silent,blue,638.5688722,None,None,638.5688722,None,,,,,,,,,,,,,,,,,,,,,,,,,,,,,,,,,,,July18Silent1,4,2022_Jul_18_1417,ProdSingRedoBetween,2021.2.3,59.92706877
39,0,39,0,,,,,,,,,,,,,,,,,,,,,,,,,,643.1005714,None,weight,5,40,silent,yellow,641.0899023,None,None,641.0899023,None,,,,,,,,,,,,,,,,,,,,,,,,,,,,,,,,,,,July18Silent1,4,2022_Jul_18_1417,ProdSingRedoBetween,2021.2.3,59.92706877
40,0,40,0,,,,,,,,,,,,,,,,,,,,,,,,,,645.6197504,None,opening,18,41,silent,yellow,643.6058449,None,None,643.6058449,None,,,,,,,,,,,,,,,,,,,,,,,,,,,,,,,,,,,July18Silent1,4,2022_Jul_18_1417,ProdSingRedoBetween,2021.2.3,59.92706877
41,0,41,0,,,,,,,,,,,,,,,,,,,,,,,,,,648.1386921,None,orchestra,50,42,silent,blue,646.1303388,None,None,646.1303388,None,,,,,,,,,,,,,,,,,,,,,,,,,,,,,,,,,,,July18Silent1,4,2022_Jul_18_1417,ProdSingRedoBetween,2021.2.3,59.92706877
42,0,42,0,,,,,,,,,,,,,,,,,,,,,,,,,,650.6580852,None,frank,27,43,silent,yellow,648.6500575,None,None,648.6500575,None,,,,,,,,,,,,,,,,,,,,,,,,,,,,,,,,,,,July18Silent1,4,2022_Jul_18_1417,ProdSingRedoBetween,2021.2.3,59.92706877
43,0,43,0,,,,,,,,,,,,,,,,,,,,,,,,,,653.1770781,None,foundation,32,44,silent,blue,651.1665645,None,None,651.1665645,None,,,,,,,,,,,,,,,,,,,,,,,,,,,,,,,,,,,July18Silent1,4,2022_Jul_18_1417,ProdSingRedoBetween,2021.2.3,59.92706877
44,0,44,0,,,,,,,,,,,,,,,,,,,,,,,,,,655.6964648,None,close,30,45,silent,blue,653.6910231,None,None,653.6910231,None,,,,,,,,,,,,,,,,,,,,,,,,,,,,,,,,,,,July18Silent1,4,2022_Jul_18_1417,ProdSingRedoBetween,2021.2.3,59.92706877
45,0,45,0,,,,,,,,,,,,,,,,,,,,,,,,,,658.2156599,None,pattern,8,46,silent,yellow,656.2060571,None,None,656.2060571,None,,,,,,,,,,,,,,,,,,,,,,,,,,,,,,,,,,,July18Silent1,4,2022_Jul_18_1417,ProdSingRedoBetween,2021.2.3,59.92706877
46,0,46,0,,,,,,,,,,,,,,,,,,,,,,,,,,660.7348526,None,harmony,12,47,silent,yellow,658.7266117,None,None,658.7266117,None,,,,,,,,,,,,,,,,,,,,,,,,,,,,,,,,,,,July18Silent1,4,2022_Jul_18_1417,ProdSingRedoBetween,2021.2.3,59.92706877
47,0,47,0,,,,,,,,,,,,,,,,,,,,,,,,,,663.254052,None,rough,59,48,silent,yellow,661.2423743,None,None,661.2423743,None,,,,,,,,,,,,,,,,,,,,,,,,,,,,,,,,,,,July18Silent1,4,2022_Jul_18_1417,ProdSingRedoBetween,2021.2.3,59.92706877
48,0,48,0,,,,,,,,,,,,,,,,,,,,,,,,,,665.7732078,None,charter,67,49,silent,red,663.7619,None,None,663.7619,None,,,,,,,,,,,,,,,,,,,,,,,,,,,,,,,,,,,July18Silent1,4,2022_Jul_18_1417,ProdSingRedoBetween,2021.2.3,59.92706877
49,0,49,0,,,,,,,,,,,,,,,,,,,,,,,,,,668.292208,None,group,28,50,silent,yellow,666.2801263,None,None,666.2801263,None,,,,,,,,,,,,,,,,,,,,,,,,,,,,,,,,,,,July18Silent1,4,2022_Jul_18_1417,ProdSingRedoBetween,2021.2.3,59.92706877
50,0,50,0,,,,,,,,,,,,,,,,,,,,,,,,,,670.8115358,None,childhood,54,51,silent,blue,668.8001837,None,None,668.8001837,None,,,,,,,,,,,,,,,,,,,,,,,,,,,,,,,,,,,July18Silent1,4,2022_Jul_18_1417,ProdSingRedoBetween,2021.2.3,59.92706877
51,0,51,0,,,,,,,,,,,,,,,,,,,,,,,,,,673.314069,None,trail,10,52,silent,yellow,671.3118596,None,None,671.3118596,None,,,,,,,,,,,,,,,,,,,,,,,,,,,,,,,,,,,July18Silent1,4,2022_Jul_18_1417,ProdSingRedoBetween,2021.2.3,59.92706877
52,0,52,0,,,,,,,,,,,,,,,,,,,,,,,,,,675.8332243,None,taste,23,53,silent,yellow,673.8246471,None,None,673.8246471,None,,,,,,,,,,,,,,,,,,,,,,,,,,,,,,,,,,,July18Silent1,4,2022_Jul_18_1417,ProdSingRedoBetween,2021.2.3,59.92706877
53,0,53,0,,,,,,,,,,,,,,,,,,,,,,,,,,678.3524296,None,turkey,47,54,silent,blue,676.3436816,None,None,676.3436816,None,,,,,,,,,,,,,,,,,,,,,,,,,,,,,,,,,,,July18Silent1,4,2022_Jul_18_1417,ProdSingRedoBetween,2021.2.3,59.92706877
54,0,54,0,,,,,,,,,,,,,,,,,,,,,,,,,,680.8716078,None,break,60,55,silent,red,678.8614362,None,None,678.8614362,None,,,,,,,,,,,,,,,,,,,,,,,,,,,,,,,,,,,July18Silent1,4,2022_Jul_18_1417,ProdSingRedoBetween,2021.2.3,59.92706877
55,0,55,0,,,,,,,,,,,,,,,,,,,,,,,,,,683.390632,None,cover,15,56,silent,yellow,681.3830392,None,None,681.3830392,None,,,,,,,,,,,,,,,,,,,,,,,,,,,,,,,,,,,July18Silent1,4,2022_Jul_18_1417,ProdSingRedoBetween,2021.2.3,59.92706877
56,0,56,0,,,,,,,,,,,,,,,,,,,,,,,,,,685.9099866,None,balance,36,57,silent,blue,683.8985415,None,None,683.8985415,None,,,,,,,,,,,,,,,,,,,,,,,,,,,,,,,,,,,July18Silent1,4,2022_Jul_18_1417,ProdSingRedoBetween,2021.2.3,59.92706877
57,0,57,0,,,,,,,,,,,,,,,,,,,,,,,,,,688.4291912,None,error,83,58,silent,red,686.4187591,None,None,686.4187591,None,,,,,,,,,,,,,,,,,,,,,,,,,,,,,,,,,,,July18Silent1,4,2022_Jul_18_1417,ProdSingRedoBetween,2021.2.3,59.92706877
58,0,58,0,,,,,,,,,,,,,,,,,,,,,,,,,,690.9483314,None,murder,69,59,silent,red,688.9358926,None,None,688.9358926,None,,,,,,,,,,,,,,,,,,,,,,,,,,,,,,,,,,,July18Silent1,4,2022_Jul_18_1417,ProdSingRedoBetween,2021.2.3,59.92706877
59,0,59,0,,,,,,,,,,,,,,,,,,,,,,,,,,693.467479,None,general,46,60,silent,blue,691.4538765,None,None,691.4538765,None,,,,,,,,,,,,,,,,,,,,,,,,,,,,,,,,,,,July18Silent1,4,2022_Jul_18_1417,ProdSingRedoBetween,2021.2.3,59.92706877
60,0,60,0,,,,,,,,,,,,,,,,,,,,,,,,,,695.9866947,None,order,82,61,silent,red,693.975495,None,None,693.975495,None,,,,,,,,,,,,,,,,,,,,,,,,,,,,,,,,,,,July18Silent1,4,2022_Jul_18_1417,ProdSingRedoBetween,2021.2.3,59.92706877
61,0,61,0,,,,,,,,,,,,,,,,,,,,,,,,,,698.5058589,None,minute,17,62,silent,yellow,696.4934927,None,None,696.4934927,None,,,,,,,,,,,,,,,,,,,,,,,,,,,,,,,,,,,July18Silent1,4,2022_Jul_18_1417,ProdSingRedoBetween,2021.2.3,59.92706877
62,0,62,0,,,,,,,,,,,,,,,,,,,,,,,,,,701.0250768,None,portion,63,63,silent,red,699.0201395,None,None,699.0201395,None,,,,,,,,,,,,,,,,,,,,,,,,,,,,,,,,,,,July18Silent1,4,2022_Jul_18_1417,ProdSingRedoBetween,2021.2.3,59.92706877
63,0,63,0,,,,,,,,,,,,,,,,,,,,,,,,,,703.5442448,None,health,22,64,silent,yellow,701.5319503,None,None,701.5319503,None,,,,,,,,,,,,,,,,,,,,,,,,,,,,,,,,,,,July18Silent1,4,2022_Jul_18_1417,ProdSingRedoBetween,2021.2.3,59.92706877
64,0,64,0,,,,,,,,,,,,,,,,,,,,,,,,,,706.06343,None,society,53,65,silent,blue,704.0552712,None,None,704.0552712,None,,,,,,,,,,,,,,,,,,,,,,,,,,,,,,,,,,,July18Silent1,4,2022_Jul_18_1417,ProdSingRedoBetween,2021.2.3,59.92706877
65,0,65,0,,,,,,,,,,,,,,,,,,,,,,,,,,708.5826059,None,pressure,16,66,silent,yellow,706.5711117,None,None,706.5711117,None,,,,,,,,,,,,,,,,,,,,,,,,,,,,,,,,,,,July18Silent1,4,2022_Jul_18_1417,ProdSingRedoBetween,2021.2.3,59.92706877
66,0,66,0,,,,,,,,,,,,,,,,,,,,,,,,,,711.1017823,None,second,14,67,silent,yellow,709.0954505,None,None,709.0954505,None,,,,,,,,,,,,,,,,,,,,,,,,,,,,,,,,,,,July18Silent1,4,2022_Jul_18_1417,ProdSingRedoBetween,2021.2.3,59.92706877
67,0,67,0,,,,,,,,,,,,,,,,,,,,,,,,,,713.6210233,None,platform,71,68,silent,red,711.6099972,None,None,711.6099972,None,,,,,,,,,,,,,,,,,,,,,,,,,,,,,,,,,,,July18Silent1,4,2022_Jul_18_1417,ProdSingRedoBetween,2021.2.3,59.92706877
68,0,68,0,,,,,,,,,,,,,,,,,,,,,,,,,,716.1450343,None,victory,66,69,silent,red,714.1311092,None,None,714.1311092,None,,,,,,,,,,,,,,,,,,,,,,,,,,,,,,,,,,,July18Silent1,4,2022_Jul_18_1417,ProdSingRedoBetween,2021.2.3,59.92706877
69,0,69,0,,,,,,,,,,,,,,,,,,,,,,,,,,718.6590244,None,owner,65,70,silent,red,716.6507751,None,None,716.6507751,None,,,,,,,,,,,,,,,,,,,,,,,,,,,,,,,,,,,July18Silent1,4,2022_Jul_18_1417,ProdSingRedoBetween,2021.2.3,59.92706877
70,0,70,0,,,,,,,,,,,,,,,,,,,,,,,,,,721.1618278,None,volume,7,71,silent,yellow,719.1596517,None,None,719.1596517,None,,,,,,,,,,,,,,,,,,,,,,,,,,,,,,,,,,,July18Silent1,4,2022_Jul_18_1417,ProdSingRedoBetween,2021.2.3,59.92706877
71,0,71,0,,,,,,,,,,,,,,,,,,,,,,,,,,723.6810087,None,expansion,80,72,silent,red,721.6754004,None,None,721.6754004,None,,,,,,,,,,,,,,,,,,,,,,,,,,,,,,,,,,,July18Silent1,4,2022_Jul_18_1417,ProdSingRedoBetween,2021.2.3,59.92706877
72,0,72,0,,,,,,,,,,,,,,,,,,,,,,,,,,726.200116,None,track,1,73,silent,yellow,724.1886156,None,None,724.1886156,None,,,,,,,,,,,,,,,,,,,,,,,,,,,,,,,,,,,July18Silent1,4,2022_Jul_18_1417,ProdSingRedoBetween,2021.2.3,59.92706877
73,0,73,0,,,,,,,,,,,,,,,,,,,,,,,,,,728.7193857,None,curve,87,74,silent,red,726.7063062,None,None,726.7063062,None,,,,,,,,,,,,,,,,,,,,,,,,,,,,,,,,,,,July18Silent1,4,2022_Jul_18_1417,ProdSingRedoBetween,2021.2.3,59.92706877
74,0,74,0,,,,,,,,,,,,,,,,,,,,,,,,,,731.2385138,None,rapid,74,75,silent,red,729.2278808,None,None,729.2278808,None,,,,,,,,,,,,,,,,,,,,,,,,,,,,,,,,,,,July18Silent1,4,2022_Jul_18_1417,ProdSingRedoBetween,2021.2.3,59.92706877
75,0,75,0,,,,,,,,,,,,,,,,,,,,,,,,,,733.7576925,None,session,58,76,silent,blue,731.7480686,None,None,731.7480686,None,,,,,,,,,,,,,,,,,,,,,,,,,,,,,,,,,,,July18Silent1,4,2022_Jul_18_1417,ProdSingRedoBetween,2021.2.3,59.92706877
76,0,76,0,,,,,,,,,,,,,,,,,,,,,,,,,,736.2769593,None,grade,72,77,silent,red,734.2640367,None,None,734.2640367,None,,,,,,,,,,,,,,,,,,,,,,,,,,,,,,,,,,,July18Silent1,4,2022_Jul_18_1417,ProdSingRedoBetween,2021.2.3,59.92706877
77,0,77,0,,,,,,,,,,,,,,,,,,,,,,,,,,738.7961373,None,evidence,0,78,silent,yellow,736.7844511,None,None,736.7844511,None,,,,,,,,,,,,,,,,,,,,,,,,,,,,,,,,,,,July18Silent1,4,2022_Jul_18_1417,ProdSingRedoBetween,2021.2.3,59.92706877
78,0,78,0,,,,,,,,,,,,,,,,,,,,,,,,,,741.3153356,None,reach,2,79,silent,yellow,739.3025293,None,None,739.3025293,None,,,,,,,,,,,,,,,,,,,,,,,,,,,,,,,,,,,July18Silent1,4,2022_Jul_18_1417,ProdSingRedoBetween,2021.2.3,59.92706877
79,0,79,0,,,,,,,,,,,,,,,,,,,,,,,,,,743.8344538,None,education,26,80,silent,yellow,741.8246265,None,None,741.8246265,None,,,,,,,,,,,,,,,,,,,,,,,,,,,,,,,,,,,July18Silent1,4,2022_Jul_18_1417,ProdSingRedoBetween,2021.2.3,59.92706877
80,0,80,0,,,,,,,,,,,,,,,,,,,,,,,,,,746.3536582,None,native,6,81,silent,yellow,744.3430862,None,None,744.3430862,None,,,,,,,,,,,,,,,,,,,,,,,,,,,,,,,,,,,July18Silent1,4,2022_Jul_18_1417,ProdSingRedoBetween,2021.2.3,59.92706877
81,0,81,0,,,,,,,,,,,,,,,,,,,,,,,,,,748.872832,None,article,84,82,silent,red,746.861239,None,None,746.861239,None,,,,,,,,,,,,,,,,,,,,,,,,,,,,,,,,,,,July18Silent1,4,2022_Jul_18_1417,ProdSingRedoBetween,2021.2.3,59.92706877
82,0,82,0,,,,,,,,,,,,,,,,,,,,,,,,,,751.3919999,None,country,44,83,silent,blue,749.3850949,None,None,749.3850949,None,,,,,,,,,,,,,,,,,,,,,,,,,,,,,,,,,,,July18Silent1,4,2022_Jul_18_1417,ProdSingRedoBetween,2021.2.3,59.92706877
83,0,83,0,,,,,,,,,,,,,,,,,,,,,,,,,,753.9111885,None,collection,21,84,silent,yellow,751.8988078,None,None,751.8988078,None,,,,,,,,,,,,,,,,,,,,,,,,,,,,,,,,,,,July18Silent1,4,2022_Jul_18_1417,ProdSingRedoBetween,2021.2.3,59.92706877
84,0,84,0,,,,,,,,,,,,,,,,,,,,,,,,,,756.4303785,None,pretty,3,85,silent,yellow,754.4191861,None,None,754.4191861,None,,,,,,,,,,,,,,,,,,,,,,,,,,,,,,,,,,,July18Silent1,4,2022_Jul_18_1417,ProdSingRedoBetween,2021.2.3,59.92706877
85,0,85,0,,,,,,,,,,,,,,,,,,,,,,,,,,758.9495566,None,scene,24,86,silent,yellow,756.939816,None,None,756.939816,None,,,,,,,,,,,,,,,,,,,,,,,,,,,,,,,,,,,July18Silent1,4,2022_Jul_18_1417,ProdSingRedoBetween,2021.2.3,59.92706877
86,0,86,0,,,,,,,,,,,,,,,,,,,,,,,,,,761.468742,None,emergency,33,87,silent,blue,759.459377,None,None,759.459377,None,,,,,,,,,,,,,,,,,,,,,,,,,,,,,,,,,,,July18Silent1,4,2022_Jul_18_1417,ProdSingRedoBetween,2021.2.3,59.92706877
87,0,87,0,,,,,,,,,,,,,,,,,,,,,,,,,,763.9878897,None,brief,62,88,silent,red,761.9788042,None,None,761.9788042,None,,,,,,,,,,,,,,,,,,,,,,,,,,,,,,,,,,,July18Silent1,4,2022_Jul_18_1417,ProdSingRedoBetween,2021.2.3,59.92706877
88,0,88,0,,,,,,,,,,,,,,,,,,,,,,,,,,766.507132,None,afternoon,75,89,silent,red,764.4986027,None,None,764.4986027,None,,,,,,,,,,,,,,,,,,,,,,,,,,,,,,,,,,,July18Silent1,4,2022_Jul_18_1417,ProdSingRedoBetween,2021.2.3,59.92706877
89,0,89,0,,,,,,,,,,,,,,,,,,,,,,,,,,769.0263084,None,route,79,90,silent,red,767.0139746,None,None,767.0139746,None,,,,,,,,,,,,,,,,,,,,,,,,,,,,,,,,,,,July18Silent1,4,2022_Jul_18_1417,ProdSingRedoBetween,2021.2.3,59.92706877
,,,,,,,,,,,,,,,,,,,,,,,,,,,,,,,,,,,,,,,,,769.5270303,None,k,72.9444192,769.5270303,None,,,,,,,,,,,,,,,,,,,,,,,,,,,,,July18Silent1,4,2022_Jul_18_1417,ProdSingRedoBetween,2021.2.3,59.92706877
,,,,0,0,0,0,,,,,,,,,,,,,,,,,,,,,,857.914753,None,,,,,,,,,,,,,,,,,curve,87,1,silent,old,red,843.0056256,None,843.0056256,None,1,7.5218115,843.0056256,None,7.5218115,850.5763949,None,851.100148,None,851.100148,None,r,6.7948394,851.100148,None,6.7948394,,,July18Silent1,4,2022_Jul_18_1417,ProdSingRedoBetween,2021.2.3,59.92706877
,,,,1,0,1,0,,,,,,,,,,,,,,,,,,,,,,866.912354,None,,,,,,,,,,,,,,,,,quantity,142,2,silent,new,null,858.4333835,None,858.4333835,None,1,2.9899136,858.4333835,None,2.9899136,861.4673781,None,861.9800001,None,861.9800001,None,r,4.907272,861.9800001,None,4.907272,,,July18Silent1,4,2022_Jul_18_1417,ProdSingRedoBetween,2021.2.3,59.92706877
,,,,2,0,2,0,,,,,,,,,,,,,,,,,,,,,,872.4870249,None,,,,,,,,,,,,,,,,,employment,144,3,silent,new,null,867.4377012,None,867.4377012,None,1,2.5134311,867.4377012,None,2.5134311,869.9838471,None,870.5019139,None,870.5019139,None,f,1.9532774,870.5019139,None,1.9532774,,,July18Silent1,4,2022_Jul_18_1417,ProdSingRedoBetween,2021.2.3,59.92706877
,,,,3,0,3,0,,,,,,,,,,,,,,,,,,,,,,891.7065937,None,,,,,,,,,,,,,,,,,split,166,4,silent,new,null,873.0085682,None,873.0085682,None,1,15.7826139,873.0085682,None,15.7826139,888.8224899,None,889.3389104,None,889.3389104,None,f,2.3323663,889.3389104,None,2.3323663,,,July18Silent1,4,2022_Jul_18_1417,ProdSingRedoBetween,2021.2.3,59.92706877
,,,,4,0,4,0,,,,,,,,,,,,,,,,,,,,,,900.73045,None,,,,,,,,,,,,,,,,,patient,93,5,silent,new,null,892.2411505,None,892.2411505,None,2,6.6139361,892.2411505,None,6.6139361,898.8773451,None,899.3995471,None,899.3995471,None,f,1.2957521,899.3995471,None,1.2957521,,,July18Silent1,4,2022_Jul_18_1417,ProdSingRedoBetween,2021.2.3,59.92706877
,,,,5,0,5,0,,,,,,,,,,,,,,,,,,,,,,905.2972235,None,,,,,,,,,,,,,,,,,education,26,6,silent,old,yellow,901.2542642,None,901.2542642,None,6,2.0969826,901.2542642,None,2.0969826,903.394049,None,903.9009697,None,903.9009697,None,r,1.3782306,903.9009697,None,1.3782306,,,July18Silent1,4,2022_Jul_18_1417,ProdSingRedoBetween,2021.2.3,59.92706877
,,,,6,0,6,0,,,,,,,,,,,,,,,,,,,,,,910.0228513,None,,,,,,,,,,,,,,,,,society,53,7,silent,old,blue,905.8303508,None,905.8303508,None,6,1.9129701,905.8303508,None,1.9129701,907.7919568,None,908.2985301,None,908.2985301,None,f,1.7004648,908.2985301,None,1.7004648,,,July18Silent1,4,2022_Jul_18_1417,ProdSingRedoBetween,2021.2.3,59.92706877
,,,,7,0,7,0,,,,,,,,,,,,,,,,,,,,,,917.5910097,None,,,,,,,,,,,,,,,,,skill,94,8,silent,new,null,910.5354615,None,910.5354615,None,5,4.143818,910.5354615,None,4.143818,914.7204521,None,915.231646,None,915.231646,None,f,2.3432958,915.231646,None,2.3432958,,,July18Silent1,4,2022_Jul_18_1417,ProdSingRedoBetween,2021.2.3,59.92706877
,,,,8,0,8,0,,,,,,,,,,,,,,,,,,,,,,927.8599911,None,,,,,,,,,,,,,,,,,country,44,9,silent,old,blue,918.0944859,None,918.0944859,None,1,4.1126252,918.0944859,None,4.1126252,922.2338379,None,922.7503645,None,922.7503645,None,n,5.0809386,922.7503645,None,5.0809386,,,July18Silent1,4,2022_Jul_18_1417,ProdSingRedoBetween,2021.2.3,59.92706877
,,,,9,0,9,0,,,,,,,,,,,,,,,,,,,,,,936.4269395,None,,,,,,,,,,,,,,,,,character,119,10,silent,new,null,928.3784734,None,928.3784734,None,6,5.8609855,928.3784734,None,5.8609855,934.271538,None,934.781524,None,934.781524,None,f,1.6175224,934.781524,None,1.6175224,,,July18Silent1,4,2022_Jul_18_1417,ProdSingRedoBetween,2021.2.3,59.92706877
,,,,10,0,10,0,,,,,,,,,,,,,,,,,,,,,,944.5754722,None,,,,,,,,,,,,,,,,,theme,172,11,silent,new,null,936.9396195,None,936.9396195,None,1,1.3396257,936.9396195,None,1.3396257,938.3108721,None,938.8192647,None,938.8192647,None,n,5.7319073,938.8192647,None,5.7319073,,,July18Silent1,4,2022_Jul_18_1417,ProdSingRedoBetween,2021.2.3,59.92706877
,,,,11,0,11,0,,,,,,,,,,,,,,,,,,,,,,949.9689889,None,,,,,,,,,,,,,,,,,population,107,12,silent,new,null,945.0987042,None,945.0987042,None,1,3.3484514,945.0987042,None,3.3484514,948.486527,None,948.9950226,None,948.9950226,None,f,0.9322759,948.9950226,None,0.9322759,,,July18Silent1,4,2022_Jul_18_1417,ProdSingRedoBetween,2021.2.3,59.92706877
,,,,12,0,12,0,,,,,,,,,,,,,,,,,,,,,,953.5006976,None,,,,,,,,,,,,,,,,,shock,103,13,silent,new,null,950.494778,None,950.494778,None,6,1.0883932,950.494778,None,1.0883932,951.6220498,None,952.1345868,None,952.1345868,None,r,1.3367277,952.1345868,None,1.3367277,,,July18Silent1,4,2022_Jul_18_1417,ProdSingRedoBetween,2021.2.3,59.92706877
,,,,13,0,13,0,,,,,,,,,,,,,,,,,,,,,,957.3555251,None,,,,,,,,,,,,,,,,,emergency,33,14,silent,old,blue,954.0247197,None,954.0247197,None,6,1.8943198,954.0247197,None,1.8943198,955.9503846,None,956.4631557,None,956.4631557,None,r,0.8642594,956.4631557,None,0.8642594,,,July18Silent1,4,2022_Jul_18_1417,ProdSingRedoBetween,2021.2.3,59.92706877
,,,,14,0,14,0,,,,,,,,,,,,,,,,,,,,,,961.3542247,None,,,,,,,,,,,,,,,,,bicycle,35,15,silent,old,blue,957.8815068,None,957.8815068,None,6,1.7095855,957.8815068,None,1.7095855,959.6251981,None,960.1416012,None,960.1416012,None,r,1.1936018,960.1416012,None,1.1936018,,,July18Silent1,4,2022_Jul_18_1417,ProdSingRedoBetween,2021.2.3,59.92706877
,,,,15,0,15,0,,,,,,,,,,,,,,,,,,,,,,968.7824983,None,,,,,,,,,,,,,,,,,entrance,39,16,silent,old,blue,961.8808621,None,961.8808621,None,4,2.3023686,961.8808621,None,2.3023686,964.2158234,None,964.7264733,None,964.7264733,None,f,4.0247239,964.7264733,None,4.0247239,,,July18Silent1,4,2022_Jul_18_1417,ProdSingRedoBetween,2021.2.3,59.92706877
,,,,16,0,16,0,,,,,,,,,,,,,,,,,,,,,,976.0008945,None,,,,,,,,,,,,,,,,,article,84,17,silent,old,red,969.3025157,None,969.3025157,None,2,3.6564547,969.3025157,None,3.6564547,972.9907362,None,973.4968222,None,973.4968222,None,f,2.4782319,973.4968222,None,2.4782319,,,July18Silent1,4,2022_Jul_18_1417,ProdSingRedoBetween,2021.2.3,59.92706877
,,,,17,0,17,0,,,,,,,,,,,,,,,,,,,,,,979.8373412,None,,,,,,,,,,,,,,,,,republic,167,18,silent,new,null,976.5129296,None,976.5129296,None,6,1.214064,976.5129296,None,1.214064,977.7520888,None,978.2635517,None,978.2635517,None,r,1.5435049,978.2635517,None,1.5435049,,,July18Silent1,4,2022_Jul_18_1417,ProdSingRedoBetween,2021.2.3,59.92706877
,,,,18,0,18,0,,,,,,,,,,,,,,,,,,,,,,984.7157044,None,,,,,,,,,,,,,,,,,victory,66,19,silent,old,red,980.3524166,None,980.3524166,None,3,2.246966,980.3524166,None,2.246966,982.6375093,None,983.1470823,None,983.1470823,None,f,1.5399753,983.1470823,None,1.5399753,,,July18Silent1,4,2022_Jul_18_1417,ProdSingRedoBetween,2021.2.3,59.92706877
,,,,19,0,19,0,,,,,,,,,,,,,,,,,,,,,,989.3703796,None,,,,,,,,,,,,,,,,,error,83,20,silent,old,red,985.2349683,None,985.2349683,None,3,2.1321238,985.2349683,None,2.1321238,987.3988527,None,987.9162144,None,987.9162144,None,f,1.4189557,987.9162144,None,1.4189557,,,July18Silent1,4,2022_Jul_18_1417,ProdSingRedoBetween,2021.2.3,59.92706877
,,,,20,0,20,0,,,,,,,,,,,,,,,,,,,,,,994.1432128,None,,,,,,,,,,,,,,,,,majority,150,21,silent,new,null,989.8941817,None,989.8941817,None,6,2.6408272,989.8941817,None,2.6408272,992.5753186,None,993.0935335,None,993.0935335,None,r,1.0256532,993.0935335,None,1.0256532,,,July18Silent1,4,2022_Jul_18_1417,ProdSingRedoBetween,2021.2.3,59.92706877
,,,,21,0,21,0,,,,,,,,,,,,,,,,,,,,,,998.1554733,None,,,,,,,,,,,,,,,,,pressure,16,22,silent,old,yellow,994.6612736,None,994.6612736,None,1,2.0179315,994.6612736,None,2.0179315,996.721275,None,997.2280506,None,997.2280506,None,f,0.8989303,997.2280506,None,0.8989303,,,July18Silent1,4,2022_Jul_18_1417,ProdSingRedoBetween,2021.2.3,59.92706877
,,,,22,0,22,0,,,,,,,,,,,,,,,,,,,,,,1003.151939,None,,,,,,,,,,,,,,,,,column,137,23,silent,new,null,998.6675371,None,998.6675371,None,6,2.4834814,998.6675371,None,2.4834814,1001.177489,None,1001.697429,None,1001.697429,None,f,1.4299588,1001.697429,None,1.4299588,,,July18Silent1,4,2022_Jul_18_1417,ProdSingRedoBetween,2021.2.3,59.92706877
,,,,23,0,23,0,,,,,,,,,,,,,,,,,,,,,,1006.633181,None,,,,,,,,,,,,,,,,,balance,36,24,silent,old,blue,1003.670203,None,1003.670203,None,6,1.5368113,1003.670203,None,1.5368113,1005.232991,None,1005.752893,None,1005.752893,None,r,0.8541694,1005.752893,None,0.8541694,,,July18Silent1,4,2022_Jul_18_1417,ProdSingRedoBetween,2021.2.3,59.92706877
,,,,24,0,24,0,,,,,,,,,,,,,,,,,,,,,,1011.039659,None,,,,,,,,,,,,,,,,,pretty,3,25,silent,old,yellow,1007.154353,None,1007.154353,None,3,1.6607643,1007.154353,None,1.6607643,1008.846305,None,1009.359196,None,1009.359196,None,f,1.6558363,1009.359196,None,1.6558363,,,July18Silent1,4,2022_Jul_18_1417,ProdSingRedoBetween,2021.2.3,59.92706877
,,,,25,0,25,0,,,,,,,,,,,,,,,,,,,,,,1016.280322,None,,,,,,,,,,,,,,,,,provision,25,26,silent,old,yellow,1011.568561,None,1011.568561,None,6,2.5025166,1011.568561,None,2.5025166,1014.095866,None,1014.611538,None,1014.611538,None,r,1.6434767,1014.611538,None,1.6434767,,,July18Silent1,4,2022_Jul_18_1417,ProdSingRedoBetween,2021.2.3,59.92706877
,,,,26,0,26,0,,,,,,,,,,,,,,,,,,,,,,1019.183207,None,,,,,,,,,,,,,,,,,benefit,9,27,silent,old,yellow,1016.790634,None,1016.790634,None,6,1.0487617,1016.790634,None,1.0487617,1017.878553,None,1018.384166,None,1018.384166,None,r,0.7669767,1018.384166,None,0.7669767,,,July18Silent1,4,2022_Jul_18_1417,ProdSingRedoBetween,2021.2.3,59.92706877
,,,,27,0,27,0,,,,,,,,,,,,,,,,,,,,,,1022.999499,None,,,,,,,,,,,,,,,,,solution,171,28,silent,new,null,1019.707024,None,1019.707024,None,6,1.8439884,1019.707024,None,1.8439884,1021.585165,None,1022.102067,None,1022.102067,None,r,0.873027,1022.102067,None,0.873027,,,July18Silent1,4,2022_Jul_18_1417,ProdSingRedoBetween,2021.2.3,59.92706877
,,,,28,0,28,0,,,,,,,,,,,,,,,,,,,,,,1027.319041,None,,,,,,,,,,,,,,,,,birth,168,29,silent,new,null,1023.526717,None,1023.526717,None,6,2.0563931,1023.526717,None,2.0563931,1025.61378,None,1026.121067,None,1026.121067,None,r,1.1741293,1026.121067,None,1.1741293,,,July18Silent1,4,2022_Jul_18_1417,ProdSingRedoBetween,2021.2.3,59.92706877
,,,,29,0,29,0,,,,,,,,,,,,,,,,,,,,,,1032.039113,None,,,,,,,,,,,,,,,,,recall,136,30,silent,new,null,1027.845115,None,1027.845115,None,1,1.3379328,1027.845115,None,1.3379328,1029.2097,None,1029.726005,None,1029.726005,None,n,2.2970232,1029.726005,None,2.2970232,,,July18Silent1,4,2022_Jul_18_1417,ProdSingRedoBetween,2021.2.3,59.92706877
,,,,30,0,30,0,,,,,,,,,,,,,,,,,,,,,,1036.493036,None,,,,,,,,,,,,,,,,,foundation,32,31,silent,old,blue,1032.552146,None,1032.552146,None,1,1.7348056,1032.552146,None,1.7348056,1034.307653,None,1034.831952,None,1034.831952,None,f,1.6390736,1034.831952,None,1.6390736,,,July18Silent1,4,2022_Jul_18_1417,ProdSingRedoBetween,2021.2.3,59.92706877
,,,,31,0,31,0,,,,,,,,,,,,,,,,,,,,,,1043.466666,None,,,,,,,,,,,,,,,,,century,4,32,silent,old,yellow,1036.996544,None,1036.996544,None,1,3.6664852,1036.996544,None,3.6664852,1040.69087,None,1041.206391,None,1041.206391,None,n,2.24064,1041.206391,None,2.24064,,,July18Silent1,4,2022_Jul_18_1417,ProdSingRedoBetween,2021.2.3,59.92706877
,,,,32,0,32,0,,,,,,,,,,,,,,,,,,,,,,1048.14798,None,,,,,,,,,,,,,,,,,rural,146,33,silent,new,null,1043.979481,None,1043.979481,None,3,2.139521,1043.979481,None,2.139521,1046.143158,None,1046.659868,None,1046.659868,None,n,1.4592812,1046.659868,None,1.4592812,,,July18Silent1,4,2022_Jul_18_1417,ProdSingRedoBetween,2021.2.3,59.92706877
,,,,33,0,33,0,,,,,,,,,,,,,,,,,,,,,,1053.334427,None,,,,,,,,,,,,,,,,,fashion,115,34,silent,new,null,1048.669666,None,1048.669666,None,6,2.9693379,1048.669666,None,2.9693379,1051.665397,None,1052.183782,None,1052.183782,None,r,1.1113931,1052.183782,None,1.1113931,,,July18Silent1,4,2022_Jul_18_1417,ProdSingRedoBetween,2021.2.3,59.92706877
,,,,34,0,34,0,,,,,,,,,,,,,,,,,,,,,,1061.008252,None,,,,,,,,,,,,,,,,,government,143,35,silent,new,null,1053.853584,None,1053.853584,None,1,3.4975002,1053.853584,None,3.4975002,1057.388728,None,1057.903939,None,1057.903939,None,n,3.0791544,1057.903939,None,3.0791544,,,July18Silent1,4,2022_Jul_18_1417,ProdSingRedoBetween,2021.2.3,59.92706877
,,,,35,0,35,0,,,,,,,,,,,,,,,,,,,,,,1068.108132,None,,,,,,,,,,,,,,,,,second,14,36,silent,old,yellow,1061.537318,None,1061.537318,None,6,4.3896458,1061.537318,None,4.3896458,1065.960219,None,1066.480801,None,1066.480801,None,r,1.6060376,1066.480801,None,1.6060376,,,July18Silent1,4,2022_Jul_18_1417,ProdSingRedoBetween,2021.2.3,59.92706877
,,,,36,0,36,0,,,,,,,,,,,,,,,,,,,,,,1072.150818,None,,,,,,,,,,,,,,,,,bureau,110,37,silent,new,null,1068.625038,None,1068.625038,None,1,1.6541245,1068.625038,None,1.6541245,1070.318761,None,1070.833962,None,1070.833962,None,n,1.2852882,1070.833962,None,1.2852882,,,July18Silent1,4,2022_Jul_18_1417,ProdSingRedoBetween,2021.2.3,59.92706877
,,,,37,0,37,0,,,,,,,,,,,,,,,,,,,,,,1078.654899,None,,,,,,,,,,,,,,,,,crime,177,38,silent,new,null,1072.674108,None,1072.674108,None,5,3.9248322,1072.674108,None,3.9248322,1076.627732,None,1077.138561,None,1077.138561,None,f,1.4926509,1077.138561,None,1.4926509,,,July18Silent1,4,2022_Jul_18_1417,ProdSingRedoBetween,2021.2.3,59.92706877
,,,,38,0,38,0,,,,,,,,,,,,,,,,,,,,,,1085.726485,None,,,,,,,,,,,,,,,,,household,101,39,silent,new,null,1079.18591,None,1079.18591,None,1,3.6850347,1079.18591,None,3.6850347,1082.897918,None,1083.414215,None,1083.414215,None,n,2.2808168,1083.414215,None,2.2808168,,,July18Silent1,4,2022_Jul_18_1417,ProdSingRedoBetween,2021.2.3,59.92706877
,,,,39,0,39,0,,,,,,,,,,,,,,,,,,,,,,1088.983928,None,,,,,,,,,,,,,,,,,research,126,40,silent,new,null,1086.240956,None,1086.240956,None,6,1.3421418,1086.240956,None,1.3421418,1087.627986,None,1088.135414,None,1088.135414,None,r,0.8156946,1088.135414,None,0.8156946,,,July18Silent1,4,2022_Jul_18_1417,ProdSingRedoBetween,2021.2.3,59.92706877
,,,,40,0,40,0,,,,,,,,,,,,,,,,,,,,,,1094.351542,None,,,,,,,,,,,,,,,,,center,120,41,silent,new,null,1089.506683,None,1089.506683,None,3,2.4362821,1089.506683,None,2.4362821,1091.969109,None,1092.488714,None,1092.488714,None,f,1.8462296,1092.488714,None,1.8462296,,,July18Silent1,4,2022_Jul_18_1417,ProdSingRedoBetween,2021.2.3,59.92706877
,,,,41,0,41,0,,,,,,,,,,,,,,,,,,,,,,1104.128522,None,,,,,,,,,,,,,,,,,drama,113,42,silent,new,null,1094.864451,None,1094.864451,None,6,7.20657,1094.864451,None,7.20657,1102.100115,None,1102.617103,None,1102.617103,None,r,1.4858886,1102.617103,None,1.4858886,,,July18Silent1,4,2022_Jul_18_1417,ProdSingRedoBetween,2021.2.3,59.92706877
,,,,42,0,42,0,,,,,,,,,,,,,,,,,,,,,,1106.964475,None,,,,,,,,,,,,,,,,,sound,158,43,silent,new,null,1104.6436,None,1104.6436,None,6,1.0834918,1104.6436,None,1.0834918,1105.764127,None,1106.266659,None,1106.266659,None,r,0.6683891,1106.266659,None,0.6683891,,,July18Silent1,4,2022_Jul_18_1417,ProdSingRedoBetween,2021.2.3,59.92706877
,,,,43,0,43,0,,,,,,,,,,,,,,,,,,,,,,1110.67278,None,,,,,,,,,,,,,,,,,drink,88,44,silent,old,red,1107.47784,None,1107.47784,None,3,1.3531568,1107.47784,None,1.3531568,1108.857366,None,1109.373013,None,1109.373013,None,f,1.2661335,1109.373013,None,1.2661335,,,July18Silent1,4,2022_Jul_18_1417,ProdSingRedoBetween,2021.2.3,59.92706877
,,,,44,0,44,0,,,,,,,,,,,,,,,,,,,,,,1114.505568,None,,,,,,,,,,,,,,,,,close,30,45,silent,old,blue,1111.195794,None,1111.195794,None,3,1.6751194,1111.195794,None,1.6751194,1112.910383,None,1113.42807,None,1113.42807,None,f,1.050827,1113.42807,None,1.050827,,,July18Silent1,4,2022_Jul_18_1417,ProdSingRedoBetween,2021.2.3,59.92706877
,,,,45,0,45,0,,,,,,,,,,,,,,,,,,,,,,1118.33291,None,,,,,,,,,,,,,,,,,pancakes,89,46,silent,old,red,1115.021814,None,1115.021814,None,6,1.633238,1115.021814,None,1.633238,1116.692552,None,1117.200209,None,1117.200209,None,r,1.0949509,1117.200209,None,1.0949509,,,July18Silent1,4,2022_Jul_18_1417,ProdSingRedoBetween,2021.2.3,59.92706877
,,,,46,0,46,0,,,,,,,,,,,,,,,,,,,,,,1122.564211,None,,,,,,,,,,,,,,,,,break,60,47,silent,old,red,1118.854553,None,1118.854553,None,4,1.9446286,1118.854553,None,1.9446286,1120.841308,None,1121.352315,None,1121.352315,None,f,1.182708,1121.352315,None,1.182708,,,July18Silent1,4,2022_Jul_18_1417,ProdSingRedoBetween,2021.2.3,59.92706877
,,,,47,0,47,0,,,,,,,,,,,,,,,,,,,,,,1126.367724,None,,,,,,,,,,,,,,,,,music,31,48,silent,old,blue,1123.091726,None,1123.091726,None,3,1.5233148,1123.091726,None,1.5233148,1124.647734,None,1125.155187,None,1125.155187,None,f,1.1798596,1125.155187,None,1.1798596,,,July18Silent1,4,2022_Jul_18_1417,ProdSingRedoBetween,2021.2.3,59.92706877
,,,,48,0,48,0,,,,,,,,,,,,,,,,,,,,,,1129.509923,None,,,,,,,,,,,,,,,,,empty,81,49,silent,old,red,1126.881003,None,1126.881003,None,6,1.2457775,1126.881003,None,1.2457775,1128.152434,None,1128.659949,None,1128.659949,None,r,0.8271596,1128.659949,None,0.8271596,,,July18Silent1,4,2022_Jul_18_1417,ProdSingRedoBetween,2021.2.3,59.92706877
,,,,49,0,49,0,,,,,,,,,,,,,,,,,,,,,,1136.179189,None,,,,,,,,,,,,,,,,,voice,13,50,silent,old,yellow,1130.036243,None,1130.036243,None,4,4.0666864,1130.036243,None,4.0666864,1134.127419,None,1134.647366,None,1134.647366,None,f,1.5115973,1134.647366,None,1.5115973,,,July18Silent1,4,2022_Jul_18_1417,ProdSingRedoBetween,2021.2.3,59.92706877
,,,,50,0,50,0,,,,,,,,,,,,,,,,,,,,,,1139.664106,None,,,,,,,,,,,,,,,,,weather,131,51,silent,new,null,1136.706197,None,1136.706197,None,6,1.4688994,1136.706197,None,1.4688994,1138.2096,None,1138.718636,None,1138.718636,None,r,0.9283069,1138.718636,None,0.9283069,,,July18Silent1,4,2022_Jul_18_1417,ProdSingRedoBetween,2021.2.3,59.92706877
,,,,51,0,51,0,,,,,,,,,,,,,,,,,,,,,,1144.485475,None,,,,,,,,,,,,,,,,,opening,18,52,silent,old,yellow,1140.181996,None,1140.181996,None,2,1.7131165,1140.181996,None,1.7131165,1141.930501,None,1142.441738,None,1142.441738,None,n,2.0212263,1142.441738,None,2.0212263,,,July18Silent1,4,2022_Jul_18_1417,ProdSingRedoBetween,2021.2.3,59.92706877
,,,,52,0,52,0,,,,,,,,,,,,,,,,,,,,,,1149.613817,None,,,,,,,,,,,,,,,,,addition,127,53,silent,new,null,1144.996312,None,1144.996312,None,5,3.5788005,1144.996312,None,3.5788005,1148.619325,None,1149.137485,None,1149.137485,None,f,0.4536585,1149.137485,None,0.4536585,,,July18Silent1,4,2022_Jul_18_1417,ProdSingRedoBetween,2021.2.3,59.92706877
,,,,53,0,53,0,,,,,,,,,,,,,,,,,,,,,,1162.468682,None,,,,,,,,,,,,,,,,,session,58,54,silent,old,blue,1150.138043,None,1150.138043,None,6,10.5967674,1150.138043,None,10.5967674,1160.759613,None,1161.267642,None,1161.267642,None,f,1.1791376,1161.267642,None,1.1791376,,,July18Silent1,4,2022_Jul_18_1417,ProdSingRedoBetween,2021.2.3,59.92706877
,,,,54,0,54,0,,,,,,,,,,,,,,,,,,,,,,1166.245718,None,,,,,,,,,,,,,,,,,collection,21,55,silent,old,yellow,1162.974744,None,1162.974744,None,4,1.4562308,1162.974744,None,1.4562308,1164.467568,None,1164.975036,None,1164.975036,None,f,1.248321,1164.975036,None,1.248321,,,July18Silent1,4,2022_Jul_18_1417,ProdSingRedoBetween,2021.2.3,59.92706877
,,,,55,0,55,0,,,,,,,,,,,,,,,,,,,,,,1171.230515,None,,,,,,,,,,,,,,,,,smell,90,56,silent,new,null,1166.758748,None,1166.758748,None,5,2.2721784,1166.758748,None,2.2721784,1169.06659,None,1169.584096,None,1169.584096,None,r,1.6149431,1169.584096,None,1.6149431,,,July18Silent1,4,2022_Jul_18_1417,ProdSingRedoBetween,2021.2.3,59.92706877
,,,,56,0,56,0,,,,,,,,,,,,,,,,,,,,,,1179.342872,None,,,,,,,,,,,,,,,,,chief,105,57,silent,new,null,1171.755781,None,1171.755781,None,2,3.683278,1171.755781,None,3.683278,1175.477114,None,1175.989616,None,1175.989616,None,r,3.3294828,1175.989616,None,3.3294828,,,July18Silent1,4,2022_Jul_18_1417,ProdSingRedoBetween,2021.2.3,59.92706877
,,,,57,0,57,0,,,,,,,,,,,,,,,,,,,,,,1183.149455,None,,,,,,,,,,,,,,,,,cross,102,58,silent,new,null,1179.86474,None,1179.86474,None,6,2.374267,1179.86474,None,2.374267,1182.262606,None,1182.783761,None,1182.783761,None,r,0.3354879,1182.783761,None,0.3354879,,,July18Silent1,4,2022_Jul_18_1417,ProdSingRedoBetween,2021.2.3,59.92706877
,,,,58,0,58,0,,,,,,,,,,,,,,,,,,,,,,1186.979852,None,,,,,,,,,,,,,,,,,trend,20,59,silent,old,yellow,1183.670584,None,1183.670584,None,4,1.6407841,1183.670584,None,1.6407841,1185.351382,None,1185.864295,None,1185.864295,None,f,1.0946115,1185.864295,None,1.0946115,,,July18Silent1,4,2022_Jul_18_1417,ProdSingRedoBetween,2021.2.3,59.92706877
,,,,59,0,59,0,,,,,,,,,,,,,,,,,,,,,,1191.426775,None,,,,,,,,,,,,,,,,,suspect,154,60,silent,new,null,1187.493746,None,1187.493746,None,3,2.6092095,1187.493746,None,2.6092095,1190.139105,None,1190.653656,None,1190.653656,None,f,0.7453435,1190.653656,None,0.7453435,,,July18Silent1,4,2022_Jul_18_1417,ProdSingRedoBetween,2021.2.3,59.92706877
,,,,60,0,60,0,,,,,,,,,,,,,,,,,,,,,,1196.254041,None,,,,,,,,,,,,,,,,,judge,41,61,silent,old,blue,1191.943077,None,1191.943077,None,1,2.6320183,1191.943077,None,2.6320183,1194.617641,None,1195.123582,None,1195.123582,None,n,1.1073518,1195.123582,None,1.1073518,,,July18Silent1,4,2022_Jul_18_1417,ProdSingRedoBetween,2021.2.3,59.92706877
,,,,61,0,61,0,,,,,,,,,,,,,,,,,,,,,,1208.706889,None,,,,,,,,,,,,,,,,,surface,77,62,silent,old,red,1196.768982,None,1196.768982,None,2,9.4620831,1196.768982,None,9.4620831,1206.279798,None,1206.787379,None,1206.787379,None,f,1.8838627,1206.787379,None,1.8838627,,,July18Silent1,4,2022_Jul_18_1417,ProdSingRedoBetween,2021.2.3,59.92706877
,,,,62,0,62,0,,,,,,,,,,,,,,,,,,,,,,1213.671553,None,,,,,,,,,,,,,,,,,trail,10,63,silent,old,yellow,1209.226605,None,1209.226605,None,6,1.2925403,1209.226605,None,1.2925403,1210.565599,None,1211.074518,None,1211.074518,None,r,2.5802904,1211.074518,None,2.5802904,,,July18Silent1,4,2022_Jul_18_1417,ProdSingRedoBetween,2021.2.3,59.92706877
,,,,63,0,63,0,,,,,,,,,,,,,,,,,,,,,,1217.774011,None,,,,,,,,,,,,,,,,,science,68,64,silent,old,red,1214.192196,None,1214.192196,None,3,1.8708158,1214.192196,None,1.8708158,1216.100544,None,1216.614709,None,1216.614709,None,f,1.1360044,1216.614709,None,1.1360044,,,July18Silent1,4,2022_Jul_18_1417,ProdSingRedoBetween,2021.2.3,59.92706877
,,,,64,0,64,0,,,,,,,,,,,,,,,,,,,,,,1222.216099,None,,,,,,,,,,,,,,,,,portion,63,65,silent,old,red,1218.285742,None,1218.285742,None,4,2.2332573,1218.285742,None,2.2332573,1220.560132,None,1221.06942,None,1221.06942,None,r,1.121571,1221.06942,None,1.121571,,,July18Silent1,4,2022_Jul_18_1417,ProdSingRedoBetween,2021.2.3,59.92706877
,,,,65,0,65,0,,,,,,,,,,,,,,,,,,,,,,1227.03314,None,,,,,,,,,,,,,,,,,career,85,66,silent,old,red,1222.741894,None,1222.741894,None,6,2.3929431,1222.741894,None,2.3929431,1225.188895,None,1225.69877,None,1225.69877,None,r,1.3079887,1225.69877,None,1.3079887,,,July18Silent1,4,2022_Jul_18_1417,ProdSingRedoBetween,2021.2.3,59.92706877
,,,,66,0,66,0,,,,,,,,,,,,,,,,,,,,,,1230.453345,None,,,,,,,,,,,,,,,,,native,6,67,silent,old,yellow,1227.539686,None,1227.539686,None,6,1.4913189,1227.539686,None,1.4913189,1229.065339,None,1229.578273,None,1229.578273,None,r,0.8525973,1229.578273,None,0.8525973,,,July18Silent1,4,2022_Jul_18_1417,ProdSingRedoBetween,2021.2.3,59.92706877
,,,,67,0,67,0,,,,,,,,,,,,,,,,,,,,,,1235.531284,None,,,,,,,,,,,,,,,,,tennis,98,68,silent,new,null,1230.96935,None,1230.96935,None,1,1.75769,1230.96935,None,1.75769,1232.772707,None,1233.28073,None,1233.28073,None,n,2.2222558,1233.28073,None,2.2222558,,,July18Silent1,4,2022_Jul_18_1417,ProdSingRedoBetween,2021.2.3,59.92706877
,,,,68,0,68,0,,,,,,,,,,,,,,,,,,,,,,1241.249549,None,,,,,,,,,,,,,,,,,pattern,8,69,silent,old,yellow,1236.053865,None,1236.053865,None,6,3.7929805,1236.053865,None,3.7929805,1239.87001,None,1240.386734,None,1240.386734,None,r,0.8442391,1240.386734,None,0.8442391,,,July18Silent1,4,2022_Jul_18_1417,ProdSingRedoBetween,2021.2.3,59.92706877
,,,,69,0,69,0,,,,,,,,,,,,,,,,,,,,,,1244.90495,None,,,,,,,,,,,,,,,,,taste,23,70,silent,old,yellow,1241.778693,None,1241.778693,None,3,1.3243033,1241.778693,None,1.3243033,1243.140938,None,1243.654891,None,1243.654891,None,f,1.2240868,1243.654891,None,1.2240868,,,July18Silent1,4,2022_Jul_18_1417,ProdSingRedoBetween,2021.2.3,59.92706877
,,,,70,0,70,0,,,,,,,,,,,,,,,,,,,,,,1247.920884,None,,,,,,,,,,,,,,,,,group,28,71,silent,old,yellow,1245.430518,None,1245.430518,None,6,1.0805503,1245.430518,None,1.0805503,1246.550047,None,1247.062739,None,1247.062739,None,r,0.8320355,1247.062739,None,0.8320355,,,July18Silent1,4,2022_Jul_18_1417,ProdSingRedoBetween,2021.2.3,59.92706877
,,,,71,0,71,0,,,,,,,,,,,,,,,,,,,,,,1251.313408,None,,,,,,,,,,,,,,,,,escape,147,72,silent,new,null,1248.435736,None,1248.435736,None,6,1.8673238,1248.435736,None,1.8673238,1250.341429,None,1250.848169,None,1250.848169,None,r,0.4309144,1250.848169,None,0.4309144,,,July18Silent1,4,2022_Jul_18_1417,ProdSingRedoBetween,2021.2.3,59.92706877
,,,,72,0,72,0,,,,,,,,,,,,,,,,,,,,,,1254.31429,None,,,,,,,,,,,,,,,,,edition,43,73,silent,old,blue,1251.838306,None,1251.838306,None,6,1.1126833,1251.838306,None,1.1126833,1252.991323,None,1253.499197,None,1253.499197,None,r,0.7957637,1253.499197,None,0.7957637,,,July18Silent1,4,2022_Jul_18_1417,ProdSingRedoBetween,2021.2.3,59.92706877
,,,,73,0,73,0,,,,,,,,,,,,,,,,,,,,,,1258.231106,None,,,,,,,,,,,,,,,,,vision,45,74,silent,old,blue,1254.844435,None,1254.844435,None,6,1.9225693,1254.844435,None,1.9225693,1256.803554,None,1257.324358,None,1257.324358,None,r,0.8905995,1257.324358,None,0.8905995,,,July18Silent1,4,2022_Jul_18_1417,ProdSingRedoBetween,2021.2.3,59.92706877
,,,,74,0,74,0,,,,,,,,,,,,,,,,,,,,,,1261.702026,None,,,,,,,,,,,,,,,,,childhood,54,75,silent,old,blue,1258.74681,None,1258.74681,None,6,1.3562223,1258.74681,None,1.3562223,1260.149886,None,1260.657992,None,1260.657992,None,r,1.0128221,1260.657992,None,1.0128221,,,July18Silent1,4,2022_Jul_18_1417,ProdSingRedoBetween,2021.2.3,59.92706877
,,,,75,0,75,0,,,,,,,,,,,,,,,,,,,,,,1264.114653,None,,,,,,,,,,,,,,,,,series,49,76,silent,old,blue,1262.219969,None,1262.219969,None,6,1.1950581,1262.219969,None,1.1950581,1263.452899,None,1263.972325,None,1263.972325,None,r,0.1147764,1263.972325,None,0.1147764,,,July18Silent1,4,2022_Jul_18_1417,ProdSingRedoBetween,2021.2.3,59.92706877
,,,,76,0,76,0,,,,,,,,,,,,,,,,,,,,,,1268.817142,None,,,,,,,,,,,,,,,,,cousin,97,77,silent,new,null,1264.635734,None,1264.635734,None,2,2.0033007,1264.635734,None,2.0033007,1266.671753,None,1267.182083,None,1267.182083,None,n,1.6088744,1267.182083,None,1.6088744,,,July18Silent1,4,2022_Jul_18_1417,ProdSingRedoBetween,2021.2.3,59.92706877
,,,,77,0,77,0,,,,,,,,,,,,,,,,,,,,,,1278.936544,None,,,,,,,,,,,,,,,,,charter,67,78,silent,old,red,1269.337612,None,1269.337612,None,6,4.4934804,1269.337612,None,4.4934804,1273.862687,None,1274.369828,None,1274.369828,None,f,4.5491798,1274.369828,None,4.5491798,,,July18Silent1,4,2022_Jul_18_1417,ProdSingRedoBetween,2021.2.3,59.92706877
,,,,78,0,78,0,,,,,,,,,,,,,,,,,,,,,,1284.194878,None,,,,,,,,,,,,,,,,,length,111,79,silent,new,null,1279.44943,None,1279.44943,None,3,2.2935728,1279.44943,None,2.2935728,1281.779845,None,1282.294457,None,1282.294457,None,n,1.8804769,1282.294457,None,1.8804769,,,July18Silent1,4,2022_Jul_18_1417,ProdSingRedoBetween,2021.2.3,59.92706877
,,,,79,0,79,0,,,,,,,,,,,,,,,,,,,,,,1288.19978,None,,,,,,,,,,,,,,,,,narrow,163,80,silent,new,null,1284.723418,None,1284.723418,None,3,1.5236449,1284.723418,None,1.5236449,1286.292727,None,1286.800448,None,1286.800448,None,n,1.3662686,1286.800448,None,1.3662686,,,July18Silent1,4,2022_Jul_18_1417,ProdSingRedoBetween,2021.2.3,59.92706877
,,,,80,0,80,0,,,,,,,,,,,,,,,,,,,,,,1293.340533,None,,,,,,,,,,,,,,,,,turkey,47,81,silent,old,blue,1288.711555,None,1288.711555,None,4,3.1273283,1288.711555,None,3.1273283,1291.872349,None,1292.38923,None,1292.38923,None,f,0.9137998,1292.38923,None,0.9137998,,,July18Silent1,4,2022_Jul_18_1417,ProdSingRedoBetween,2021.2.3,59.92706877
,,,,81,0,81,0,,,,,,,,,,,,,,,,,,,,,,1305.55171,None,,,,,,,,,,,,,,,,,committee,38,82,silent,old,blue,1293.860654,None,1293.860654,None,1,1.8103524,1293.860654,None,1.8103524,1295.714416,None,1296.226553,None,1296.226553,None,f,9.2924796,1296.226553,None,9.2924796,,,July18Silent1,4,2022_Jul_18_1417,ProdSingRedoBetween,2021.2.3,59.92706877
,,,,82,0,82,0,,,,,,,,,,,,,,,,,,,,,,1310.486323,None,,,,,,,,,,,,,,,,,afternoon,75,83,silent,old,red,1306.073952,None,1306.073952,None,6,2.5969833,1306.073952,None,2.5969833,1308.707694,None,1309.224905,None,1309.224905,None,r,1.2380182,1309.224905,None,1.2380182,,,July18Silent1,4,2022_Jul_18_1417,ProdSingRedoBetween,2021.2.3,59.92706877
,,,,83,0,83,0,,,,,,,,,,,,,,,,,,,,,,1316.440582,None,,,,,,,,,,,,,,,,,orchestra,50,84,silent,old,blue,1311.013552,None,1311.013552,None,3,3.3216069,1311.013552,None,3.3216069,1314.371472,None,1314.881177,None,1314.881177,None,n,1.5417587,1314.881177,None,1.5417587,,,July18Silent1,4,2022_Jul_18_1417,ProdSingRedoBetween,2021.2.3,59.92706877
,,,,84,0,84,0,,,,,,,,,,,,,,,,,,,,,,1320.485438,None,,,,,,,,,,,,,,,,,exchange,95,85,silent,new,null,1316.95358,None,1316.95358,None,3,1.9973358,1316.95358,None,1.9973358,1318.987451,None,1319.499997,None,1319.499997,None,f,0.9549199,1319.499997,None,0.9549199,,,July18Silent1,4,2022_Jul_18_1417,ProdSingRedoBetween,2021.2.3,59.92706877
,,,,85,0,85,0,,,,,,,,,,,,,,,,,,,,,,1328.559237,None,,,,,,,,,,,,,,,,,health,22,86,silent,old,yellow,1321.003572,None,1321.003572,None,2,1.9955206,1321.003572,None,1.9955206,1323.045707,None,1323.551013,None,1323.551013,None,n,4.9760201,1323.551013,None,4.9760201,,,July18Silent1,4,2022_Jul_18_1417,ProdSingRedoBetween,2021.2.3,59.92706877
,,,,86,0,86,0,,,,,,,,,,,,,,,,,,,,,,1334.9487,None,,,,,,,,,,,,,,,,,military,96,87,silent,new,null,1329.082441,None,1329.082441,None,4,2.8204766,1329.082441,None,2.8204766,1331.927968,None,1332.446781,None,1332.446781,None,f,2.4722041,1332.446781,None,2.4722041,,,July18Silent1,4,2022_Jul_18_1417,ProdSingRedoBetween,2021.2.3,59.92706877
,,,,87,0,87,0,,,,,,,,,,,,,,,,,,,,,,1340.404672,None,,,,,,,,,,,,,,,,,grade,72,88,silent,old,red,1335.468822,None,1335.468822,None,1,2.2338522,1335.468822,None,2.2338522,1337.72999,None,1338.246615,None,1338.246615,None,n,2.1284016,1338.246615,None,2.1284016,,,July18Silent1,4,2022_Jul_18_1417,ProdSingRedoBetween,2021.2.3,59.92706877
,,,,88,0,88,0,,,,,,,,,,,,,,,,,,,,,,1344.035965,None,,,,,,,,,,,,,,,,,object,134,89,silent,new,null,1340.928431,None,1340.928431,None,6,1.5265055,1340.928431,None,1.5265055,1342.50035,None,1343.006446,None,1343.006446,None,r,1.0085298,1343.006446,None,1.0085298,,,July18Silent1,4,2022_Jul_18_1417,ProdSingRedoBetween,2021.2.3,59.92706877
,,,,89,0,89,0,,,,,,,,,,,,,,,,,,,,,,1352.833374,None,,,,,,,,,,,,,,,,,watch,57,90,silent,old,blue,1344.563139,None,1344.563139,None,2,2.3720658,1344.563139,None,2.3720658,1346.969874,None,1347.477177,None,1347.477177,None,f,5.3296903,1347.477177,None,5.3296903,,,July18Silent1,4,2022_Jul_18_1417,ProdSingRedoBetween,2021.2.3,59.92706877
,,,,90,0,90,0,,,,,,,,,,,,,,,,,,,,,,1361.386817,None,,,,,,,,,,,,,,,,,thick,92,91,silent,new,null,1353.344401,None,1353.344401,None,3,5.7426494,1353.344401,None,5.7426494,1359.132018,None,1359.642263,None,1359.642263,None,n,1.7165897,1359.642263,None,1.7165897,,,July18Silent1,4,2022_Jul_18_1417,ProdSingRedoBetween,2021.2.3,59.92706877
,,,,91,0,91,0,,,,,,,,,,,,,,,,,,,,,,1366.873578,None,,,,,,,,,,,,,,,,,minute,17,92,silent,old,yellow,1361.913367,None,1361.913367,None,6,3.7173514,1361.913367,None,3.7173514,1365.662266,None,1366.178023,None,1366.178023,None,r,0.6765614,1366.178023,None,0.6765614,,,July18Silent1,4,2022_Jul_18_1417,ProdSingRedoBetween,2021.2.3,59.92706877
,,,,92,0,92,0,,,,,,,,,,,,,,,,,,,,,,1369.775772,None,,,,,,,,,,,,,,,,,service,118,93,silent,new,null,1367.388427,None,1367.388427,None,6,1.1222719,1367.388427,None,1.1222719,1368.543258,None,1369.058705,None,1369.058705,None,r,0.7000332,1369.058705,None,0.7000332,,,July18Silent1,4,2022_Jul_18_1417,ProdSingRedoBetween,2021.2.3,59.92706877
,,,,93,0,93,0,,,,,,,,,,,,,,,,,,,,,,1372.595244,None,,,,,,,,,,,,,,,,,harmony,12,94,silent,old,yellow,1370.291197,None,1370.291197,None,6,0.9716704,1370.291197,None,0.9716704,1371.305026,None,1371.820905,None,1371.820905,None,r,0.7538867,1371.820905,None,0.7538867,,,July18Silent1,4,2022_Jul_18_1417,ProdSingRedoBetween,2021.2.3,59.92706877
,,,,94,0,94,0,,,,,,,,,,,,,,,,,,,,,,1375.064953,None,,,,,,,,,,,,,,,,,speech,70,95,silent,old,red,1373.109827,None,1373.109827,None,6,1.1051479,1373.109827,None,1.1051479,1374.247931,None,1374.7582,None,1374.7582,None,r,0.2805752,1374.7582,None,0.2805752,,,July18Silent1,4,2022_Jul_18_1417,ProdSingRedoBetween,2021.2.3,59.92706877
,,,,95,0,95,0,,,,,,,,,,,,,,,,,,,,,,1378.908028,None,,,,,,,,,,,,,,,,,carry,175,96,silent,new,null,1375.577537,None,1375.577537,None,2,1.6533558,1375.577537,None,1.6533558,1377.257207,None,1377.774052,None,1377.774052,None,n,1.1128779,1377.774052,None,1.1128779,,,July18Silent1,4,2022_Jul_18_1417,ProdSingRedoBetween,2021.2.3,59.92706877
,,,,96,0,96,0,,,,,,,,,,,,,,,,,,,,,,1383.213631,None,,,,,,,,,,,,,,,,,south,76,97,silent,old,red,1379.427946,None,1379.427946,None,2,1.7868603,1379.427946,None,1.7868603,1381.244869,None,1381.762568,None,1381.762568,None,n,1.4283694,1381.762568,None,1.4283694,,,July18Silent1,4,2022_Jul_18_1417,ProdSingRedoBetween,2021.2.3,59.92706877
,,,,97,0,97,0,,,,,,,,,,,,,,,,,,,,,,1390.503978,None,,,,,,,,,,,,,,,,,track,1,98,silent,old,yellow,1383.733195,None,1383.733195,None,6,4.5616458,1383.733195,None,4.5616458,1388.317087,None,1388.832592,None,1388.832592,None,r,1.6463718,1388.832592,None,1.6463718,,,July18Silent1,4,2022_Jul_18_1417,ProdSingRedoBetween,2021.2.3,59.92706877
,,,,98,0,98,0,,,,,,,,,,,,,,,,,,,,,,1397.670206,None,,,,,,,,,,,,,,,,,relation,173,99,silent,new,null,1391.022571,None,1391.022571,None,2,4.840234,1391.022571,None,4.840234,1395.89281,None,1396.408487,None,1396.408487,None,n,1.2461476,1396.408487,None,1.2461476,,,July18Silent1,4,2022_Jul_18_1417,ProdSingRedoBetween,2021.2.3,59.92706877
,,,,99,0,99,0,,,,,,,,,,,,,,,,,,,,,,1401.632405,None,,,,,,,,,,,,,,,,,message,135,100,silent,new,null,1398.17102,None,1398.17102,None,6,1.9239627,1398.17102,None,1.9239627,1400.139341,None,1400.647092,None,1400.647092,None,r,0.9517996,1400.647092,None,0.9517996,,,July18Silent1,4,2022_Jul_18_1417,ProdSingRedoBetween,2021.2.3,59.92706877
,,,,100,0,100,0,,,,,,,,,,,,,,,,,,,,,,1405.86189,None,,,,,,,,,,,,,,,,,crisis,164,101,silent,new,null,1402.153853,None,1402.153853,None,3,1.9011667,1402.153853,None,1.9011667,1404.094463,None,1404.594244,None,1404.594244,None,f,1.2444441,1404.594244,None,1.2444441,,,July18Silent1,4,2022_Jul_18_1417,ProdSingRedoBetween,2021.2.3,59.92706877
,,,,101,0,101,0,,,,,,,,,,,,,,,,,,,,,,1409.020962,None,,,,,,,,,,,,,,,,,order,82,102,silent,old,red,1406.37771,None,1406.37771,None,6,1.2292615,1406.37771,None,1.2292615,1407.642835,None,1408.153484,None,1408.153484,None,r,0.8374799,1408.153484,None,0.8374799,,,July18Silent1,4,2022_Jul_18_1417,ProdSingRedoBetween,2021.2.3,59.92706877
,,,,102,0,102,0,,,,,,,,,,,,,,,,,,,,,,1412.101919,None,,,,,,,,,,,,,,,,,course,121,103,silent,new,null,1409.545806,None,1409.545806,None,6,1.1331322,1409.545806,None,1.1331322,1410.717205,None,1411.224283,None,1411.224283,None,r,0.8466134,1411.224283,None,0.8466134,,,July18Silent1,4,2022_Jul_18_1417,ProdSingRedoBetween,2021.2.3,59.92706877
,,,,103,0,103,0,,,,,,,,,,,,,,,,,,,,,,1414.3546,None,,,,,,,,,,,,,,,,,quiet,148,104,silent,new,null,1412.615779,None,1412.615779,None,6,1.1109245,1412.615779,None,1.1109245,1413.759229,None,1414.278381,None,1414.278381,None,r,0.0564814,1414.278381,None,0.0564814,,,July18Silent1,4,2022_Jul_18_1417,ProdSingRedoBetween,2021.2.3,59.92706877
,,,,104,0,104,0,,,,,,,,,,,,,,,,,,,,,,1418.693705,None,,,,,,,,,,,,,,,,,business,156,105,silent,new,null,1414.858864,None,1414.858864,None,3,1.4759174,1414.858864,None,1.4759174,1416.368444,None,1416.8728,None,1416.8728,None,n,1.7981029,1416.8728,None,1.7981029,,,July18Silent1,4,2022_Jul_18_1417,ProdSingRedoBetween,2021.2.3,59.92706877
,,,,105,0,105,0,,,,,,,,,,,,,,,,,,,,,,1421.44515,None,,,,,,,,,,,,,,,,,throw,162,106,silent,new,null,1419.219924,None,1419.219924,None,5,1.4029012,1419.219924,None,1.4029012,1420.650985,None,1421.160607,None,1421.160607,None,f,0.2542799,1421.160607,None,0.2542799,,,July18Silent1,4,2022_Jul_18_1417,ProdSingRedoBetween,2021.2.3,59.92706877
,,,,106,0,106,0,,,,,,,,,,,,,,,,,,,,,,1426.974037,None,,,,,,,,,,,,,,,,,distance,153,107,silent,new,null,1421.95913,None,1421.95913,None,3,2.047721,1421.95913,None,2.047721,1424.041418,None,1424.555976,None,1424.555976,None,n,2.3949236,1424.555976,None,2.3949236,,,July18Silent1,4,2022_Jul_18_1417,ProdSingRedoBetween,2021.2.3,59.92706877
,,,,107,0,107,0,,,,,,,,,,,,,,,,,,,,,,1430.888174,None,,,,,,,,,,,,,,,,,dozen,128,108,silent,new,null,1427.487329,None,1427.487329,None,4,1.9035554,1427.487329,None,1.9035554,1429.427202,None,1429.944633,None,1429.944633,None,f,0.9260493,1429.944633,None,0.9260493,,,July18Silent1,4,2022_Jul_18_1417,ProdSingRedoBetween,2021.2.3,59.92706877
,,,,108,0,108,0,,,,,,,,,,,,,,,,,,,,,,1435.332065,None,,,,,,,,,,,,,,,,,problem,51,109,silent,old,blue,1431.402186,None,1431.402186,None,6,2.0287439,1431.402186,None,2.0287439,1433.471163,None,1433.980395,None,1433.980395,None,r,1.314513,1433.980395,None,1.314513,,,July18Silent1,4,2022_Jul_18_1417,ProdSingRedoBetween,2021.2.3,59.92706877
,,,,109,0,109,0,,,,,,,,,,,,,,,,,,,,,,1442.833996,None,,,,,,,,,,,,,,,,,owner,65,110,silent,old,red,1435.85371,None,1435.85371,None,6,5.2090205,1435.85371,None,5.2090205,1441.089967,None,1441.605768,None,1441.605768,None,r,1.2089736,1441.605768,None,1.2089736,,,July18Silent1,4,2022_Jul_18_1417,ProdSingRedoBetween,2021.2.3,59.92706877
,,,,110,0,110,0,,,,,,,,,,,,,,,,,,,,,,1446.828154,None,,,,,,,,,,,,,,,,,stand,55,111,silent,old,blue,1443.360256,None,1443.360256,None,3,1.4866573,1443.360256,None,1.4866573,1444.878351,None,1445.384678,None,1445.384678,None,f,1.414175,1445.384678,None,1.414175,,,July18Silent1,4,2022_Jul_18_1417,ProdSingRedoBetween,2021.2.3,59.92706877
,,,,111,0,111,0,,,,,,,,,,,,,,,,,,,,,,1452.208727,None,,,,,,,,,,,,,,,,,rough,59,112,silent,old,yellow,1447.349173,None,1447.349173,None,6,3.1537384,1447.349173,None,3.1537384,1450.537846,None,1451.045028,None,1451.045028,None,r,1.137682,1451.045028,None,1.137682,,,July18Silent1,4,2022_Jul_18_1417,ProdSingRedoBetween,2021.2.3,59.92706877
,,,,112,0,112,0,,,,,,,,,,,,,,,,,,,,,,1456.196693,None,,,,,,,,,,,,,,,,,question,61,113,silent,old,red,1452.727089,None,1452.727089,None,6,1.7516538,1452.727089,None,1.7516538,1454.50374,None,1455.019348,None,1455.019348,None,r,1.1553851,1455.019348,None,1.1553851,,,July18Silent1,4,2022_Jul_18_1417,ProdSingRedoBetween,2021.2.3,59.92706877
,,,,113,0,113,0,,,,,,,,,,,,,,,,,,,,,,1465.592791,None,,,,,,,,,,,,,,,,,shear,155,114,silent,new,null,1456.709907,None,1456.709907,None,1,6.8888352,1456.709907,None,6.8888352,1463.624185,None,1464.145483,None,1464.145483,None,n,1.4212866,1464.145483,None,1.4212866,,,July18Silent1,4,2022_Jul_18_1417,ProdSingRedoBetween,2021.2.3,59.92706877
,,,,114,0,114,0,,,,,,,,,,,,,,,,,,,,,,1470.914181,None,,,,,,,,,,,,,,,,,strain,161,115,silent,new,null,1466.122674,None,1466.122674,None,4,3.3323746,1466.122674,None,3.3323746,1469.493867,None,1470.001159,None,1470.001159,None,n,0.8856724,1470.001159,None,0.8856724,,,July18Silent1,4,2022_Jul_18_1417,ProdSingRedoBetween,2021.2.3,59.92706877
,,,,115,0,115,0,,,,,,,,,,,,,,,,,,,,,,1474.088681,None,,,,,,,,,,,,,,,,,sweet,160,116,silent,new,null,1471.442092,None,1471.442092,None,6,1.2685358,1471.442092,None,1.2685358,1472.733529,None,1473.251244,None,1473.251244,None,r,0.8116073,1473.251244,None,0.8116073,,,July18Silent1,4,2022_Jul_18_1417,ProdSingRedoBetween,2021.2.3,59.92706877
,,,,116,0,116,0,,,,,,,,,,,,,,,,,,,,,,1476.924171,None,,,,,,,,,,,,,,,,,agreement,114,117,silent,new,null,1474.607277,None,1474.607277,None,6,0.9673851,1474.607277,None,0.9673851,1475.605396,None,1476.122616,None,1476.122616,None,r,0.764299,1476.122616,None,0.764299,,,July18Silent1,4,2022_Jul_18_1417,ProdSingRedoBetween,2021.2.3,59.92706877
,,,,117,0,117,0,,,,,,,,,,,,,,,,,,,,,,1480.552898,None,,,,,,,,,,,,,,,,,state,42,118,silent,old,blue,1477.44838,None,1477.44838,None,3,1.1741578,1477.44838,None,1.1741578,1478.65133,None,1479.151673,None,1479.151673,None,n,1.3749386,1479.151673,None,1.3749386,,,July18Silent1,4,2022_Jul_18_1417,ProdSingRedoBetween,2021.2.3,59.92706877
,,,,118,0,118,0,,,,,,,,,,,,,,,,,,,,,,1484.445824,None,,,,,,,,,,,,,,,,,figure,152,119,silent,new,null,1481.074316,None,1481.074316,None,3,1.6525286,1481.074316,None,1.6525286,1482.766203,None,1483.278504,None,1483.278504,None,n,1.1363851,1483.278504,None,1.1363851,,,July18Silent1,4,2022_Jul_18_1417,ProdSingRedoBetween,2021.2.3,59.92706877
,,,,119,0,119,0,,,,,,,,,,,,,,,,,,,,,,1487.843849,None,,,,,,,,,,,,,,,,,sleep,91,120,silent,new,null,1484.972019,None,1484.972019,None,6,1.3708032,1484.972019,None,1.3708032,1486.365236,None,1486.884812,None,1486.884812,None,r,0.9296856,1486.884812,None,0.9296856,,,July18Silent1,4,2022_Jul_18_1417,ProdSingRedoBetween,2021.2.3,59.92706877
,,,,120,0,120,0,,,,,,,,,,,,,,,,,,,,,,1492.890142,None,,,,,,,,,,,,,,,,,frank,27,121,silent,old,yellow,1488.363761,None,1488.363761,None,6,1.6590506,1488.363761,None,1.6590506,1490.05793,None,1490.57201,None,1490.57201,None,r,2.2828777,1490.57201,None,2.2828777,,,July18Silent1,4,2022_Jul_18_1417,ProdSingRedoBetween,2021.2.3,59.92706877
,,,,121,0,121,0,,,,,,,,,,,,,,,,,,,,,,1495.618053,None,,,,,,,,,,,,,,,,,property,37,122,silent,old,blue,1493.41222,None,1493.41222,None,6,0.9226675,1493.41222,None,0.9226675,1494.369233,None,1494.877825,None,1494.877825,None,r,0.7211056,1494.877825,None,0.7211056,,,July18Silent1,4,2022_Jul_18_1417,ProdSingRedoBetween,2021.2.3,59.92706877
,,,,122,0,122,0,,,,,,,,,,,,,,,,,,,,,,1499.108302,None,,,,,,,,,,,,,,,,,murder,69,123,silent,old,red,1496.133563,None,1496.133563,None,1,1.5375583,1496.133563,None,1.5375583,1497.701852,None,1498.209427,None,1498.209427,None,n,0.8772857,1498.209427,None,0.8772857,,,July18Silent1,4,2022_Jul_18_1417,ProdSingRedoBetween,2021.2.3,59.92706877
,,,,123,0,123,0,,,,,,,,,,,,,,,,,,,,,,1512.136494,None,,,,,,,,,,,,,,,,,scene,24,124,silent,old,yellow,1499.637089,None,1499.637089,None,1,6.9616088,1499.637089,None,6.9616088,1506.63487,None,1507.153,None,1507.153,None,r,4.9499462,1507.153,None,4.9499462,,,July18Silent1,4,2022_Jul_18_1417,ProdSingRedoBetween,2021.2.3,59.92706877
,,,,124,0,124,0,,,,,,,,,,,,,,,,,,,,,,1514.873368,None,,,,,,,,,,,,,,,,,subject,19,125,silent,old,yellow,1512.668749,None,1512.668749,None,6,1.2259434,1512.668749,None,1.2259434,1513.92809,None,1514.445156,None,1514.445156,None,r,0.4095293,1514.445156,None,0.4095293,,,July18Silent1,4,2022_Jul_18_1417,ProdSingRedoBetween,2021.2.3,59.92706877
,,,,125,0,125,0,,,,,,,,,,,,,,,,,,,,,,1519.749419,None,,,,,,,,,,,,,,,,,expansion,80,126,silent,old,red,1515.401417,None,1515.401417,None,1,2.2371733,1515.401417,None,2.2371733,1517.65672,None,1518.157523,None,1518.157523,None,n,1.5693769,1518.157523,None,1.5693769,,,July18Silent1,4,2022_Jul_18_1417,ProdSingRedoBetween,2021.2.3,59.92706877
,,,,126,0,126,0,,,,,,,,,,,,,,,,,,,,,,1524.735913,None,,,,,,,,,,,,,,,,,corner,117,127,silent,new,null,1520.269694,None,1520.269694,None,1,2.561065,1520.269694,None,2.561065,1522.87234,None,1523.382316,None,1523.382316,None,n,1.3285569,1523.382316,None,1.3285569,,,July18Silent1,4,2022_Jul_18_1417,ProdSingRedoBetween,2021.2.3,59.92706877
,,,,127,0,127,0,,,,,,,,,,,,,,,,,,,,,,1528.324894,None,,,,,,,,,,,,,,,,,general,46,128,silent,old,blue,1525.258202,None,1525.258202,None,6,1.3326874,1525.258202,None,1.3326874,1526.626994,None,1527.13854,None,1527.13854,None,r,1.1563079,1527.13854,None,1.1563079,,,July18Silent1,4,2022_Jul_18_1417,ProdSingRedoBetween,2021.2.3,59.92706877
,,,,128,0,128,0,,,,,,,,,,,,,,,,,,,,,,1531.472962,None,,,,,,,,,,,,,,,,,reach,2,129,silent,old,yellow,1528.845214,None,1528.845214,None,6,1.241413,1528.845214,None,1.241413,1530.108492,None,1530.626733,None,1530.626733,None,r,0.8281929,1530.626733,None,0.8281929,,,July18Silent1,4,2022_Jul_18_1417,ProdSingRedoBetween,2021.2.3,59.92706877
,,,,129,0,129,0,,,,,,,,,,,,,,,,,,,,,,1535.166147,None,,,,,,,,,,,,,,,,,brief,62,130,silent,old,red,1531.99852,None,1531.99852,None,6,1.632341,1531.99852,None,1.632341,1533.6705,None,1534.180278,None,1534.180278,None,r,0.9625095,1534.180278,None,0.9625095,,,July18Silent1,4,2022_Jul_18_1417,ProdSingRedoBetween,2021.2.3,59.92706877
,,,,130,0,130,0,,,,,,,,,,,,,,,,,,,,,,1538.211587,None,,,,,,,,,,,,,,,,,produce,122,131,silent,new,null,1535.687068,None,1535.687068,None,6,1.2637472,1535.687068,None,1.2637472,1536.981979,None,1537.5037,None,1537.5037,None,r,0.6869682,1537.5037,None,0.6869682,,,July18Silent1,4,2022_Jul_18_1417,ProdSingRedoBetween,2021.2.3,59.92706877
,,,,131,0,131,0,,,,,,,,,,,,,,,,,,,,,,1542.435107,None,,,,,,,,,,,,,,,,,department,169,132,silent,new,null,1538.730239,None,1538.730239,None,1,1.3563625,1538.730239,None,1.3563625,1540.120065,None,1540.636256,None,1540.636256,None,n,1.7702446,1540.636256,None,1.7702446,,,July18Silent1,4,2022_Jul_18_1417,ProdSingRedoBetween,2021.2.3,59.92706877
,,,,132,0,132,0,,,,,,,,,,,,,,,,,,,,,,1546.308,None,,,,,,,,,,,,,,,,,citizen,145,133,silent,new,null,1542.948641,None,1542.948641,None,6,1.8819194,1542.948641,None,1.8819194,1544.852138,None,1545.374759,None,1545.374759,None,r,0.9042783,1545.374759,None,0.9042783,,,July18Silent1,4,2022_Jul_18_1417,ProdSingRedoBetween,2021.2.3,59.92706877
,,,,133,0,133,0,,,,,,,,,,,,,,,,,,,,,,1554.344883,None,,,,,,,,,,,,,,,,,brilliant,34,134,silent,old,blue,1546.828935,None,1546.828935,None,3,5.4179165,1546.828935,None,5.4179165,1552.289892,None,1552.797283,None,1552.797283,None,f,1.5213751,1552.797283,None,1.5213751,,,July18Silent1,4,2022_Jul_18_1417,ProdSingRedoBetween,2021.2.3,59.92706877
,,,,134,0,134,0,,,,,,,,,,,,,,,,,,,,,,1560.567635,None,,,,,,,,,,,,,,,,,debate,125,135,silent,new,null,1554.855158,None,1554.855158,None,3,2.0078077,1554.855158,None,2.0078077,1556.89303,None,1557.401907,None,1557.401907,None,n,3.148789,1557.401907,None,3.148789,,,July18Silent1,4,2022_Jul_18_1417,ProdSingRedoBetween,2021.2.3,59.92706877
,,,,135,0,135,0,,,,,,,,,,,,,,,,,,,,,,1563.744823,None,,,,,,,,,,,,,,,,,public,100,136,silent,new,null,1561.080281,None,1561.080281,None,6,1.2784975,1561.080281,None,1.2784975,1562.402714,None,1562.911373,None,1562.911373,None,r,0.8073941,1562.911373,None,0.8073941,,,July18Silent1,4,2022_Jul_18_1417,ProdSingRedoBetween,2021.2.3,59.92706877
,,,,136,0,136,0,,,,,,,,,,,,,,,,,,,,,,1568.710001,None,,,,,,,,,,,,,,,,,meeting,48,137,silent,old,blue,1564.263999,None,1564.263999,None,3,2.5826445,1564.263999,None,2.5826445,1566.87726,None,1567.39835,None,1567.39835,None,n,1.2804753,1567.39835,None,1.2804753,,,July18Silent1,4,2022_Jul_18_1417,ProdSingRedoBetween,2021.2.3,59.92706877
,,,,137,0,137,0,,,,,,,,,,,,,,,,,,,,,,1571.86253,None,,,,,,,,,,,,,,,,,evidence,0,138,silent,old,yellow,1569.237463,None,1569.237463,None,6,1.1372397,1569.237463,None,1.1372397,1570.398747,None,1570.918561,None,1570.918561,None,r,0.9201367,1570.918561,None,0.9201367,,,July18Silent1,4,2022_Jul_18_1417,ProdSingRedoBetween,2021.2.3,59.92706877
,,,,138,0,138,0,,,,,,,,,,,,,,,,,,,,,,1576.590964,None,,,,,,,,,,,,,,,,,beginning,138,139,silent,new,null,1572.372433,None,1572.372433,None,3,2.3141858,1572.372433,None,2.3141858,1574.720299,None,1575.24028,None,1575.24028,None,n,1.3266173,1575.24028,None,1.3266173,,,July18Silent1,4,2022_Jul_18_1417,ProdSingRedoBetween,2021.2.3,59.92706877
,,,,139,0,139,0,,,,,,,,,,,,,,,,,,,,,,1586.303741,None,,,,,,,,,,,,,,,,,captain,56,140,silent,old,blue,1577.11757,None,1577.11757,None,6,0.9848816,1577.11757,None,0.9848816,1578.135427,None,1578.646995,None,1578.646995,None,r,7.6237553,1578.646995,None,7.6237553,,,July18Silent1,4,2022_Jul_18_1417,ProdSingRedoBetween,2021.2.3,59.92706877
,,,,140,0,140,0,,,,,,,,,,,,,,,,,,,,,,1592.865797,None,,,,,,,,,,,,,,,,,background,170,141,silent,new,null,1586.823835,None,1586.823835,None,2,3.57481,1586.823835,None,3.57481,1590.437025,None,1590.951667,None,1590.951667,None,n,1.895081,1590.951667,None,1.895081,,,July18Silent1,4,2022_Jul_18_1417,ProdSingRedoBetween,2021.2.3,59.92706877
,,,,141,0,141,0,,,,,,,,,,,,,,,,,,,,,,1596.120966,None,,,,,,,,,,,,,,,,,primary,11,142,silent,old,yellow,1593.385348,None,1593.385348,None,6,1.2534838,1593.385348,None,1.2534838,1594.683656,None,1595.192925,None,1595.192925,None,r,0.9096656,1595.192925,None,0.9096656,,,July18Silent1,4,2022_Jul_18_1417,ProdSingRedoBetween,2021.2.3,59.92706877
,,,,142,0,142,0,,,,,,,,,,,,,,,,,,,,,,1599.390484,None,,,,,,,,,,,,,,,,,passage,73,143,silent,old,red,1596.646715,None,1596.646715,None,6,1.2401656,1596.646715,None,1.2401656,1597.920384,None,1598.428295,None,1598.428295,None,r,0.9307648,1598.428295,None,0.9307648,,,July18Silent1,4,2022_Jul_18_1417,ProdSingRedoBetween,2021.2.3,59.92706877
,,,,143,0,143,0,,,,,,,,,,,,,,,,,,,,,,1606.149119,None,,,,,,,,,,,,,,,,,goose,139,144,silent,new,null,1599.917014,None,1599.917014,None,6,3.0495864,1599.917014,None,3.0495864,1602.997772,None,1603.516238,None,1603.516238,None,r,2.6102537,1603.516238,None,2.6102537,,,July18Silent1,4,2022_Jul_18_1417,ProdSingRedoBetween,2021.2.3,59.92706877
,,,,144,0,144,0,,,,,,,,,,,,,,,,,,,,,,1610.554598,None,,,,,,,,,,,,,,,,,point,178,145,silent,new,null,1606.666258,None,1606.666258,None,6,1.6362238,1606.666258,None,1.6362238,1608.334488,None,1608.847783,None,1608.847783,None,r,1.6869649,1608.847783,None,1.6869649,,,July18Silent1,4,2022_Jul_18_1417,ProdSingRedoBetween,2021.2.3,59.92706877
,,,,145,0,145,0,,,,,,,,,,,,,,,,,,,,,,1613.560727,None,,,,,,,,,,,,,,,,,individual,78,146,silent,old,red,1611.078482,None,1611.078482,None,6,1.0563099,1611.078482,None,1.0563099,1612.161008,None,1612.676808,None,1612.676808,None,r,0.8578651,1612.676808,None,0.8578651,,,July18Silent1,4,2022_Jul_18_1417,ProdSingRedoBetween,2021.2.3,59.92706877
,,,,146,0,146,0,,,,,,,,,,,,,,,,,,,,,,1617.573083,None,,,,,,,,,,,,,,,,,route,79,147,silent,old,red,1614.082634,None,1614.082634,None,1,1.6441273,1614.082634,None,1.6441273,1615.770387,None,1616.27839,None,1616.27839,None,n,1.2642297,1616.27839,None,1.2642297,,,July18Silent1,4,2022_Jul_18_1417,ProdSingRedoBetween,2021.2.3,59.92706877
,,,,147,0,147,0,,,,,,,,,,,,,,,,,,,,,,1621.234925,None,,,,,,,,,,,,,,,,,testimony,174,148,silent,new,null,1618.090062,None,1618.090062,None,2,1.6605727,1618.090062,None,1.6605727,1619.789408,None,1620.300474,None,1620.300474,None,n,0.8983718,1620.300474,None,0.8983718,,,July18Silent1,4,2022_Jul_18_1417,ProdSingRedoBetween,2021.2.3,59.92706877
,,,,148,0,148,0,,,,,,,,,,,,,,,,,,,,,,1626.648897,None,,,,,,,,,,,,,,,,,company,179,149,silent,new,null,1621.756795,None,1621.756795,None,6,2.7217635,1621.756795,None,2.7217635,1624.505402,None,1625.021295,None,1625.021295,None,r,1.6012757,1625.021295,None,1.6012757,,,July18Silent1,4,2022_Jul_18_1417,ProdSingRedoBetween,2021.2.3,59.92706877
,,,,149,0,149,0,,,,,,,,,,,,,,,,,,,,,,1630.410313,None,,,,,,,,,,,,,,,,,rapid,74,150,silent,old,red,1627.157542,None,1627.157542,None,3,1.6491097,1627.157542,None,1.6491097,1628.845168,None,1629.357204,None,1629.357204,None,n,1.0175707,1629.357204,None,1.0175707,,,July18Silent1,4,2022_Jul_18_1417,ProdSingRedoBetween,2021.2.3,59.92706877
,,,,150,0,150,0,,,,,,,,,,,,,,,,,,,,,,1634.581681,None,,,,,,,,,,,,,,,,,council,123,151,silent,new,null,1630.930529,None,1630.930529,None,3,1.8201074,1630.930529,None,1.8201074,1632.778159,None,1633.296365,None,1633.296365,None,r,1.2464018,1633.296365,None,1.2464018,,,July18Silent1,4,2022_Jul_18_1417,ProdSingRedoBetween,2021.2.3,59.92706877
,,,,151,0,151,0,,,,,,,,,,,,,,,,,,,,,,1650.912448,None,,,,,,,,,,,,,,,,,graduate,130,152,silent,new,null,1635.103401,None,1635.103401,None,3,12.4312871,1635.103401,None,12.4312871,1647.558294,None,1648.076612,None,1648.076612,None,f,2.8101196,1648.076612,None,2.8101196,,,July18Silent1,4,2022_Jul_18_1417,ProdSingRedoBetween,2021.2.3,59.92706877
,,,,152,0,152,0,,,,,,,,,,,,,,,,,,,,,,1654.762295,None,,,,,,,,,,,,,,,,,cover,15,153,silent,old,yellow,1651.434395,None,1651.434395,None,1,1.7725368,1651.434395,None,1.7725368,1653.243167,None,1653.749522,None,1653.749522,None,n,0.9930451,1653.749522,None,0.9930451,,,July18Silent1,4,2022_Jul_18_1417,ProdSingRedoBetween,2021.2.3,59.92706877
,,,,153,0,153,0,,,,,,,,,,,,,,,,,,,,,,1657.797398,None,,,,,,,,,,,,,,,,,commercial,132,154,silent,new,null,1655.288726,None,1655.288726,None,6,1.189985,1655.288726,None,1.189985,1656.512149,None,1657.020885,None,1657.020885,None,r,0.7457271,1657.020885,None,0.7457271,,,July18Silent1,4,2022_Jul_18_1417,ProdSingRedoBetween,2021.2.3,59.92706877
,,,,154,0,154,0,,,,,,,,,,,,,,,,,,,,,,1660.853306,None,,,,,,,,,,,,,,,,,audience,86,155,silent,old,red,1658.311617,None,1658.311617,None,1,1.390972,1658.311617,None,1.390972,1659.739755,None,1660.25401,None,1660.25401,None,n,0.5766231,1660.25401,None,0.5766231,,,July18Silent1,4,2022_Jul_18_1417,ProdSingRedoBetween,2021.2.3,59.92706877
,,,,155,0,155,0,,,,,,,,,,,,,,,,,,,,,,1663.937598,None,,,,,,,,,,,,,,,,,shape,40,156,silent,old,blue,1661.379059,None,1661.379059,None,6,1.2276807,1661.379059,None,1.2276807,1662.643863,None,1663.160257,None,1663.160257,None,r,0.7582945,1663.160257,None,0.7582945,,,July18Silent1,4,2022_Jul_18_1417,ProdSingRedoBetween,2021.2.3,59.92706877
,,,,156,0,156,0,,,,,,,,,,,,,,,,,,,,,,1667.790007,None,,,,,,,,,,,,,,,,,still,109,157,silent,new,null,1664.450581,None,1664.450581,None,6,2.48424,1664.450581,None,2.48424,1666.964373,None,1667.476097,None,1667.476097,None,r,0.2983492,1667.476097,None,0.2983492,,,July18Silent1,4,2022_Jul_18_1417,ProdSingRedoBetween,2021.2.3,59.92706877
,,,,157,0,157,0,,,,,,,,,,,,,,,,,,,,,,1671.394615,None,,,,,,,,,,,,,,,,,novel,149,158,silent,new,null,1668.292161,None,1668.292161,None,1,1.3065059,1668.292161,None,1.3065059,1669.659472,None,1670.163419,None,1670.163419,None,n,1.2031196,1670.163419,None,1.2031196,,,July18Silent1,4,2022_Jul_18_1417,ProdSingRedoBetween,2021.2.3,59.92706877
,,,,158,0,158,0,,,,,,,,,,,,,,,,,,,,,,1674.532714,None,,,,,,,,,,,,,,,,,profession,99,159,silent,new,null,1671.894896,None,1671.894896,None,6,1.2078489,1671.894896,None,1.2078489,1673.142315,None,1673.654095,None,1673.654095,None,r,0.856452,1673.654095,None,0.856452,,,July18Silent1,4,2022_Jul_18_1417,ProdSingRedoBetween,2021.2.3,59.92706877
,,,,159,0,159,0,,,,,,,,,,,,,,,,,,,,,,1678.169747,None,,,,,,,,,,,,,,,,,finance,165,160,silent,new,null,1675.052783,None,1675.052783,None,6,1.0819769,1675.052783,None,1.0819769,1676.176826,None,1676.68765,None,1676.68765,None,f,1.4631409,1676.68765,None,1.4631409,,,July18Silent1,4,2022_Jul_18_1417,ProdSingRedoBetween,2021.2.3,59.92706877
,,,,160,0,160,0,,,,,,,,,,,,,,,,,,,,,,1681.220044,None,,,,,,,,,,,,,,,,,weight,5,161,silent,old,yellow,1678.698632,None,1678.698632,None,1,1.5400022,1678.698632,None,1.5400022,1680.27829,None,1680.796148,None,1680.796148,None,n,0.3944338,1680.796148,None,0.3944338,,,July18Silent1,4,2022_Jul_18_1417,ProdSingRedoBetween,2021.2.3,59.92706877
,,,,161,0,161,0,,,,,,,,,,,,,,,,,,,,,,1684.698182,None,,,,,,,,,,,,,,,,,raise,141,162,silent,new,null,1681.73664,None,1681.73664,None,3,1.4219615,1681.73664,None,1.4219615,1683.19847,None,1683.713219,None,1683.713219,None,n,0.9575372,1683.713219,None,0.9575372,,,July18Silent1,4,2022_Jul_18_1417,ProdSingRedoBetween,2021.2.3,59.92706877
,,,,162,0,162,0,,,,,,,,,,,,,,,,,,,,,,1687.895203,None,,,,,,,,,,,,,,,,,region,129,163,silent,new,null,1685.219125,None,1685.219125,None,6,1.3554236,1685.219125,None,1.3554236,1686.599029,None,1687.116457,None,1687.116457,None,r,0.7543232,1687.116457,None,0.7543232,,,July18Silent1,4,2022_Jul_18_1417,ProdSingRedoBetween,2021.2.3,59.92706877
,,,,163,0,163,0,,,,,,,,,,,,,,,,,,,,,,1692.065172,None,,,,,,,,,,,,,,,,,congress,151,164,silent,new,null,1688.42209,None,1688.42209,None,3,1.6643682,1688.42209,None,1.6643682,1690.117011,None,1690.635774,None,1690.635774,None,n,1.4027889,1690.635774,None,1.4027889,,,July18Silent1,4,2022_Jul_18_1417,ProdSingRedoBetween,2021.2.3,59.92706877
,,,,164,0,164,0,,,,,,,,,,,,,,,,,,,,,,1700.173225,None,,,,,,,,,,,,,,,,,welcome,133,165,silent,new,null,1692.570307,None,1692.570307,None,6,1.4924073,1692.570307,None,1.4924073,1694.100612,None,1694.608301,None,1694.608301,None,n,5.5343637,1694.608301,None,5.5343637,,,July18Silent1,4,2022_Jul_18_1417,ProdSingRedoBetween,2021.2.3,59.92706877
,,,,165,0,165,0,,,,,,,,,,,,,,,,,,,,,,1704.400263,None,,,,,,,,,,,,,,,,,threat,64,166,silent,old,red,1700.68267,None,1700.68267,None,6,1.5559008,1700.68267,None,1.5559008,1702.262123,None,1702.779947,None,1702.779947,None,r,1.5867641,1702.779947,None,1.5867641,,,July18Silent1,4,2022_Jul_18_1417,ProdSingRedoBetween,2021.2.3,59.92706877
,,,,166,0,166,0,,,,,,,,,,,,,,,,,,,,,,1707.832069,None,,,,,,,,,,,,,,,,,level,140,167,silent,new,null,1704.924274,None,1704.924274,None,1,1.3943972,1704.924274,None,1.3943972,1706.357994,None,1706.869638,None,1706.869638,None,n,0.9290513,1706.869638,None,0.9290513,,,July18Silent1,4,2022_Jul_18_1417,ProdSingRedoBetween,2021.2.3,59.92706877
,,,,167,0,167,0,,,,,,,,,,,,,,,,,,,,,,1712.851618,None,,,,,,,,,,,,,,,,,junior,108,168,silent,new,null,1708.360253,None,1708.360253,None,1,2.8704396,1708.360253,None,2.8704396,1711.260578,None,1711.776174,None,1711.776174,None,n,1.0464446,1711.776174,None,1.0464446,,,July18Silent1,4,2022_Jul_18_1417,ProdSingRedoBetween,2021.2.3,59.92706877
,,,,168,0,168,0,,,,,,,,,,,,,,,,,,,,,,1716.478091,None,,,,,,,,,,,,,,,,,worker,116,169,silent,new,null,1713.368888,None,1713.368888,None,1,1.5336779,1713.368888,None,1.5336779,1714.936272,None,1715.44437,None,1715.44437,None,n,1.0102715,1715.44437,None,1.0102715,,,July18Silent1,4,2022_Jul_18_1417,ProdSingRedoBetween,2021.2.3,59.92706877
,,,,169,0,169,0,,,,,,,,,,,,,,,,,,,,,,1720.411337,None,,,,,,,,,,,,,,,,,power,29,170,silent,old,blue,1717.000345,None,1717.000345,None,6,1.1183502,1717.000345,None,1.1183502,1718.158027,None,1718.665948,None,1718.665948,None,r,1.7166587,1718.665948,None,1.7166587,,,July18Silent1,4,2022_Jul_18_1417,ProdSingRedoBetween,2021.2.3,59.92706877
,,,,170,0,170,0,,,,,,,,,,,,,,,,,,,,,,1724.364295,None,,,,,,,,,,,,,,,,,court,106,171,silent,new,null,1720.936594,None,1720.936594,None,1,1.9100005,1720.936594,None,1.9100005,1722.878427,None,1723.385864,None,1723.385864,None,n,0.9566653,1723.385864,None,0.9566653,,,July18Silent1,4,2022_Jul_18_1417,ProdSingRedoBetween,2021.2.3,59.92706877
,,,,171,0,171,0,,,,,,,,,,,,,,,,,,,,,,1728.166823,None,,,,,,,,,,,,,,,,,silence,157,172,silent,new,null,1724.883385,None,1724.883385,None,6,1.4751525,1724.883385,None,1.4751525,1726.392852,None,1726.905774,None,1726.905774,None,r,1.2365907,1726.905774,None,1.2365907,,,July18Silent1,4,2022_Jul_18_1417,ProdSingRedoBetween,2021.2.3,59.92706877
,,,,172,0,172,0,,,,,,,,,,,,,,,,,,,,,,1733.210857,None,,,,,,,,,,,,,,,,,equipment,52,173,silent,old,blue,1728.688018,None,1728.688018,None,6,2.9985368,1728.688018,None,2.9985368,1731.715132,None,1732.230751,None,1732.230751,None,r,0.9516225,1732.230751,None,0.9516225,,,July18Silent1,4,2022_Jul_18_1417,ProdSingRedoBetween,2021.2.3,59.92706877
,,,,173,0,173,0,,,,,,,,,,,,,,,,,,,,,,1737.200261,None,,,,,,,,,,,,,,,,,answer,124,174,silent,new,null,1733.737226,None,1733.737226,None,2,1.7972267,1733.737226,None,1.7972267,1735.557491,None,1736.058115,None,1736.058115,None,n,1.1166168,1736.058115,None,1.1166168,,,July18Silent1,4,2022_Jul_18_1417,ProdSingRedoBetween,2021.2.3,59.92706877
,,,,174,0,174,0,,,,,,,,,,,,,,,,,,,,,,1742.354451,None,,,,,,,,,,,,,,,,,hearing,112,175,silent,new,null,1737.720476,None,1737.720476,None,3,1.9502439,1737.720476,None,1.9502439,1739.709983,None,1740.219854,None,1740.219854,None,f,2.1068727,1740.219854,None,2.1068727,,,July18Silent1,4,2022_Jul_18_1417,ProdSingRedoBetween,2021.2.3,59.92706877
,,,,175,0,175,0,,,,,,,,,,,,,,,,,,,,,,1747.53793,None,,,,,,,,,,,,,,,,,territory,104,176,silent,new,null,1742.877397,None,1742.877397,None,1,2.4972765,1742.877397,None,2.4972765,1745.41574,None,1745.92321,None,1745.92321,None,n,1.5953466,1745.92321,None,1.5953466,,,July18Silent1,4,2022_Jul_18_1417,ProdSingRedoBetween,2021.2.3,59.92706877
,,,,176,0,176,0,,,,,,,,,,,,,,,,,,,,,,1751.647957,None,,,,,,,,,,,,,,,,,volume,7,177,silent,old,yellow,1748.066605,None,1748.066605,None,6,2.0519524,1748.066605,None,2.0519524,1750.145903,None,1750.666424,None,1750.666424,None,r,0.9561494,1750.666424,None,0.9561494,,,July18Silent1,4,2022_Jul_18_1417,ProdSingRedoBetween,2021.2.3,59.92706877
,,,,177,0,177,0,,,,,,,,,,,,,,,,,,,,,,1754.917398,None,,,,,,,,,,,,,,,,,mayor,159,178,silent,new,null,1752.168446,None,1752.168446,None,1,1.2941609,1752.168446,None,1.2941609,1753.502942,None,1754.016547,None,1754.016547,None,n,0.8700371,1754.016547,None,0.8700371,,,July18Silent1,4,2022_Jul_18_1417,ProdSingRedoBetween,2021.2.3,59.92706877
,,,,178,0,178,0,,,,,,,,,,,,,,,,,,,,,,1757.913236,None,,,,,,,,,,,,,,,,,platform,71,179,silent,old,red,1755.440885,None,1755.440885,None,6,1.4297094,1755.440885,None,1.4297094,1756.905453,None,1757.429071,None,1757.429071,None,r,0.4573037,1757.429071,None,0.4573037,,,July18Silent1,4,2022_Jul_18_1417,ProdSingRedoBetween,2021.2.3,59.92706877
,,,,179,0,179,0,,,,,,,,,,,,,,,,,,,,,,1761.124386,None,,,,,,,,,,,,,,,,,season,176,180,silent,new,null,1758.425788,None,1758.425788,None,1,1.0930146,1758.425788,None,1.0930146,1759.574276,None,1760.092149,None,1760.092149,None,n,1.0024545,1760.092149,None,1.0024545,,,July18Silent1,4,2022_Jul_18_1417,ProdSingRedoBetween,2021.2.3,59.92706877
,,,,,,,,,,,,,,,,,,,,,,,,,,,,,,,,,,,,,,,,,,,,,,,,,,,,,,,,,,,,,,,,,,,,,,,,,1761.634398,None,,,,,,
