StudyLoop.thisRepN,StudyLoop.thisTrialN,StudyLoop.thisN,StudyLoop.thisIndex,TestLoop.thisRepN,TestLoop.thisTrialN,TestLoop.thisN,TestLoop.thisIndex,textCondition.started,textCondition.stopped,keyCondition.keys,keyCondition.rt,keyCondition.started,keyCondition.stopped,Condition,textWelcome.started,textWelcome.stopped,keyWelcome.keys,keyWelcome.rt,keyWelcome.started,keyWelcome.stopped,textAloud.started,textAloud.stopped,textSilent.started,textSilent.stopped,textSing.started,textSing.stopped,conditional_text.started,conditional_text.stopped,textBlank500.started,textBlank500.stopped,study_word,study_num,study_order,study_type,word_color,textStudy.started,textStudy.stopped,keyStudy.keys,keyStudy.started,keyStudy.stopped,textTestInstructions.started,textTestInstructions.stopped,key_resp_3.keys,key_resp_3.rt,key_resp_3.started,key_resp_3.stopped,test_word,test_num,test_order,test_condition,old_new_test,test_word_original_color,textConf.started,textConf.stopped,textConfScale.started,textConfScale.stopped,keyConf.keys,keyConf.rt,keyConf.started,keyConf.stopped,confidence response time,textTestBlank.started,textTestBlank.stopped,textRKN.started,textRKN.stopped,textRKNScale.started,textRKNScale.stopped,keyRKN.keys,keyRKN.rt,keyRKN.started,keyRKN.stopped,rkn response time,textEnd.started,textEnd.stopped,participant,session,date,expName,psychopyVersion,frameRate,
,,,,,,,,24.9178089001216,None,a,106.48094579996541,24.9178089001216,None,,,,,,,,,,,,,,,,,,,,,,,,,,,,,,,,,,,,,,,,,,,,,,,,,,,,,,,,,,,,,,silent7,001,2022_Jul_27_1133,ProdSingRedoBetween,2021.2.3,59.85930672912203,
,,,,,,,,,,,,,,SilentTest,131.48322310019284,None,space,27.859506499953568,131.48322310019284,None,,,,,,,,,,,,,,,,,,,,,,,,,,,,,,,,,,,,,,,,,,,,,,,,,,,,,,,silent7,001,2022_Jul_27_1133,ProdSingRedoBetween,2021.2.3,59.85930672912203,
0,0,0,0,,,,,,,,,,,,,,,,,,131.48322310019284,None,131.48322310019284,None,131.48322310019284,None,131.48322310019284,None,161.88498889980838,None,opening,21,1,silent,yellow,159.88477679993957,None,None,159.88477679993957,None,,,,,,,,,,,,,,,,,,,,,,,,,,,,,,,,,,,silent7,001,2022_Jul_27_1133,ProdSingRedoBetween,2021.2.3,59.85930672912203,
1,0,1,0,,,,,,,,,,,,,,,,,,,,,,,,,,164.38770719990134,None,afternoon,73,2,silent,red,162.38559699989855,None,None,162.38559699989855,None,,,,,,,,,,,,,,,,,,,,,,,,,,,,,,,,,,,silent7,001,2022_Jul_27_1133,ProdSingRedoBetween,2021.2.3,59.85930672912203,
2,0,2,0,,,,,,,,,,,,,,,,,,,,,,,,,,166.90699429996312,None,route,45,3,silent,blue,164.89698750013486,None,None,164.89698750013486,None,,,,,,,,,,,,,,,,,,,,,,,,,,,,,,,,,,,silent7,001,2022_Jul_27_1133,ProdSingRedoBetween,2021.2.3,59.85930672912203,
3,0,3,0,,,,,,,,,,,,,,,,,,,,,,,,,,169.41089309984818,None,impact,22,4,silent,yellow,167.40731400018558,None,None,167.40731400018558,None,,,,,,,,,,,,,,,,,,,,,,,,,,,,,,,,,,,silent7,001,2022_Jul_27_1133,ProdSingRedoBetween,2021.2.3,59.85930672912203,
4,0,4,0,,,,,,,,,,,,,,,,,,,,,,,,,,171.92864160006866,None,election,18,5,silent,yellow,169.91881019994617,None,None,169.91881019994617,None,,,,,,,,,,,,,,,,,,,,,,,,,,,,,,,,,,,silent7,001,2022_Jul_27_1133,ProdSingRedoBetween,2021.2.3,59.85930672912203,
5,0,5,0,,,,,,,,,,,,,,,,,,,,,,,,,,174.44782170001417,None,suspect,27,6,silent,yellow,172.4394558002241,None,None,172.4394558002241,None,,,,,,,,,,,,,,,,,,,,,,,,,,,,,,,,,,,silent7,001,2022_Jul_27_1133,ProdSingRedoBetween,2021.2.3,59.85930672912203,
6,0,6,0,,,,,,,,,,,,,,,,,,,,,,,,,,176.96700339997187,None,present,17,7,silent,yellow,174.95770609984174,None,None,174.95770609984174,None,,,,,,,,,,,,,,,,,,,,,,,,,,,,,,,,,,,silent7,001,2022_Jul_27_1133,ProdSingRedoBetween,2021.2.3,59.85930672912203,
7,0,7,0,,,,,,,,,,,,,,,,,,,,,,,,,,179.48617980023846,None,object,8,8,silent,yellow,177.48527469998226,None,None,177.48527469998226,None,,,,,,,,,,,,,,,,,,,,,,,,,,,,,,,,,,,silent7,001,2022_Jul_27_1133,ProdSingRedoBetween,2021.2.3,59.85930672912203,
8,0,8,0,,,,,,,,,,,,,,,,,,,,,,,,,,182.0053673000075,None,drama,88,9,silent,red,179.9929073001258,None,None,179.9929073001258,None,,,,,,,,,,,,,,,,,,,,,,,,,,,,,,,,,,,silent7,001,2022_Jul_27_1133,ProdSingRedoBetween,2021.2.3,59.85930672912203,
9,0,9,0,,,,,,,,,,,,,,,,,,,,,,,,,,184.50772769981995,None,audience,80,10,silent,red,182.50771709997207,None,None,182.50771709997207,None,,,,,,,,,,,,,,,,,,,,,,,,,,,,,,,,,,,silent7,001,2022_Jul_27_1133,ProdSingRedoBetween,2021.2.3,59.85930672912203,
10,0,10,0,,,,,,,,,,,,,,,,,,,,,,,,,,187.02704269997776,None,science,59,11,silent,yellow,185.01944589987397,None,None,185.01944589987397,None,,,,,,,,,,,,,,,,,,,,,,,,,,,,,,,,,,,silent7,001,2022_Jul_27_1133,ProdSingRedoBetween,2021.2.3,59.85930672912203,
11,0,11,0,,,,,,,,,,,,,,,,,,,,,,,,,,189.54622549982741,None,growth,67,12,silent,red,187.5435015000403,None,None,187.5435015000403,None,,,,,,,,,,,,,,,,,,,,,,,,,,,,,,,,,,,silent7,001,2022_Jul_27_1133,ProdSingRedoBetween,2021.2.3,59.85930672912203,
12,0,12,0,,,,,,,,,,,,,,,,,,,,,,,,,,192.06513610016555,None,block,20,13,silent,yellow,190.05790439993143,None,None,190.05790439993143,None,,,,,,,,,,,,,,,,,,,,,,,,,,,,,,,,,,,silent7,001,2022_Jul_27_1133,ProdSingRedoBetween,2021.2.3,59.85930672912203,
13,0,13,0,,,,,,,,,,,,,,,,,,,,,,,,,,194.56791129987687,None,scale,62,14,silent,red,192.56894859997556,None,None,192.56894859997556,None,,,,,,,,,,,,,,,,,,,,,,,,,,,,,,,,,,,silent7,001,2022_Jul_27_1133,ProdSingRedoBetween,2021.2.3,59.85930672912203,
14,0,14,0,,,,,,,,,,,,,,,,,,,,,,,,,,197.07044850010425,None,exchange,46,15,silent,blue,195.06811359990388,None,None,195.06811359990388,None,,,,,,,,,,,,,,,,,,,,,,,,,,,,,,,,,,,silent7,001,2022_Jul_27_1133,ProdSingRedoBetween,2021.2.3,59.85930672912203,
15,0,15,0,,,,,,,,,,,,,,,,,,,,,,,,,,199.57293300004676,None,blind,43,16,silent,blue,197.57064499985427,None,None,197.57064499985427,None,,,,,,,,,,,,,,,,,,,,,,,,,,,,,,,,,,,silent7,001,2022_Jul_27_1133,ProdSingRedoBetween,2021.2.3,59.85930672912203,
16,0,16,0,,,,,,,,,,,,,,,,,,,,,,,,,,202.09208350023255,None,strength,23,17,silent,yellow,200.08374920021743,None,None,200.08374920021743,None,,,,,,,,,,,,,,,,,,,,,,,,,,,,,,,,,,,silent7,001,2022_Jul_27_1133,ProdSingRedoBetween,2021.2.3,59.85930672912203,
17,0,17,0,,,,,,,,,,,,,,,,,,,,,,,,,,204.61127260001376,None,machinery,82,18,silent,red,202.60432989988476,None,None,202.60432989988476,None,,,,,,,,,,,,,,,,,,,,,,,,,,,,,,,,,,,silent7,001,2022_Jul_27_1133,ProdSingRedoBetween,2021.2.3,59.85930672912203,
18,0,18,0,,,,,,,,,,,,,,,,,,,,,,,,,,207.13046190002933,None,break,58,19,silent,blue,205.118826800026,None,None,205.118826800026,None,,,,,,,,,,,,,,,,,,,,,,,,,,,,,,,,,,,silent7,001,2022_Jul_27_1133,ProdSingRedoBetween,2021.2.3,59.85930672912203,
19,0,19,0,,,,,,,,,,,,,,,,,,,,,,,,,,209.64958399999887,None,weight,34,20,silent,blue,207.64256560010836,None,None,207.64256560010836,None,,,,,,,,,,,,,,,,,,,,,,,,,,,,,,,,,,,silent7,001,2022_Jul_27_1133,ProdSingRedoBetween,2021.2.3,59.85930672912203,
20,0,20,0,,,,,,,,,,,,,,,,,,,,,,,,,,212.16881520021707,None,alert,76,21,silent,red,210.1554225999862,None,None,210.1554225999862,None,,,,,,,,,,,,,,,,,,,,,,,,,,,,,,,,,,,silent7,001,2022_Jul_27_1133,ProdSingRedoBetween,2021.2.3,59.85930672912203,
21,0,21,0,,,,,,,,,,,,,,,,,,,,,,,,,,214.68800440011546,None,finance,79,22,silent,red,212.68423740006983,None,None,212.68423740006983,None,,,,,,,,,,,,,,,,,,,,,,,,,,,,,,,,,,,silent7,001,2022_Jul_27_1133,ProdSingRedoBetween,2021.2.3,59.85930672912203,
22,0,22,0,,,,,,,,,,,,,,,,,,,,,,,,,,217.20718540018424,None,front,31,23,silent,blue,215.19636020017788,None,None,215.19636020017788,None,,,,,,,,,,,,,,,,,,,,,,,,,,,,,,,,,,,silent7,001,2022_Jul_27_1133,ProdSingRedoBetween,2021.2.3,59.85930672912203,
23,0,23,0,,,,,,,,,,,,,,,,,,,,,,,,,,219.72638690005988,None,property,70,24,silent,red,217.72513310005888,None,None,217.72513310005888,None,,,,,,,,,,,,,,,,,,,,,,,,,,,,,,,,,,,silent7,001,2022_Jul_27_1133,ProdSingRedoBetween,2021.2.3,59.85930672912203,
24,0,24,0,,,,,,,,,,,,,,,,,,,,,,,,,,222.24519230006263,None,substance,44,25,silent,blue,220.2364532002248,None,None,220.2364532002248,None,,,,,,,,,,,,,,,,,,,,,,,,,,,,,,,,,,,silent7,001,2022_Jul_27_1133,ProdSingRedoBetween,2021.2.3,59.85930672912203,
25,0,25,0,,,,,,,,,,,,,,,,,,,,,,,,,,224.76465209992602,None,death,35,26,silent,blue,222.75676759984344,None,None,222.75676759984344,None,,,,,,,,,,,,,,,,,,,,,,,,,,,,,,,,,,,silent7,001,2022_Jul_27_1133,ProdSingRedoBetween,2021.2.3,59.85930672912203,
26,0,26,0,,,,,,,,,,,,,,,,,,,,,,,,,,227.28390569984913,None,course,7,27,silent,yellow,225.27426900016144,None,None,225.27426900016144,None,,,,,,,,,,,,,,,,,,,,,,,,,,,,,,,,,,,silent7,001,2022_Jul_27_1133,ProdSingRedoBetween,2021.2.3,59.85930672912203,
27,0,27,0,,,,,,,,,,,,,,,,,,,,,,,,,,229.80307959998026,None,school,24,28,silent,yellow,227.79952610004693,None,None,227.79952610004693,None,,,,,,,,,,,,,,,,,,,,,,,,,,,,,,,,,,,silent7,001,2022_Jul_27_1133,ProdSingRedoBetween,2021.2.3,59.85930672912203,
28,0,28,0,,,,,,,,,,,,,,,,,,,,,,,,,,232.32223910000175,None,service,84,29,silent,red,230.32003600010648,None,None,230.32003600010648,None,,,,,,,,,,,,,,,,,,,,,,,,,,,,,,,,,,,silent7,001,2022_Jul_27_1133,ProdSingRedoBetween,2021.2.3,59.85930672912203,
29,0,29,0,,,,,,,,,,,,,,,,,,,,,,,,,,234.84144280012697,None,position,87,30,silent,red,232.83724740007892,None,None,232.83724740007892,None,,,,,,,,,,,,,,,,,,,,,,,,,,,,,,,,,,,silent7,001,2022_Jul_27_1133,ProdSingRedoBetween,2021.2.3,59.85930672912203,
30,0,30,0,,,,,,,,,,,,,,,,,,,,,,,,,,237.3605953999795,None,length,71,31,silent,red,235.34718840010464,None,None,235.34718840010464,None,,,,,,,,,,,,,,,,,,,,,,,,,,,,,,,,,,,silent7,001,2022_Jul_27_1133,ProdSingRedoBetween,2021.2.3,59.85930672912203,
31,0,31,0,,,,,,,,,,,,,,,,,,,,,,,,,,239.87980980006978,None,track,65,32,silent,red,237.87735000019893,None,None,237.87735000019893,None,,,,,,,,,,,,,,,,,,,,,,,,,,,,,,,,,,,silent7,001,2022_Jul_27_1133,ProdSingRedoBetween,2021.2.3,59.85930672912203,
32,0,32,0,,,,,,,,,,,,,,,,,,,,,,,,,,242.3990032998845,None,population,66,33,silent,red,240.39041330013424,None,None,240.39041330013424,None,,,,,,,,,,,,,,,,,,,,,,,,,,,,,,,,,,,silent7,001,2022_Jul_27_1133,ProdSingRedoBetween,2021.2.3,59.85930672912203,
33,0,33,0,,,,,,,,,,,,,,,,,,,,,,,,,,244.91815839987248,None,accident,9,34,silent,yellow,242.9144339999184,None,None,242.9144339999184,None,,,,,,,,,,,,,,,,,,,,,,,,,,,,,,,,,,,silent7,001,2022_Jul_27_1133,ProdSingRedoBetween,2021.2.3,59.85930672912203,
34,0,34,0,,,,,,,,,,,,,,,,,,,,,,,,,,247.4373301998712,None,season,53,35,silent,blue,245.42778469994664,None,None,245.42778469994664,None,,,,,,,,,,,,,,,,,,,,,,,,,,,,,,,,,,,silent7,001,2022_Jul_27_1133,ProdSingRedoBetween,2021.2.3,59.85930672912203,
35,0,35,0,,,,,,,,,,,,,,,,,,,,,,,,,,249.9565333002247,None,theme,57,36,silent,blue,247.95082330005243,None,None,247.95082330005243,None,,,,,,,,,,,,,,,,,,,,,,,,,,,,,,,,,,,silent7,001,2022_Jul_27_1133,ProdSingRedoBetween,2021.2.3,59.85930672912203,
36,0,36,0,,,,,,,,,,,,,,,,,,,,,,,,,,252.47553970012814,None,mankind,38,37,silent,blue,250.46598639991134,None,None,250.46598639991134,None,,,,,,,,,,,,,,,,,,,,,,,,,,,,,,,,,,,silent7,001,2022_Jul_27_1133,ProdSingRedoBetween,2021.2.3,59.85930672912203,
37,0,37,0,,,,,,,,,,,,,,,,,,,,,,,,,,254.99491100013256,None,under,5,38,silent,yellow,252.99574950011447,None,None,252.99574950011447,None,,,,,,,,,,,,,,,,,,,,,,,,,,,,,,,,,,,silent7,001,2022_Jul_27_1133,ProdSingRedoBetween,2021.2.3,59.85930672912203,
38,0,38,0,,,,,,,,,,,,,,,,,,,,,,,,,,257.5140507998876,None,finish,19,39,silent,yellow,255.5049276999198,None,None,255.5049276999198,None,,,,,,,,,,,,,,,,,,,,,,,,,,,,,,,,,,,silent7,001,2022_Jul_27_1133,ProdSingRedoBetween,2021.2.3,59.85930672912203,
39,0,39,0,,,,,,,,,,,,,,,,,,,,,,,,,,260.03305200021714,None,drove,68,40,silent,red,258.02860110020265,None,None,258.02860110020265,None,,,,,,,,,,,,,,,,,,,,,,,,,,,,,,,,,,,silent7,001,2022_Jul_27_1133,ProdSingRedoBetween,2021.2.3,59.85930672912203,
40,0,40,0,,,,,,,,,,,,,,,,,,,,,,,,,,262.5524260997772,None,straight,61,41,silent,red,260.5446239998564,None,None,260.5446239998564,None,,,,,,,,,,,,,,,,,,,,,,,,,,,,,,,,,,,silent7,001,2022_Jul_27_1133,ProdSingRedoBetween,2021.2.3,59.85930672912203,
41,0,41,0,,,,,,,,,,,,,,,,,,,,,,,,,,265.07141530001536,None,husband,2,42,silent,yellow,263.06595049984753,None,None,263.06595049984753,None,,,,,,,,,,,,,,,,,,,,,,,,,,,,,,,,,,,silent7,001,2022_Jul_27_1133,ProdSingRedoBetween,2021.2.3,59.85930672912203,
42,0,42,0,,,,,,,,,,,,,,,,,,,,,,,,,,267.59080759994686,None,surface,55,43,silent,blue,265.5814022999257,None,None,265.5814022999257,None,,,,,,,,,,,,,,,,,,,,,,,,,,,,,,,,,,,silent7,001,2022_Jul_27_1133,ProdSingRedoBetween,2021.2.3,59.85930672912203,
43,0,43,0,,,,,,,,,,,,,,,,,,,,,,,,,,270.10995730012655,None,income,16,44,silent,yellow,268.1018628999591,None,None,268.1018628999591,None,,,,,,,,,,,,,,,,,,,,,,,,,,,,,,,,,,,silent7,001,2022_Jul_27_1133,ProdSingRedoBetween,2021.2.3,59.85930672912203,
44,0,44,0,,,,,,,,,,,,,,,,,,,,,,,,,,272.62917470000684,None,working,72,45,silent,red,270.62090300023556,None,None,270.62090300023556,None,,,,,,,,,,,,,,,,,,,,,,,,,,,,,,,,,,,silent7,001,2022_Jul_27_1133,ProdSingRedoBetween,2021.2.3,59.85930672912203,
45,0,45,0,,,,,,,,,,,,,,,,,,,,,,,,,,275.1483395001851,None,trash,52,46,silent,blue,273.1425684001297,None,None,273.1425684001297,None,,,,,,,,,,,,,,,,,,,,,,,,,,,,,,,,,,,silent7,001,2022_Jul_27_1133,ProdSingRedoBetween,2021.2.3,59.85930672912203,
46,0,46,0,,,,,,,,,,,,,,,,,,,,,,,,,,277.6675021001138,None,pretty,64,47,silent,red,275.6574750998989,None,None,275.6574750998989,None,,,,,,,,,,,,,,,,,,,,,,,,,,,,,,,,,,,silent7,001,2022_Jul_27_1133,ProdSingRedoBetween,2021.2.3,59.85930672912203,
47,0,47,0,,,,,,,,,,,,,,,,,,,,,,,,,,280.1866850000806,None,device,40,48,silent,blue,278.17928319983184,None,None,278.17928319983184,None,,,,,,,,,,,,,,,,,,,,,,,,,,,,,,,,,,,silent7,001,2022_Jul_27_1133,ProdSingRedoBetween,2021.2.3,59.85930672912203,
48,0,48,0,,,,,,,,,,,,,,,,,,,,,,,,,,282.7057169000618,None,hearing,78,49,silent,red,280.69381219986826,None,None,280.69381219986826,None,,,,,,,,,,,,,,,,,,,,,,,,,,,,,,,,,,,silent7,001,2022_Jul_27_1133,ProdSingRedoBetween,2021.2.3,59.85930672912203,
49,0,49,0,,,,,,,,,,,,,,,,,,,,,,,,,,285.22510820021853,None,division,6,50,silent,yellow,283.2195292999968,None,None,283.2195292999968,None,,,,,,,,,,,,,,,,,,,,,,,,,,,,,,,,,,,silent7,001,2022_Jul_27_1133,ProdSingRedoBetween,2021.2.3,59.85930672912203,
50,0,50,0,,,,,,,,,,,,,,,,,,,,,,,,,,287.7275458998047,None,sweet,83,51,silent,red,285.7271540998481,None,None,285.7271540998481,None,,,,,,,,,,,,,,,,,,,,,,,,,,,,,,,,,,,silent7,001,2022_Jul_27_1133,ProdSingRedoBetween,2021.2.3,59.85930672912203,
51,0,51,0,,,,,,,,,,,,,,,,,,,,,,,,,,290.246760699898,None,history,49,52,silent,blue,288.2473582997918,None,None,288.2473582997918,None,,,,,,,,,,,,,,,,,,,,,,,,,,,,,,,,,,,silent7,001,2022_Jul_27_1133,ProdSingRedoBetween,2021.2.3,59.85930672912203,
52,0,52,0,,,,,,,,,,,,,,,,,,,,,,,,,,292.749248099979,None,attack,10,53,silent,yellow,290.74790519988164,None,None,290.74790519988164,None,,,,,,,,,,,,,,,,,,,,,,,,,,,,,,,,,,,silent7,001,2022_Jul_27_1133,ProdSingRedoBetween,2021.2.3,59.85930672912203,
53,0,53,0,,,,,,,,,,,,,,,,,,,,,,,,,,295.26849400019273,None,hunger,89,54,silent,red,293.25698610022664,None,None,293.25698610022664,None,,,,,,,,,,,,,,,,,,,,,,,,,,,,,,,,,,,silent7,001,2022_Jul_27_1133,ProdSingRedoBetween,2021.2.3,59.85930672912203,
54,0,54,0,,,,,,,,,,,,,,,,,,,,,,,,,,297.79485040018335,None,generation,48,55,silent,blue,295.7762779998593,None,None,295.7762779998593,None,,,,,,,,,,,,,,,,,,,,,,,,,,,,,,,,,,,silent7,001,2022_Jul_27_1133,ProdSingRedoBetween,2021.2.3,59.85930672912203,
55,0,55,0,,,,,,,,,,,,,,,,,,,,,,,,,,300.3067922000773,None,member,1,56,silent,yellow,298.2944200001657,None,None,298.2944200001657,None,,,,,,,,,,,,,,,,,,,,,,,,,,,,,,,,,,,silent7,001,2022_Jul_27_1133,ProdSingRedoBetween,2021.2.3,59.85930672912203,
56,0,56,0,,,,,,,,,,,,,,,,,,,,,,,,,,302.82597590005025,None,strain,69,57,silent,red,300.82555929990485,None,None,300.82555929990485,None,,,,,,,,,,,,,,,,,,,,,,,,,,,,,,,,,,,silent7,001,2022_Jul_27_1133,ProdSingRedoBetween,2021.2.3,59.85930672912203,
57,0,57,0,,,,,,,,,,,,,,,,,,,,,,,,,,305.3450013999827,None,appeal,30,58,silent,blue,303.3351524998434,None,None,303.3351524998434,None,,,,,,,,,,,,,,,,,,,,,,,,,,,,,,,,,,,silent7,001,2022_Jul_27_1133,ProdSingRedoBetween,2021.2.3,59.85930672912203,
58,0,58,0,,,,,,,,,,,,,,,,,,,,,,,,,,307.8644063998945,None,relation,14,59,silent,yellow,305.8577348999679,None,None,305.8577348999679,None,,,,,,,,,,,,,,,,,,,,,,,,,,,,,,,,,,,silent7,001,2022_Jul_27_1133,ProdSingRedoBetween,2021.2.3,59.85930672912203,
59,0,59,0,,,,,,,,,,,,,,,,,,,,,,,,,,310.3835252998397,None,beginning,81,60,silent,red,308.3758454998024,None,None,308.3758454998024,None,,,,,,,,,,,,,,,,,,,,,,,,,,,,,,,,,,,silent7,001,2022_Jul_27_1133,ProdSingRedoBetween,2021.2.3,59.85930672912203,
60,0,60,0,,,,,,,,,,,,,,,,,,,,,,,,,,312.90271280007437,None,enemy,29,61,silent,blue,310.8913893001154,None,None,310.8913893001154,None,,,,,,,,,,,,,,,,,,,,,,,,,,,,,,,,,,,silent7,001,2022_Jul_27_1133,ProdSingRedoBetween,2021.2.3,59.85930672912203,
61,0,61,0,,,,,,,,,,,,,,,,,,,,,,,,,,315.42188420007005,None,religion,4,62,silent,yellow,313.4114409000613,None,None,313.4114409000613,None,,,,,,,,,,,,,,,,,,,,,,,,,,,,,,,,,,,silent7,001,2022_Jul_27_1133,ProdSingRedoBetween,2021.2.3,59.85930672912203,
62,0,62,0,,,,,,,,,,,,,,,,,,,,,,,,,,317.9411079999991,None,principal,51,63,silent,blue,315.9324476001784,None,None,315.9324476001784,None,,,,,,,,,,,,,,,,,,,,,,,,,,,,,,,,,,,silent7,001,2022_Jul_27_1133,ProdSingRedoBetween,2021.2.3,59.85930672912203,
63,0,63,0,,,,,,,,,,,,,,,,,,,,,,,,,,320.4601811999455,None,style,63,64,silent,red,318.4530707998201,None,None,318.4530707998201,None,,,,,,,,,,,,,,,,,,,,,,,,,,,,,,,,,,,silent7,001,2022_Jul_27_1133,ProdSingRedoBetween,2021.2.3,59.85930672912203,
64,0,64,0,,,,,,,,,,,,,,,,,,,,,,,,,,322.9794243997894,None,breath,32,65,silent,blue,320.9693296002224,None,None,320.9693296002224,None,,,,,,,,,,,,,,,,,,,,,,,,,,,,,,,,,,,silent7,001,2022_Jul_27_1133,ProdSingRedoBetween,2021.2.3,59.85930672912203,
65,0,65,0,,,,,,,,,,,,,,,,,,,,,,,,,,325.50077350018546,None,group,86,66,silent,red,323.49268640019,None,None,323.49268640019,None,,,,,,,,,,,,,,,,,,,,,,,,,,,,,,,,,,,silent7,001,2022_Jul_27_1133,ProdSingRedoBetween,2021.2.3,59.85930672912203,
66,0,66,0,,,,,,,,,,,,,,,,,,,,,,,,,,328.00111840013415,None,research,74,67,silent,red,325.9989384999499,None,None,325.9989384999499,None,,,,,,,,,,,,,,,,,,,,,,,,,,,,,,,,,,,silent7,001,2022_Jul_27_1133,ProdSingRedoBetween,2021.2.3,59.85930672912203,
67,0,67,0,,,,,,,,,,,,,,,,,,,,,,,,,,330.52030450012535,None,spoke,33,68,silent,blue,328.51435890002176,None,None,328.51435890002176,None,,,,,,,,,,,,,,,,,,,,,,,,,,,,,,,,,,,silent7,001,2022_Jul_27_1133,ProdSingRedoBetween,2021.2.3,59.85930672912203,
68,0,68,0,,,,,,,,,,,,,,,,,,,,,,,,,,333.03942929999903,None,bucket,28,69,silent,yellow,331.0300392000936,None,None,331.0300392000936,None,,,,,,,,,,,,,,,,,,,,,,,,,,,,,,,,,,,silent7,001,2022_Jul_27_1133,ProdSingRedoBetween,2021.2.3,59.85930672912203,
69,0,69,0,,,,,,,,,,,,,,,,,,,,,,,,,,335.5586517001502,None,danger,26,70,silent,yellow,333.54767620004714,None,None,333.54767620004714,None,,,,,,,,,,,,,,,,,,,,,,,,,,,,,,,,,,,silent7,001,2022_Jul_27_1133,ProdSingRedoBetween,2021.2.3,59.85930672912203,
70,0,70,0,,,,,,,,,,,,,,,,,,,,,,,,,,338.07787099992856,None,whole,12,71,silent,yellow,336.0658875000663,None,None,336.0658875000663,None,,,,,,,,,,,,,,,,,,,,,,,,,,,,,,,,,,,silent7,001,2022_Jul_27_1133,ProdSingRedoBetween,2021.2.3,59.85930672912203,
71,0,71,0,,,,,,,,,,,,,,,,,,,,,,,,,,340.58033329993486,None,quantity,37,72,silent,blue,338.57825590018183,None,None,338.57825590018183,None,,,,,,,,,,,,,,,,,,,,,,,,,,,,,,,,,,,silent7,001,2022_Jul_27_1133,ProdSingRedoBetween,2021.2.3,59.85930672912203,
72,0,72,0,,,,,,,,,,,,,,,,,,,,,,,,,,343.09955509984866,None,bright,39,73,silent,blue,341.08843410015106,None,None,341.08843410015106,None,,,,,,,,,,,,,,,,,,,,,,,,,,,,,,,,,,,silent7,001,2022_Jul_27_1133,ProdSingRedoBetween,2021.2.3,59.85930672912203,
73,0,73,0,,,,,,,,,,,,,,,,,,,,,,,,,,345.6187090999447,None,addition,11,74,silent,yellow,343.61033320007846,None,None,343.61033320007846,None,,,,,,,,,,,,,,,,,,,,,,,,,,,,,,,,,,,silent7,001,2022_Jul_27_1133,ProdSingRedoBetween,2021.2.3,59.85930672912203,
74,0,74,0,,,,,,,,,,,,,,,,,,,,,,,,,,348.1378832999617,None,subject,77,75,silent,red,346.12958610011265,None,None,346.12958610011265,None,,,,,,,,,,,,,,,,,,,,,,,,,,,,,,,,,,,silent7,001,2022_Jul_27_1133,ProdSingRedoBetween,2021.2.3,59.85930672912203,
75,0,75,0,,,,,,,,,,,,,,,,,,,,,,,,,,350.6570811998099,None,tragedy,15,76,silent,yellow,348.647868799977,None,None,348.647868799977,None,,,,,,,,,,,,,,,,,,,,,,,,,,,,,,,,,,,silent7,001,2022_Jul_27_1133,ProdSingRedoBetween,2021.2.3,59.85930672912203,
76,0,76,0,,,,,,,,,,,,,,,,,,,,,,,,,,353.17625120002776,None,raise,75,77,silent,red,351.16596970008686,None,None,351.16596970008686,None,,,,,,,,,,,,,,,,,,,,,,,,,,,,,,,,,,,silent7,001,2022_Jul_27_1133,ProdSingRedoBetween,2021.2.3,59.85930672912203,
77,0,77,0,,,,,,,,,,,,,,,,,,,,,,,,,,355.69543500011787,None,provision,36,78,silent,blue,353.6914905998856,None,None,353.6914905998856,None,,,,,,,,,,,,,,,,,,,,,,,,,,,,,,,,,,,silent7,001,2022_Jul_27_1133,ProdSingRedoBetween,2021.2.3,59.85930672912203,
78,0,78,0,,,,,,,,,,,,,,,,,,,,,,,,,,358.2146157999523,None,reading,41,79,silent,blue,356.2033436000347,None,None,356.2033436000347,None,,,,,,,,,,,,,,,,,,,,,,,,,,,,,,,,,,,silent7,001,2022_Jul_27_1133,ProdSingRedoBetween,2021.2.3,59.85930672912203,
79,0,79,0,,,,,,,,,,,,,,,,,,,,,,,,,,360.73380890022963,None,bureau,56,80,silent,blue,358.7214953000657,None,None,358.7214953000657,None,,,,,,,,,,,,,,,,,,,,,,,,,,,,,,,,,,,silent7,001,2022_Jul_27_1133,ProdSingRedoBetween,2021.2.3,59.85930672912203,
80,0,80,0,,,,,,,,,,,,,,,,,,,,,,,,,,363.2529775998555,None,sunset,0,81,silent,yellow,361.24757609982044,None,None,361.24757609982044,None,,,,,,,,,,,,,,,,,,,,,,,,,,,,,,,,,,,silent7,001,2022_Jul_27_1133,ProdSingRedoBetween,2021.2.3,59.85930672912203,
81,0,81,0,,,,,,,,,,,,,,,,,,,,,,,,,,365.7721482999623,None,government,25,82,silent,yellow,363.76432499988005,None,None,363.76432499988005,None,,,,,,,,,,,,,,,,,,,,,,,,,,,,,,,,,,,silent7,001,2022_Jul_27_1133,ProdSingRedoBetween,2021.2.3,59.85930672912203,
82,0,82,0,,,,,,,,,,,,,,,,,,,,,,,,,,368.2912977999076,None,burden,60,83,silent,red,366.27930139983073,None,None,366.27930139983073,None,,,,,,,,,,,,,,,,,,,,,,,,,,,,,,,,,,,silent7,001,2022_Jul_27_1133,ProdSingRedoBetween,2021.2.3,59.85930672912203,
83,0,83,0,,,,,,,,,,,,,,,,,,,,,,,,,,370.81049699988216,None,candidate,47,84,silent,blue,368.8004318000749,None,None,368.8004318000749,None,,,,,,,,,,,,,,,,,,,,,,,,,,,,,,,,,,,silent7,001,2022_Jul_27_1133,ProdSingRedoBetween,2021.2.3,59.85930672912203,
84,0,84,0,,,,,,,,,,,,,,,,,,,,,,,,,,373.32971480023116,None,cross,3,85,silent,yellow,371.32030919985846,None,None,371.32030919985846,None,,,,,,,,,,,,,,,,,,,,,,,,,,,,,,,,,,,silent7,001,2022_Jul_27_1133,ProdSingRedoBetween,2021.2.3,59.85930672912203,
85,0,85,0,,,,,,,,,,,,,,,,,,,,,,,,,,375.848842700012,None,dozen,50,86,silent,blue,373.84660049993545,None,None,373.84660049993545,None,,,,,,,,,,,,,,,,,,,,,,,,,,,,,,,,,,,silent7,001,2022_Jul_27_1133,ProdSingRedoBetween,2021.2.3,59.85930672912203,
86,0,86,0,,,,,,,,,,,,,,,,,,,,,,,,,,378.3680548998527,None,poetry,85,87,silent,red,376.3621272002347,None,None,376.3621272002347,None,,,,,,,,,,,,,,,,,,,,,,,,,,,,,,,,,,,silent7,001,2022_Jul_27_1133,ProdSingRedoBetween,2021.2.3,59.85930672912203,
87,0,87,0,,,,,,,,,,,,,,,,,,,,,,,,,,380.88728210004047,None,agreement,42,88,silent,blue,378.88006589980796,None,None,378.88006589980796,None,,,,,,,,,,,,,,,,,,,,,,,,,,,,,,,,,,,silent7,001,2022_Jul_27_1133,ProdSingRedoBetween,2021.2.3,59.85930672912203,
88,0,88,0,,,,,,,,,,,,,,,,,,,,,,,,,,383.40642839996144,None,smooth,13,89,silent,yellow,381.3975819000043,None,None,381.3975819000043,None,,,,,,,,,,,,,,,,,,,,,,,,,,,,,,,,,,,silent7,001,2022_Jul_27_1133,ProdSingRedoBetween,2021.2.3,59.85930672912203,
89,0,89,0,,,,,,,,,,,,,,,,,,,,,,,,,,385.9255992998369,None,tough,54,90,silent,blue,383.9196003000252,None,None,383.9196003000252,None,,,,,,,,,,,,,,,,,,,,,,,,,,,,,,,,,,,silent7,001,2022_Jul_27_1133,ProdSingRedoBetween,2021.2.3,59.85930672912203,
,,,,,,,,,,,,,,,,,,,,,,,,,,,,,,,,,,,,,,,,,386.426330300048,None,k,99.42871450027451,386.426330300048,None,,,,,,,,,,,,,,,,,,,,,,,,,,,,,silent7,001,2022_Jul_27_1133,ProdSingRedoBetween,2021.2.3,59.85930672912203,
,,,,0,0,0,0,,,,,,,,,,,,,,,,,,,,,,495.6112550999969,None,,,,,,,,,,,,,,,,,trash,52,1,silent,old,blue,486.3980291998014,None,486.3980291998014,None,1,4.080635100137442,486.3980291998014,None,4.080635100137442,490.51644549984485,None,491.03923630015925,None,491.03923630015925,None,f,4.5436778999865055,491.03923630015925,None,4.5436778999865055,,,silent7,001,2022_Jul_27_1133,ProdSingRedoBetween,2021.2.3,59.85930672912203,
,,,,1,0,1,0,,,,,,,,,,,,,,,,,,,,,,501.5494678001851,None,,,,,,,,,,,,,,,,,taste,171,2,silent,new,null,496.13197960006073,None,496.13197960006073,None,1,2.9146949001587927,496.13197960006073,None,2.9146949001587927,499.0884576998651,None,499.5958289001137,None,499.5958289001137,None,f,1.9228443000465631,499.5958289001137,None,1.9228443000465631,,,silent7,001,2022_Jul_27_1133,ProdSingRedoBetween,2021.2.3,59.85930672912203,
,,,,2,0,2,0,,,,,,,,,,,,,,,,,,,,,,506.2524067000486,None,,,,,,,,,,,,,,,,,passage,172,3,silent,new,null,502.07038330007344,None,502.07038330007344,None,1,2.776312700007111,502.07038330007344,None,2.776312700007111,504.8931761002168,None,505.4029358997941,None,505.4029358997941,None,f,0.8118305001407862,505.4029358997941,None,0.8118305001407862,,,silent7,001,2022_Jul_27_1133,ProdSingRedoBetween,2021.2.3,59.85930672912203,
,,,,3,0,3,0,,,,,,,,,,,,,,,,,,,,,,517.6764135998674,None,,,,,,,,,,,,,,,,,accident,9,4,silent,old,yellow,506.774314600043,None,506.774314600043,None,6,4.744394600391388,506.774314600043,None,4.744394600391388,511.5500456998125,None,512.0577115002088,None,512.0577115002088,None,r,5.5966898002661765,512.0577115002088,None,5.5966898002661765,,,silent7,001,2022_Jul_27_1133,ProdSingRedoBetween,2021.2.3,59.85930672912203,
,,,,4,0,4,0,,,,,,,,,,,,,,,,,,,,,,524.1157984999008,None,,,,,,,,,,,,,,,,,spoke,33,5,silent,old,blue,518.1983182001859,None,518.1983182001859,None,2,3.4642862998880446,518.1983182001859,None,3.4642862998880446,521.7008182997815,None,522.211649000179,None,522.211649000179,None,f,1.8749110996723175,522.211649000179,None,1.8749110996723175,,,silent7,001,2022_Jul_27_1133,ProdSingRedoBetween,2021.2.3,59.85930672912203,
,,,,5,0,5,0,,,,,,,,,,,,,,,,,,,,,,530.0102172000334,None,,,,,,,,,,,,,,,,,chief,176,6,silent,new,null,524.6423013000749,None,524.6423013000749,None,2,3.396385599859059,524.6423013000749,None,3.396385599859059,528.0885045002215,None,528.6120794001035,None,528.6120794001035,None,f,1.3704923000186682,528.6120794001035,None,1.3704923000186682,,,silent7,001,2022_Jul_27_1133,ProdSingRedoBetween,2021.2.3,59.85930672912203,
,,,,6,0,6,0,,,,,,,,,,,,,,,,,,,,,,537.9606645000167,None,,,,,,,,,,,,,,,,,discussion,131,7,silent,new,null,530.5324662001804,None,530.5324662001804,None,6,3.2021762998774648,530.5324662001804,None,3.2021762998774648,533.7744050999172,None,534.2827445999719,None,534.2827445999719,None,r,3.6597436000593007,534.2827445999719,None,3.6597436000593007,,,silent7,001,2022_Jul_27_1133,ProdSingRedoBetween,2021.2.3,59.85930672912203,
,,,,7,0,7,0,,,,,,,,,,,,,,,,,,,,,,542.972556900233,None,,,,,,,,,,,,,,,,,tragedy,15,8,silent,old,yellow,538.4823177000508,None,538.4823177000508,None,3,2.5883909999392927,538.4823177000508,None,2.5883909999392927,541.113714999985,None,541.6217852998525,None,541.6217852998525,None,f,1.3208265001885593,541.6217852998525,None,1.3208265001885593,,,silent7,001,2022_Jul_27_1133,ProdSingRedoBetween,2021.2.3,59.85930672912203,
,,,,8,0,8,0,,,,,,,,,,,,,,,,,,,,,,549.4784702998586,None,,,,,,,,,,,,,,,,,equipment,175,9,silent,new,null,543.4966942998581,None,543.4966942998581,None,6,2.5419831997714937,543.4966942998581,None,2.5419831997714937,546.0825733002275,None,546.5909484000877,None,546.5909484000877,None,r,2.855700199957937,546.5909484000877,None,2.855700199957937,,,silent7,001,2022_Jul_27_1133,ProdSingRedoBetween,2021.2.3,59.85930672912203,
,,,,9,0,9,0,,,,,,,,,,,,,,,,,,,,,,554.85109690018,None,,,,,,,,,,,,,,,,,portion,135,10,silent,new,null,550.0015076999553,None,550.0015076999553,None,6,1.7248823000118136,550.0015076999553,None,1.7248823000118136,551.7722034999169,None,552.2751287999563,None,552.2751287999563,None,f,2.5395439001731575,552.2751287999563,None,2.5395439001731575,,,silent7,001,2022_Jul_27_1133,ProdSingRedoBetween,2021.2.3,59.85930672912203,
,,,,10,0,10,0,,,,,,,,,,,,,,,,,,,,,,561.6913208002225,None,,,,,,,,,,,,,,,,,sight,118,11,silent,new,null,555.3782224999741,None,555.3782224999741,None,1,1.884384899865836,555.3782224999741,None,1.884384899865836,557.2964786002412,None,557.8046341999434,None,557.8046341999434,None,f,3.8500177999958396,557.8046341999434,None,3.8500177999958396,,,silent7,001,2022_Jul_27_1133,ProdSingRedoBetween,2021.2.3,59.85930672912203,
,,,,11,0,11,0,,,,,,,,,,,,,,,,,,,,,,566.2465595998801,None,,,,,,,,,,,,,,,,,device,40,12,silent,old,blue,562.213868800085,None,562.213868800085,None,6,1.7687872000969946,562.213868800085,None,1.7687872000969946,564.0183104998432,None,564.5260792998597,None,564.5260792998597,None,r,1.6966288001276553,564.5260792998597,None,1.6966288001276553,,,silent7,001,2022_Jul_27_1133,ProdSingRedoBetween,2021.2.3,59.85930672912203,
,,,,12,0,12,0,,,,,,,,,,,,,,,,,,,,,,571.1173283997923,None,,,,,,,,,,,,,,,,,impact,22,13,silent,old,yellow,566.77074969979,None,566.77074969979,None,6,2.2038175999186933,566.77074969979,None,2.2038175999186933,569.009252499789,None,569.5156855001114,None,569.5156855001114,None,f,1.5709263999015093,569.5156855001114,None,1.5709263999015093,,,silent7,001,2022_Jul_27_1133,ProdSingRedoBetween,2021.2.3,59.85930672912203,
,,,,13,0,13,0,,,,,,,,,,,,,,,,,,,,,,577.6748128999025,None,,,,,,,,,,,,,,,,,subject,77,14,silent,old,red,571.6438529998995,None,571.6438529998995,None,6,1.8908142000436783,571.6438529998995,None,1.8908142000436783,573.5800880999304,None,574.0884909001179,None,574.0884909001179,None,r,3.5500980000942945,574.0884909001179,None,3.5500980000942945,,,silent7,001,2022_Jul_27_1133,ProdSingRedoBetween,2021.2.3,59.85930672912203,
,,,,14,0,14,0,,,,,,,,,,,,,,,,,,,,,,583.150133300107,None,,,,,,,,,,,,,,,,,opening,21,15,silent,old,yellow,578.1966770999134,None,578.1966770999134,None,6,1.6579621001146734,578.1966770999134,None,1.6579621001146734,579.9055000999942,None,580.4106943998486,None,580.4106943998486,None,f,2.707894999999553,580.4106943998486,None,2.707894999999553,,,silent7,001,2022_Jul_27_1133,ProdSingRedoBetween,2021.2.3,59.85930672912203,
,,,,15,0,15,0,,,,,,,,,,,,,,,,,,,,,,588.283890100196,None,,,,,,,,,,,,,,,,,guest,152,16,silent,new,null,583.6569595998153,None,583.6569595998153,None,6,1.7573660002090037,583.6569595998153,None,1.7573660002090037,585.4412666000426,None,585.9515669001266,None,585.9515669001266,None,f,2.294960599858314,585.9515669001266,None,2.294960599858314,,,silent7,001,2022_Jul_27_1133,ProdSingRedoBetween,2021.2.3,59.85930672912203,
,,,,16,0,16,0,,,,,,,,,,,,,,,,,,,,,,595.9077444002032,None,,,,,,,,,,,,,,,,,addition,11,17,silent,old,yellow,588.8058905000798,None,588.8058905000798,None,6,1.9127575997263193,588.8058905000798,None,1.9127575997263193,590.7560870000161,None,591.271757800132,None,591.271757800132,None,r,4.598969300277531,591.271757800132,None,4.598969300277531,,,silent7,001,2022_Jul_27_1133,ProdSingRedoBetween,2021.2.3,59.85930672912203,
,,,,17,0,17,0,,,,,,,,,,,,,,,,,,,,,,602.8993874997832,None,,,,,,,,,,,,,,,,,space,161,18,silent,new,null,596.4301420999691,None,596.4301420999691,None,3,2.8884725999087095,596.4301420999691,None,2.8884725999087095,599.3551016999409,None,599.8644627002068,None,599.8644627002068,None,f,2.998164299875498,599.8644627002068,None,2.998164299875498,,,silent7,001,2022_Jul_27_1133,ProdSingRedoBetween,2021.2.3,59.85930672912203,
,,,,18,0,18,0,,,,,,,,,,,,,,,,,,,,,,612.0510065997951,None,,,,,,,,,,,,,,,,,guard,97,19,silent,new,null,603.4187857001089,None,603.4187857001089,None,6,1.6518127997405827,603.4187857001089,None,1.6518127997405827,605.1080880998634,None,605.6171794999391,None,605.6171794999391,None,r,6.405106899794191,605.6171794999391,None,6.405106899794191,,,silent7,001,2022_Jul_27_1133,ProdSingRedoBetween,2021.2.3,59.85930672912203,
,,,,19,0,19,0,,,,,,,,,,,,,,,,,,,,,,618.2492500999942,None,,,,,,,,,,,,,,,,,finance,79,20,silent,old,red,612.5533115002327,None,612.5533115002327,None,6,2.789331999607384,612.5533115002327,None,2.789331999607384,615.3871201998554,None,615.8958191000856,None,615.8958191000856,None,r,2.3266920000314713,615.8958191000856,None,2.3266920000314713,,,silent7,001,2022_Jul_27_1133,ProdSingRedoBetween,2021.2.3,59.85930672912203,
,,,,20,0,20,0,,,,,,,,,,,,,,,,,,,,,,621.8108653998934,None,,,,,,,,,,,,,,,,,shape,123,21,silent,new,null,618.770428400021,None,618.770428400021,None,6,1.7161962003447115,618.770428400021,None,1.7161962003447115,620.5269780000672,None,621.0347867999226,None,621.0347867999226,None,r,0.7476762998849154,621.0347867999226,None,0.7476762998849154,,,silent7,001,2022_Jul_27_1133,ProdSingRedoBetween,2021.2.3,59.85930672912203,
,,,,21,0,21,0,,,,,,,,,,,,,,,,,,,,,,624.5876222997904,None,,,,,,,,,,,,,,,,,direction,106,22,silent,new,null,622.3256783001125,None,622.3256783001125,None,6,1.16090440005064,622.3256783001125,None,1.16090440005064,623.527767600026,None,624.0345367002301,None,624.0345367002301,None,r,0.5239756000228226,624.0345367002301,None,0.5239756000228226,,,silent7,001,2022_Jul_27_1133,ProdSingRedoBetween,2021.2.3,59.85930672912203,
,,,,22,0,22,0,,,,,,,,,,,,,,,,,,,,,,631.0934934001416,None,,,,,,,,,,,,,,,,,cross,3,23,silent,old,yellow,625.1092676999979,None,625.1092676999979,None,6,4.513336600270122,625.1092676999979,None,4.513336600270122,629.6626770999283,None,630.1761219999753,None,630.1761219999753,None,r,0.8863965999335051,630.1761219999753,None,0.8863965999335051,,,silent7,001,2022_Jul_27_1133,ProdSingRedoBetween,2021.2.3,59.85930672912203,
,,,,23,0,23,0,,,,,,,,,,,,,,,,,,,,,,636.2490318999626,None,,,,,,,,,,,,,,,,,beginning,81,24,silent,old,red,631.6138071999885,None,631.6138071999885,None,3,2.7287085000425577,631.6138071999885,None,2.7287085000425577,634.3797229998745,None,634.8974589002319,None,634.8974589002319,None,f,1.3171100998297334,634.8974589002319,None,1.3171100998297334,,,silent7,001,2022_Jul_27_1133,ProdSingRedoBetween,2021.2.3,59.85930672912203,
,,,,24,0,24,0,,,,,,,,,,,,,,,,,,,,,,641.0860537998378,None,,,,,,,,,,,,,,,,,material,160,25,silent,new,null,636.7700172001496,None,636.7700172001496,None,6,1.7886093999259174,636.7700172001496,None,1.7886093999259174,638.5947381998412,None,639.1020153998397,None,639.1020153998397,None,r,1.9605597001500428,639.1020153998397,None,1.9605597001500428,,,silent7,001,2022_Jul_27_1133,ProdSingRedoBetween,2021.2.3,59.85930672912203,
,,,,25,0,25,0,,,,,,,,,,,,,,,,,,,,,,644.7519037998281,None,,,,,,,,,,,,,,,,,breath,32,26,silent,old,blue,641.6073528002016,None,641.6073528002016,None,6,1.8313224003650248,641.6073528002016,None,1.8313224003650248,643.481039499864,None,643.9880913998932,None,643.9880913998932,None,r,0.7463811002671719,643.9880913998932,None,0.7463811002671719,,,silent7,001,2022_Jul_27_1133,ProdSingRedoBetween,2021.2.3,59.85930672912203,
,,,,26,0,26,0,,,,,,,,,,,,,,,,,,,,,,648.0114482999779,None,,,,,,,,,,,,,,,,,signal,147,27,silent,new,null,645.2643001000397,None,645.2643001000397,None,6,1.2700991998426616,645.2643001000397,None,1.2700991998426616,646.5595796001144,None,647.0806089001708,None,647.0806089001708,None,r,0.8936624997295439,647.0806089001708,None,0.8936624997295439,,,silent7,001,2022_Jul_27_1133,ProdSingRedoBetween,2021.2.3,59.85930672912203,
,,,,27,0,27,0,,,,,,,,,,,,,,,,,,,,,,653.3295948999003,None,,,,,,,,,,,,,,,,,profession,173,28,silent,new,null,648.5343193002045,None,648.5343193002045,None,6,1.776478299871087,648.5343193002045,None,1.776478299871087,650.3585347002372,None,650.8835137998685,None,650.8835137998685,None,f,2.4190074000507593,650.8835137998685,None,2.4190074000507593,,,silent7,001,2022_Jul_27_1133,ProdSingRedoBetween,2021.2.3,59.85930672912203,
,,,,28,0,28,0,,,,,,,,,,,,,,,,,,,,,,658.9554616999812,None,,,,,,,,,,,,,,,,,partner,163,29,silent,new,null,653.8574649002403,None,653.8574649002403,None,6,1.3171697999350727,653.8574649002403,None,1.3171697999350727,655.212246300187,None,655.7181275999174,None,655.7181275999174,None,f,3.2083964999765158,655.7181275999174,None,3.2083964999765158,,,silent7,001,2022_Jul_27_1133,ProdSingRedoBetween,2021.2.3,59.85930672912203,
,,,,29,0,29,0,,,,,,,,,,,,,,,,,,,,,,664.3652045000345,None,,,,,,,,,,,,,,,,,agreement,42,30,silent,old,blue,659.4758751001209,None,659.4758751001209,None,6,2.2506653000600636,659.4758751001209,None,2.2506653000600636,661.7610814999789,None,662.2759504001588,None,662.2759504001588,None,f,2.058790899813175,662.2759504001588,None,2.058790899813175,,,silent7,001,2022_Jul_27_1133,ProdSingRedoBetween,2021.2.3,59.85930672912203,
,,,,30,0,30,0,,,,,,,,,,,,,,,,,,,,,,670.9059355999343,None,,,,,,,,,,,,,,,,,evidence,154,31,silent,new,null,664.8918649000116,None,664.8918649000116,None,5,3.1227291002869606,664.8918649000116,None,3.1227291002869606,668.0557904001325,None,668.5643222001381,None,668.5643222001381,None,r,2.314344100188464,668.5643222001381,None,2.314344100188464,,,silent7,001,2022_Jul_27_1133,ProdSingRedoBetween,2021.2.3,59.85930672912203,
,,,,31,0,31,0,,,,,,,,,,,,,,,,,,,,,,678.5752103999257,None,,,,,,,,,,,,,,,,,volume,105,32,silent,new,null,671.4172251001,None,671.4172251001,None,1,2.117386099882424,671.4172251001,None,2.117386099882424,673.5764083000831,None,674.0879783998244,None,674.0879783998244,None,f,4.462550399824977,674.0879783998244,None,4.462550399824977,,,silent7,001,2022_Jul_27_1133,ProdSingRedoBetween,2021.2.3,59.85930672912203,
,,,,32,0,32,0,,,,,,,,,,,,,,,,,,,,,,683.6796800000593,None,,,,,,,,,,,,,,,,,husband,2,33,silent,old,yellow,679.0953128999099,None,679.0953128999099,None,6,1.5355267003178596,679.0953128999099,None,1.5355267003178596,680.6663542999886,None,681.1780361002311,None,681.1780361002311,None,r,2.4685078002512455,681.1780361002311,None,2.4685078002512455,,,silent7,001,2022_Jul_27_1133,ProdSingRedoBetween,2021.2.3,59.85930672912203,
,,,,33,0,33,0,,,,,,,,,,,,,,,,,,,,,,688.6023911000229,None,,,,,,,,,,,,,,,,,brief,122,34,silent,new,null,684.2017443999648,None,684.2017443999648,None,1,1.7407930004410446,684.2017443999648,None,1.7407930004410446,685.9750060997903,None,686.4839944997802,None,686.4839944997802,None,f,2.090572000015527,686.4839944997802,None,2.090572000015527,,,silent7,001,2022_Jul_27_1133,ProdSingRedoBetween,2021.2.3,59.85930672912203,
,,,,34,0,34,0,,,,,,,,,,,,,,,,,,,,,,693.9069749000482,None,,,,,,,,,,,,,,,,,relation,14,35,silent,old,yellow,689.1232189000584,None,689.1232189000584,None,6,2.1952104000374675,689.1232189000584,None,2.1952104000374675,691.3594412999228,None,691.8713992000557,None,691.8713992000557,None,f,1.999157200101763,691.8713992000557,None,1.999157200101763,,,silent7,001,2022_Jul_27_1133,ProdSingRedoBetween,2021.2.3,59.85930672912203,
,,,,35,0,35,0,,,,,,,,,,,,,,,,,,,,,,698.6280666999519,None,,,,,,,,,,,,,,,,,danger,26,36,silent,old,yellow,694.4192968001589,None,694.4192968001589,None,6,2.3314467002637684,694.4192968001589,None,2.3314467002637684,696.7858648002148,None,697.2940246998332,None,697.2940246998332,None,r,1.2965793004259467,697.2940246998332,None,1.2965793004259467,,,silent7,001,2022_Jul_27_1133,ProdSingRedoBetween,2021.2.3,59.85930672912203,
,,,,36,0,36,0,,,,,,,,,,,,,,,,,,,,,,702.5916069000959,None,,,,,,,,,,,,,,,,,express,167,37,silent,new,null,699.1509126001038,None,699.1509126001038,None,6,1.45581980003044,699.1509126001038,None,1.45581980003044,700.6380095002241,None,701.1478907000273,None,701.1478907000273,None,r,1.4264340000227094,701.1478907000273,None,1.4264340000227094,,,silent7,001,2022_Jul_27_1133,ProdSingRedoBetween,2021.2.3,59.85930672912203,
,,,,37,0,37,0,,,,,,,,,,,,,,,,,,,,,,706.6866279998794,None,,,,,,,,,,,,,,,,,education,145,38,silent,new,null,703.1134935999289,None,703.1134935999289,None,6,1.6129908999428153,703.1134935999289,None,1.6129908999428153,704.7599645000882,None,705.2671260000207,None,705.2671260000207,None,r,1.3873855001293123,705.2671260000207,None,1.3873855001293123,,,silent7,001,2022_Jul_27_1133,ProdSingRedoBetween,2021.2.3,59.85930672912203,
,,,,38,0,38,0,,,,,,,,,,,,,,,,,,,,,,715.8780160001479,None,,,,,,,,,,,,,,,,,engineer,140,39,silent,new,null,707.2064952999353,None,707.2064952999353,None,6,6.367739100009203,707.2064952999353,None,6.367739100009203,713.6061792001128,None,714.1276124999858,None,714.1276124999858,None,r,1.7268749000504613,714.1276124999858,None,1.7268749000504613,,,silent7,001,2022_Jul_27_1133,ProdSingRedoBetween,2021.2.3,59.85930672912203,
,,,,39,0,39,0,,,,,,,,,,,,,,,,,,,,,,728.3743584998883,None,,,,,,,,,,,,,,,,,sunset,0,40,silent,old,yellow,716.402929100208,None,716.402929100208,None,2,6.131552600301802,716.402929100208,None,6.131552600301802,722.5792387002148,None,723.0867622001097,None,723.0867622001097,None,r,5.255733599886298,723.0867622001097,None,5.255733599886298,,,silent7,001,2022_Jul_27_1133,ProdSingRedoBetween,2021.2.3,59.85930672912203,
,,,,40,0,40,0,,,,,,,,,,,,,,,,,,,,,,735.0659833000973,None,,,,,,,,,,,,,,,,,interior,114,41,silent,new,null,728.8975078999065,None,728.8975078999065,None,1,2.0690763001330197,728.8975078999065,None,2.0690763001330197,730.999266800005,None,731.5117234000936,None,731.5117234000936,None,f,3.5269229002296925,731.5117234000936,None,3.5269229002296925,,,silent7,001,2022_Jul_27_1133,ProdSingRedoBetween,2021.2.3,59.85930672912203,
,,,,41,0,41,0,,,,,,,,,,,,,,,,,,,,,,740.2204382000491,None,,,,,,,,,,,,,,,,,defeat,141,42,silent,new,null,735.5873480001464,None,735.5873480001464,None,2,2.2911783000454307,735.5873480001464,None,2.2911783000454307,737.9158588000573,None,738.4351059999317,None,738.4351059999317,None,f,1.7475224998779595,738.4351059999317,None,1.7475224998779595,,,silent7,001,2022_Jul_27_1133,ProdSingRedoBetween,2021.2.3,59.85930672912203,
,,,,42,0,42,0,,,,,,,,,,,,,,,,,,,,,,750.1306499000639,None,,,,,,,,,,,,,,,,,gesture,153,43,silent,new,null,740.7420717999339,None,740.7420717999339,None,4,3.9364026999101043,740.7420717999339,None,3.9364026999101043,744.7182454001158,None,745.2255008001812,None,745.2255008001812,None,f,4.877070700284094,745.2255008001812,None,4.877070700284094,,,silent7,001,2022_Jul_27_1133,ProdSingRedoBetween,2021.2.3,59.85930672912203,
,,,,43,0,43,0,,,,,,,,,,,,,,,,,,,,,,755.1348521998152,None,,,,,,,,,,,,,,,,,raise,75,44,silent,old,red,750.6500260001048,None,750.6500260001048,None,2,2.5484819002449512,750.6500260001048,None,2.5484819002449512,753.2366972998716,None,753.7498670998029,None,753.7498670998029,None,f,1.3605761001817882,753.7498670998029,None,1.3605761001817882,,,silent7,001,2022_Jul_27_1133,ProdSingRedoBetween,2021.2.3,59.85930672912203,
,,,,44,0,44,0,,,,,,,,,,,,,,,,,,,,,,759.5393095999025,None,,,,,,,,,,,,,,,,,property,70,45,silent,old,red,755.6590021001175,None,755.6590021001175,None,6,1.7955187000334263,755.6590021001175,None,1.7955187000334263,757.4987498000264,None,757.9975711000152,None,757.9975711000152,None,r,1.5050520999357104,757.9975711000152,None,1.5050520999357104,,,silent7,001,2022_Jul_27_1133,ProdSingRedoBetween,2021.2.3,59.85930672912203,
,,,,45,0,45,0,,,,,,,,,,,,,,,,,,,,,,763.3550713998266,None,,,,,,,,,,,,,,,,,position,87,46,silent,old,red,760.0643339999951,None,760.0643339999951,None,6,1.3741786000318825,760.0643339999951,None,1.3741786000318825,761.4815445002168,None,761.9840700002387,None,761.9840700002387,None,r,1.3503068001009524,761.9840700002387,None,1.3503068001009524,,,silent7,001,2022_Jul_27_1133,ProdSingRedoBetween,2021.2.3,59.85930672912203,
,,,,46,0,46,0,,,,,,,,,,,,,,,,,,,,,,767.6312985001132,None,,,,,,,,,,,,,,,,,mankind,38,47,silent,old,blue,763.8840963002294,None,763.8840963002294,None,6,1.6824366999790072,763.8840963002294,None,1.6824366999790072,765.6061574998312,None,766.1124431998469,None,766.1124431998469,None,r,1.4941794001497328,766.1124431998469,None,1.4941794001497328,,,silent7,001,2022_Jul_27_1133,ProdSingRedoBetween,2021.2.3,59.85930672912203,
,,,,47,0,47,0,,,,,,,,,,,,,,,,,,,,,,776.866888999939,None,,,,,,,,,,,,,,,,,hunger,89,48,silent,old,red,768.152008799836,None,768.152008799836,None,6,2.5504457000643015,768.152008799836,None,2.5504457000643015,770.7413922999986,None,771.2481177998707,None,771.2481177998707,None,r,5.598091599997133,771.2481177998707,None,5.598091599997133,,,silent7,001,2022_Jul_27_1133,ProdSingRedoBetween,2021.2.3,59.85930672912203,
,,,,48,0,48,0,,,,,,,,,,,,,,,,,,,,,,785.8912790999748,None,,,,,,,,,,,,,,,,,season,53,49,silent,old,blue,777.3872147002257,None,777.3872147002257,None,2,4.8671256001107395,777.3872147002257,None,4.8671256001107395,782.2852921998128,None,782.7966203000396,None,782.7966203000396,None,r,3.065809099934995,782.7966203000396,None,3.065809099934995,,,silent7,001,2022_Jul_27_1133,ProdSingRedoBetween,2021.2.3,59.85930672912203,
,,,,49,0,49,0,,,,,,,,,,,,,,,,,,,,,,790.7860953998752,None,,,,,,,,,,,,,,,,,junior,146,50,silent,new,null,786.4048998001963,None,786.4048998001963,None,2,1.809597000014037,786.4048998001963,None,1.809597000014037,788.2494079000317,None,788.7685767002404,None,788.7685767002404,None,r,1.9898573998361826,788.7685767002404,None,1.9898573998361826,,,silent7,001,2022_Jul_27_1133,ProdSingRedoBetween,2021.2.3,59.85930672912203,
,,,,50,0,50,0,,,,,,,,,,,,,,,,,,,,,,796.7776039000601,None,,,,,,,,,,,,,,,,,minor,104,51,silent,new,null,791.2982557998039,None,791.2982557998039,None,3,3.8361991001293063,791.2982557998039,None,3.8361991001293063,795.1564405998215,None,795.673504400067,None,795.673504400067,None,f,1.0770719996653497,795.673504400067,None,1.0770719996653497,,,silent7,001,2022_Jul_27_1133,ProdSingRedoBetween,2021.2.3,59.85930672912203,
,,,,51,0,51,0,,,,,,,,,,,,,,,,,,,,,,806.0188766000792,None,,,,,,,,,,,,,,,,,bright,39,52,silent,old,blue,797.2994522000663,None,797.2994522000663,None,1,4.578901099972427,797.2994522000663,None,4.578901099972427,801.9136763000861,None,802.4301187000237,None,802.4301187000237,None,f,3.5522334999404848,802.4301187000237,None,3.5522334999404848,,,silent7,001,2022_Jul_27_1133,ProdSingRedoBetween,2021.2.3,59.85930672912203,
,,,,52,0,52,0,,,,,,,,,,,,,,,,,,,,,,813.3091302998364,None,,,,,,,,,,,,,,,,,minute,107,53,silent,new,null,806.5386463999748,None,806.5386463999748,None,4,3.899932600092143,806.5386463999748,None,3.899932600092143,810.4819016000256,None,810.9880499001592,None,810.9880499001592,None,f,2.2904213001020253,810.9880499001592,None,2.2904213001020253,,,silent7,001,2022_Jul_27_1133,ProdSingRedoBetween,2021.2.3,59.85930672912203,
,,,,53,0,53,0,,,,,,,,,,,,,,,,,,,,,,817.3803110001609,None,,,,,,,,,,,,,,,,,straight,61,54,silent,old,red,813.8316873000003,None,813.8316873000003,None,6,1.718630800023675,813.8316873000003,None,1.718630800023675,815.585524099879,None,816.0958767998964,None,816.0958767998964,None,r,1.2465884000994265,816.0958767998964,None,1.2465884000994265,,,silent7,001,2022_Jul_27_1133,ProdSingRedoBetween,2021.2.3,59.85930672912203,
,,,,54,0,54,0,,,,,,,,,,,,,,,,,,,,,,821.1341917999089,None,,,,,,,,,,,,,,,,,birth,130,55,silent,new,null,817.8994769002311,None,817.8994769002311,None,6,1.7630102997645736,817.8994769002311,None,1.7630102997645736,819.7050658999942,None,820.2137477998622,None,820.2137477998622,None,f,0.8969243001192808,820.2137477998622,None,0.8969243001192808,,,silent7,001,2022_Jul_27_1133,ProdSingRedoBetween,2021.2.3,59.85930672912203,
,,,,55,0,55,0,,,,,,,,,,,,,,,,,,,,,,825.148129499983,None,,,,,,,,,,,,,,,,,dance,162,56,silent,new,null,821.6543205999769,None,821.6543205999769,None,6,2.3281020000576973,821.6543205999769,None,2.3281020000576973,824.0287755997851,None,824.5372231001966,None,824.5372231001966,None,r,0.5813380996696651,824.5372231001966,None,0.5813380996696651,,,silent7,001,2022_Jul_27_1133,ProdSingRedoBetween,2021.2.3,59.85930672912203,
,,,,56,0,56,0,,,,,,,,,,,,,,,,,,,,,,830.3793742000125,None,,,,,,,,,,,,,,,,,nation,133,57,silent,new,null,825.6610988001339,None,825.6610988001339,None,1,2.777394600212574,825.6610988001339,None,2.777394600212574,828.4824462998658,None,828.9894143999554,None,828.9894143999554,None,f,1.3611326003447175,828.9894143999554,None,1.3611326003447175,,,silent7,001,2022_Jul_27_1133,ProdSingRedoBetween,2021.2.3,59.85930672912203,
,,,,57,0,57,0,,,,,,,,,,,,,,,,,,,,,,836.7921829000115,None,,,,,,,,,,,,,,,,,personnel,109,58,silent,new,null,830.8990182001144,None,830.8990182001144,None,1,3.8675198000855744,830.8990182001144,None,3.8675198000855744,834.8071901998483,None,835.3151213000529,None,835.3151213000529,None,r,1.4591297996230423,835.3151213000529,None,1.4591297996230423,,,silent7,001,2022_Jul_27_1133,ProdSingRedoBetween,2021.2.3,59.85930672912203,
,,,,58,0,58,0,,,,,,,,,,,,,,,,,,,,,,849.6286524999887,None,,,,,,,,,,,,,,,,,school,24,59,silent,old,yellow,837.3062057001516,None,837.3062057001516,None,6,10.212198799941689,837.3062057001516,None,10.212198799941689,847.5545669998974,None,848.0612479001284,None,848.0612479001284,None,r,1.5372299998998642,848.0612479001284,None,1.5372299998998642,,,silent7,001,2022_Jul_27_1133,ProdSingRedoBetween,2021.2.3,59.85930672912203,
,,,,59,0,59,0,,,,,,,,,,,,,,,,,,,,,,861.474052300211,None,,,,,,,,,,,,,,,,,scene,125,60,silent,new,null,850.1505215000361,None,850.1505215000361,None,2,9.503904199693352,850.1505215000361,None,9.503904199693352,859.6963960998692,None,860.2054502000101,None,860.2054502000101,None,f,1.2410405999980867,860.2054502000101,None,1.2410405999980867,,,silent7,001,2022_Jul_27_1133,ProdSingRedoBetween,2021.2.3,59.85930672912203,
,,,,60,0,60,0,,,,,,,,,,,,,,,,,,,,,,865.4294250002131,None,,,,,,,,,,,,,,,,,suggestion,101,61,silent,new,null,861.9962772000581,None,861.9962772000581,None,6,1.3861901997588575,861.9962772000581,None,1.3861901997588575,863.4180081998929,None,863.9265378001146,None,863.9265378001146,None,r,1.4639091999270022,863.9265378001146,None,1.4639091999270022,,,silent7,001,2022_Jul_27_1133,ProdSingRedoBetween,2021.2.3,59.85930672912203,
,,,,61,0,61,0,,,,,,,,,,,,,,,,,,,,,,870.2843162999488,None,,,,,,,,,,,,,,,,,figure,134,62,silent,new,null,865.9519536001608,None,865.9519536001608,None,2,2.1504486999474466,865.9519536001608,None,2.1504486999474466,868.1319355000742,None,868.6471778000705,None,868.6471778000705,None,r,1.6073003998026252,868.6471778000705,None,1.6073003998026252,,,silent7,001,2022_Jul_27_1133,ProdSingRedoBetween,2021.2.3,59.85930672912203,
,,,,62,0,62,0,,,,,,,,,,,,,,,,,,,,,,876.47006219998,None,,,,,,,,,,,,,,,,,machinery,82,63,silent,old,red,870.8036318002269,None,870.8036318002269,None,1,2.5067997998557985,870.8036318002269,None,2.5067997998557985,873.3483703001402,None,873.8535660002381,None,873.8535660002381,None,r,2.584815400186926,873.8535660002381,None,2.584815400186926,,,silent7,001,2022_Jul_27_1133,ProdSingRedoBetween,2021.2.3,59.85930672912203,
,,,,63,0,63,0,,,,,,,,,,,,,,,,,,,,,,885.079669599887,None,,,,,,,,,,,,,,,,,bucket,28,64,silent,old,yellow,876.9933317000978,None,876.9933317000978,None,2,3.9011274999938905,876.9933317000978,None,3.9011274999938905,880.9374659000896,None,881.4438211000524,None,881.4438211000524,None,f,3.602811499964446,881.4438211000524,None,3.602811499964446,,,silent7,001,2022_Jul_27_1133,ProdSingRedoBetween,2021.2.3,59.85930672912203,
,,,,64,0,64,0,,,,,,,,,,,,,,,,,,,,,,891.7874612999149,None,,,,,,,,,,,,,,,,,appeal,30,65,silent,old,blue,885.6070003998466,None,885.6070003998466,None,1,1.7673638998530805,885.6070003998466,None,1.7673638998530805,887.4149254001677,None,887.9325828999281,None,887.9325828999281,None,f,3.8178328997455537,887.9325828999281,None,3.8178328997455537,,,silent7,001,2022_Jul_27_1133,ProdSingRedoBetween,2021.2.3,59.85930672912203,
,,,,65,0,65,0,,,,,,,,,,,,,,,,,,,,,,895.9753673998639,None,,,,,,,,,,,,,,,,,growth,67,66,silent,old,red,892.3124061999843,None,892.3124061999843,None,6,1.8779365001246333,892.3124061999843,None,1.8779365001246333,894.234846000094,None,894.7569018998183,None,894.7569018998183,None,r,1.1854749000631273,894.7569018998183,None,1.1854749000631273,,,silent7,001,2022_Jul_27_1133,ProdSingRedoBetween,2021.2.3,59.85930672912203,
,,,,66,0,66,0,,,,,,,,,,,,,,,,,,,,,,902.3578204000369,None,,,,,,,,,,,,,,,,,style,63,67,silent,old,red,896.4967732001096,None,896.4967732001096,None,2,1.8455896996892989,896.4967732001096,None,1.8455896996892989,898.3863226999529,None,898.8943811999634,None,898.8943811999634,None,f,3.439724499825388,898.8943811999634,None,3.439724499825388,,,silent7,001,2022_Jul_27_1133,ProdSingRedoBetween,2021.2.3,59.85930672912203,
,,,,67,0,67,0,,,,,,,,,,,,,,,,,,,,,,907.6163066001609,None,,,,,,,,,,,,,,,,,commercial,137,68,silent,new,null,902.8777572000399,None,902.8777572000399,None,6,2.59256049990654,902.8777572000399,None,2.59256049990654,905.5106437001377,None,906.0371743999422,None,906.0371743999422,None,r,1.5451242001727223,906.0371743999422,None,1.5451242001727223,,,silent7,001,2022_Jul_27_1133,ProdSingRedoBetween,2021.2.3,59.85930672912203,
,,,,68,0,68,0,,,,,,,,,,,,,,,,,,,,,,918.7652258002199,None,,,,,,,,,,,,,,,,,front,31,69,silent,old,blue,908.1445981999859,None,908.1445981999859,None,3,8.7898512003012,908.1445981999859,None,8.7898512003012,916.9696537000127,None,917.4770847000182,None,917.4770847000182,None,f,1.2573082000017166,917.4770847000182,None,1.2573082000017166,,,silent7,001,2022_Jul_27_1133,ProdSingRedoBetween,2021.2.3,59.85930672912203,
,,,,69,0,69,0,,,,,,,,,,,,,,,,,,,,,,924.7699103001505,None,,,,,,,,,,,,,,,,,principal,51,70,silent,old,blue,919.2944380999543,None,919.2944380999543,None,6,3.2239311998710036,919.2944380999543,None,3.2239311998710036,922.5624187998474,None,923.0717842001468,None,923.0717842001468,None,f,1.6706473003141582,923.0717842001468,None,1.6706473003141582,,,silent7,001,2022_Jul_27_1133,ProdSingRedoBetween,2021.2.3,59.85930672912203,
,,,,70,0,70,0,,,,,,,,,,,,,,,,,,,,,,930.1082917000167,None,,,,,,,,,,,,,,,,,smooth,13,71,silent,old,yellow,925.2933259001002,None,925.2933259001002,None,6,3.5290787001140416,925.2933259001002,None,3.5290787001140416,928.8667470999062,None,929.3749393001199,None,929.3749393001199,None,r,0.7113886000588536,929.3749393001199,None,0.7113886000588536,,,silent7,001,2022_Jul_27_1133,ProdSingRedoBetween,2021.2.3,59.85930672912203,
,,,,71,0,71,0,,,,,,,,,,,,,,,,,,,,,,935.3286154000089,None,,,,,,,,,,,,,,,,,quick,121,72,silent,new,null,930.6317424001172,None,930.6317424001172,None,6,2.2706746999174356,930.6317424001172,None,2.2706746999174356,932.9337725001387,None,933.4456791998819,None,933.4456791998819,None,f,1.8486415003426373,933.4456791998819,None,1.8486415003426373,,,silent7,001,2022_Jul_27_1133,ProdSingRedoBetween,2021.2.3,59.85930672912203,
,,,,72,0,72,0,,,,,,,,,,,,,,,,,,,,,,939.1344107999466,None,,,,,,,,,,,,,,,,,substance,44,73,silent,old,blue,935.852567399852,None,935.852567399852,None,6,1.2176601998507977,935.852567399852,None,1.2176601998507977,937.1048181001097,None,937.6182138998993,None,937.6182138998993,None,f,1.4921606997959316,937.6182138998993,None,1.4921606997959316,,,silent7,001,2022_Jul_27_1133,ProdSingRedoBetween,2021.2.3,59.85930672912203,
,,,,73,0,73,0,,,,,,,,,,,,,,,,,,,,,,942.5477086999454,None,,,,,,,,,,,,,,,,,drink,108,74,silent,new,null,939.6559536000714,None,939.6559536000714,None,6,1.0784565000794828,939.6559536000714,None,1.0784565000794828,940.7811691998504,None,941.286922399886,None,941.286922399886,None,f,1.2311407001689076,941.286922399886,None,1.2311407001689076,,,silent7,001,2022_Jul_27_1133,ProdSingRedoBetween,2021.2.3,59.85930672912203,
,,,,74,0,74,0,,,,,,,,,,,,,,,,,,,,,,949.045622299891,None,,,,,,,,,,,,,,,,,death,35,75,silent,old,blue,943.059964499902,None,943.059964499902,None,1,3.882394500076771,943.059964499902,None,3.882394500076771,946.9827518998645,None,947.4914295999333,None,947.4914295999333,None,f,1.5309623000212014,947.4914295999333,None,1.5309623000212014,,,silent7,001,2022_Jul_27_1133,ProdSingRedoBetween,2021.2.3,59.85930672912203,
,,,,75,0,75,0,,,,,,,,,,,,,,,,,,,,,,972.0605442002416,None,,,,,,,,,,,,,,,,,finish,19,76,silent,old,yellow,949.5661745001562,None,949.5661745001562,None,3,20.77601379994303,949.5661745001562,None,20.77601379994303,970.3588728997856,None,970.8596171000972,None,970.8596171000972,None,f,1.1704346998594701,970.8596171000972,None,1.1704346998594701,,,silent7,001,2022_Jul_27_1133,ProdSingRedoBetween,2021.2.3,59.85930672912203,
,,,,76,0,76,0,,,,,,,,,,,,,,,,,,,,,,979.5934365000576,None,,,,,,,,,,,,,,,,,alert,76,77,silent,old,red,972.5612288000993,None,972.5612288000993,None,1,4.877121000085026,972.5612288000993,None,4.877121000085026,977.4810031000525,None,977.9904371001758,None,977.9904371001758,None,f,1.5758972000330687,977.9904371001758,None,1.5758972000330687,,,silent7,001,2022_Jul_27_1133,ProdSingRedoBetween,2021.2.3,59.85930672912203,
,,,,77,0,77,0,,,,,,,,,,,,,,,,,,,,,,984.5960324998014,None,,,,,,,,,,,,,,,,,science,59,78,silent,old,yellow,980.1131902001798,None,980.1131902001798,None,1,2.4772143000736833,980.1131902001798,None,2.4772143000736833,982.635819000192,None,983.145425400231,None,983.145425400231,None,f,1.4288979000411928,983.145425400231,None,1.4288979000411928,,,silent7,001,2022_Jul_27_1133,ProdSingRedoBetween,2021.2.3,59.85930672912203,
,,,,78,0,78,0,,,,,,,,,,,,,,,,,,,,,,989.2844492997974,None,,,,,,,,,,,,,,,,,hearing,78,79,silent,old,red,985.117292500101,None,985.117292500101,None,6,2.433275300078094,985.117292500101,None,2.433275300078094,987.5967437000945,None,988.1100074998103,None,988.1100074998103,None,f,1.1443290002644062,988.1100074998103,None,1.1443290002644062,,,silent7,001,2022_Jul_27_1133,ProdSingRedoBetween,2021.2.3,59.85930672912203,
,,,,79,0,79,0,,,,,,,,,,,,,,,,,,,,,,992.9992951001041,None,,,,,,,,,,,,,,,,,whole,12,80,silent,old,yellow,989.8078956999816,None,989.8078956999816,None,1,1.6065462999977171,989.8078956999816,None,1.6065462999977171,991.4466491001658,None,991.9545581000857,None,991.9545581000857,None,f,1.019907500129193,991.9545581000857,None,1.019907500129193,,,silent7,001,2022_Jul_27_1133,ProdSingRedoBetween,2021.2.3,59.85930672912203,
,,,,80,0,80,0,,,,,,,,,,,,,,,,,,,,,,997.7783009000123,None,,,,,,,,,,,,,,,,,state,143,81,silent,new,null,993.517379200086,None,993.517379200086,None,6,2.4410025998950005,993.517379200086,None,2.4410025998950005,996.0012087002397,None,996.5072856000625,None,996.5072856000625,None,f,1.2431618003174663,996.5072856000625,None,1.2431618003174663,,,silent7,001,2022_Jul_27_1133,ProdSingRedoBetween,2021.2.3,59.85930672912203,
,,,,81,0,81,0,,,,,,,,,,,,,,,,,,,,,,1003.2035240000114,None,,,,,,,,,,,,,,,,,budget,128,82,silent,new,null,998.3041819999926,None,998.3041819999926,None,3,1.4462162000127137,998.3041819999926,None,1.4462162000127137,999.7872464000247,None,1000.2936638998799,None,1000.2936638998799,None,f,2.8725219001062214,1000.2936638998799,None,2.8725219001062214,,,silent7,001,2022_Jul_27_1133,ProdSingRedoBetween,2021.2.3,59.85930672912203,
,,,,82,0,82,0,,,,,,,,,,,,,,,,,,,,,,1008.9880190999247,None,,,,,,,,,,,,,,,,,burden,60,83,silent,old,red,1003.7233194001019,None,1003.7233194001019,None,6,2.0350631000474095,1003.7233194001019,None,2.0350631000474095,1005.7935091000982,None,1006.2997798002325,None,1006.2997798002325,None,r,2.650517599657178,1006.2997798002325,None,2.650517599657178,,,silent7,001,2022_Jul_27_1133,ProdSingRedoBetween,2021.2.3,59.85930672912203,
,,,,83,0,83,0,,,,,,,,,,,,,,,,,,,,,,1020.8168758000247,None,,,,,,,,,,,,,,,,,executive,112,84,silent,new,null,1009.5145065998659,None,1009.5145065998659,None,1,3.6678642998449504,1009.5145065998659,None,3.6678642998449504,1013.2150910999626,None,1013.7310834000818,None,1013.7310834000818,None,f,7.059153200127184,1013.7310834000818,None,7.059153200127184,,,silent7,001,2022_Jul_27_1133,ProdSingRedoBetween,2021.2.3,59.85930672912203,
,,,,84,0,84,0,,,,,,,,,,,,,,,,,,,,,,1026.5384463001974,None,,,,,,,,,,,,,,,,,block,20,85,silent,old,yellow,1021.3390831998549,None,1021.3390831998549,None,6,2.883203100413084,1021.3390831998549,None,2.883203100413084,1024.2561490000226,None,1024.772335700225,None,1024.772335700225,None,r,1.7299978001974523,1024.772335700225,None,1.7299978001974523,,,silent7,001,2022_Jul_27_1133,ProdSingRedoBetween,2021.2.3,59.85930672912203,
,,,,85,0,85,0,,,,,,,,,,,,,,,,,,,,,,1030.176397100091,None,,,,,,,,,,,,,,,,,owner,148,86,silent,new,null,1027.0601242999546,None,1027.0601242999546,None,6,1.8342474000528455,1027.0601242999546,None,1.8342474000528455,1028.9345034998842,None,1029.4455661000684,None,1029.4455661000684,None,r,0.7047687000595033,1029.4455661000684,None,0.7047687000595033,,,silent7,001,2022_Jul_27_1133,ProdSingRedoBetween,2021.2.3,59.85930672912203,
,,,,86,0,86,0,,,,,,,,,,,,,,,,,,,,,,1032.7709976998158,None,,,,,,,,,,,,,,,,,object,8,87,silent,old,yellow,1030.696112100035,None,1030.696112100035,None,6,1.2859787996858358,1030.696112100035,None,1.2859787996858358,1032.0127717000432,None,1032.5208688001148,None,1032.5208688001148,None,r,0.22915829997509718,1032.5208688001148,None,0.22915829997509718,,,silent7,001,2022_Jul_27_1133,ProdSingRedoBetween,2021.2.3,59.85930672912203,
,,,,87,0,87,0,,,,,,,,,,,,,,,,,,,,,,1035.3999620000832,None,,,,,,,,,,,,,,,,,scale,62,88,silent,old,red,1033.2862243000418,None,1033.2862243000418,None,6,1.3758406997658312,1033.2862243000418,None,1.3758406997658312,1034.700657099951,None,1035.209633400198,None,1035.209633400198,None,r,0.15670649986714125,1035.209633400198,None,0.15670649986714125,,,silent7,001,2022_Jul_27_1133,ProdSingRedoBetween,2021.2.3,59.85930672912203,
,,,,88,0,88,0,,,,,,,,,,,,,,,,,,,,,,1038.4501613997854,None,,,,,,,,,,,,,,,,,research,74,89,silent,old,red,1035.9270788999274,None,1035.9270788999274,None,6,0.8471591002307832,1035.9270788999274,None,0.8471591002307832,1036.8124462999403,None,1037.3360028997995,None,1037.3360028997995,None,f,1.0863224999047816,1037.3360028997995,None,1.0863224999047816,,,silent7,001,2022_Jul_27_1133,ProdSingRedoBetween,2021.2.3,59.85930672912203,
,,,,89,0,89,0,,,,,,,,,,,,,,,,,,,,,,1040.8585133999586,None,,,,,,,,,,,,,,,,,division,6,90,silent,old,yellow,1038.9785187002271,None,1038.9785187002271,None,6,0.9801267003640532,1038.9785187002271,None,0.9801267003640532,1039.9960753000341,None,1040.5045365002006,None,1040.5045365002006,None,f,0.3259235001169145,1040.5045365002006,None,0.3259235001169145,,,silent7,001,2022_Jul_27_1133,ProdSingRedoBetween,2021.2.3,59.85930672912203,
,,,,90,0,90,0,,,,,,,,,,,,,,,,,,,,,,1043.4435809999704,None,,,,,,,,,,,,,,,,,candidate,47,91,silent,old,blue,1041.3770976997912,None,1041.3770976997912,None,6,1.0052173999138176,1041.3770976997912,None,1.0052173999138176,1042.4198401002213,None,1042.9433142999187,None,1042.9433142999187,None,f,0.4709522998891771,1042.9433142999187,None,0.4709522998891771,,,silent7,001,2022_Jul_27_1133,ProdSingRedoBetween,2021.2.3,59.85930672912203,
,,,,91,0,91,0,,,,,,,,,,,,,,,,,,,,,,1048.5607100999914,None,,,,,,,,,,,,,,,,,staff,158,92,silent,new,null,1043.9665867998265,None,1043.9665867998265,None,1,1.6158326002769172,1043.9665867998265,None,1.6158326002769172,1045.6186289000325,None,1046.1277684001252,None,1046.1277684001252,None,f,2.3985313000157475,1046.1277684001252,None,2.3985313000157475,,,silent7,001,2022_Jul_27_1133,ProdSingRedoBetween,2021.2.3,59.85930672912203,
,,,,92,0,92,0,,,,,,,,,,,,,,,,,,,,,,1059.3882901999168,None,,,,,,,,,,,,,,,,,attack,10,93,silent,old,yellow,1049.0844804001972,None,1049.0844804001972,None,4,6.961838100105524,1049.0844804001972,None,6.961838100105524,1056.0786986998282,None,1056.5857886001468,None,1056.5857886001468,None,f,2.772528000175953,1056.5857886001468,None,2.772528000175953,,,silent7,001,2022_Jul_27_1133,ProdSingRedoBetween,2021.2.3,59.85930672912203,
,,,,93,0,93,0,,,,,,,,,,,,,,,,,,,,,,1064.92811540002,None,,,,,,,,,,,,,,,,,trend,90,94,silent,new,null,1059.9087423998863,None,1059.9087423998863,None,1,1.6975388997234404,1059.9087423998863,None,1.6975388997234404,1061.6489670001902,None,1062.1506314999424,None,1062.1506314999424,None,f,2.7515694997273386,1062.1506314999424,None,2.7515694997273386,,,silent7,001,2022_Jul_27_1133,ProdSingRedoBetween,2021.2.3,59.85930672912203,
,,,,94,0,94,0,,,,,,,,,,,,,,,,,,,,,,1073.0055729998276,None,,,,,,,,,,,,,,,,,tough,54,95,silent,old,blue,1065.448022000026,None,1065.448022000026,None,3,5.44623569957912,1065.448022000026,None,5.44623569957912,1070.940992699936,None,1071.445380399935,None,1071.445380399935,None,f,1.5209491001442075,1071.445380399935,None,1.5209491001442075,,,silent7,001,2022_Jul_27_1133,ProdSingRedoBetween,2021.2.3,59.85930672912203,
,,,,95,0,95,0,,,,,,,,,,,,,,,,,,,,,,1077.6240484998561,None,,,,,,,,,,,,,,,,,contract,164,96,silent,new,null,1073.5243119001389,None,1073.5243119001389,None,6,2.0901552997529507,1073.5243119001389,None,2.0901552997529507,1075.6462242999114,None,1076.153167199809,None,1076.153167199809,None,r,1.4370779995806515,1076.153167199809,None,1.4370779995806515,,,silent7,001,2022_Jul_27_1133,ProdSingRedoBetween,2021.2.3,59.85930672912203,
,,,,96,0,96,0,,,,,,,,,,,,,,,,,,,,,,1086.411833200138,None,,,,,,,,,,,,,,,,,background,132,97,silent,new,null,1078.1454790001735,None,1078.1454790001735,None,2,6.236621300224215,1078.1454790001735,None,6.236621300224215,1084.4129619002342,None,1084.93109320011,None,1084.93109320011,None,r,1.451138500124216,1084.93109320011,None,1.451138500124216,,,silent7,001,2022_Jul_27_1133,ProdSingRedoBetween,2021.2.3,59.85930672912203,
,,,,97,0,97,0,,,,,,,,,,,,,,,,,,,,,,1090.837135199923,None,,,,,,,,,,,,,,,,,blind,43,98,silent,old,blue,1086.9339626999572,None,1086.9339626999572,None,6,2.1203487999737263,1086.9339626999572,None,2.1203487999737263,1089.0925206001848,None,1089.599988900125,None,1089.599988900125,None,r,1.2063421998172998,1089.599988900125,None,1.2063421998172998,,,silent7,001,2022_Jul_27_1133,ProdSingRedoBetween,2021.2.3,59.85930672912203,
,,,,98,0,98,0,,,,,,,,,,,,,,,,,,,,,,1110.9893199000508,None,,,,,,,,,,,,,,,,,agency,155,99,silent,new,null,1091.3606095998548,None,1091.3606095998548,None,1,14.749602600000799,1091.3606095998548,None,14.749602600000799,1106.1475726999342,None,1106.6523871999234,None,1106.6523871999234,None,r,4.305833800230175,1106.6523871999234,None,4.305833800230175,,,silent7,001,2022_Jul_27_1133,ProdSingRedoBetween,2021.2.3,59.85930672912203,
,,,,99,0,99,0,,,,,,,,,,,,,,,,,,,,,,1120.3651529001072,None,,,,,,,,,,,,,,,,,sleep,129,100,silent,new,null,1111.513166300021,None,1111.513166300021,None,2,6.901114800013602,1111.513166300021,None,6.901114800013602,1118.4511199002154,None,1118.9725191998295,None,1118.9725191998295,None,r,1.3616704000160098,1118.9725191998295,None,1.3616704000160098,,,silent7,001,2022_Jul_27_1133,ProdSingRedoBetween,2021.2.3,59.85930672912203,
,,,,100,0,100,0,,,,,,,,,,,,,,,,,,,,,,1129.4592522000894,None,,,,,,,,,,,,,,,,,route,45,101,silent,old,blue,1120.8880257001147,None,1120.8880257001147,None,2,5.974435700103641,1120.8880257001147,None,5.974435700103641,1126.8977132001892,None,1127.4046523999423,None,1127.4046523999423,None,f,2.017817399930209,1127.4046523999423,None,2.017817399930209,,,silent7,001,2022_Jul_27_1133,ProdSingRedoBetween,2021.2.3,59.85930672912203,
,,,,101,0,101,0,,,,,,,,,,,,,,,,,,,,,,1135.3976739998907,None,,,,,,,,,,,,,,,,,group,86,102,silent,old,red,1129.9814291000366,None,1129.9814291000366,None,6,3.4648259999230504,1129.9814291000366,None,3.4648259999230504,1133.4830403998494,None,1133.9960083002225,None,1133.9960083002225,None,r,1.3782763998024166,1133.9960083002225,None,1.3782763998024166,,,silent7,001,2022_Jul_27_1133,ProdSingRedoBetween,2021.2.3,59.85930672912203,
,,,,102,0,102,0,,,,,,,,,,,,,,,,,,,,,,1140.5712389000691,None,,,,,,,,,,,,,,,,,quantity,37,103,silent,old,blue,1135.9232129999436,None,1135.9232129999436,None,1,3.531199600081891,1135.9232129999436,None,3.531199600081891,1139.4891471997835,None,1140.003279400058,None,1140.003279400058,None,r,0.5310387997888029,1140.003279400058,None,0.5310387997888029,,,silent7,001,2022_Jul_27_1133,ProdSingRedoBetween,2021.2.3,59.85930672912203,
,,,,103,0,103,0,,,,,,,,,,,,,,,,,,,,,,1145.2755117998458,None,,,,,,,,,,,,,,,,,novel,92,104,silent,new,null,1141.0938753001392,None,1141.0938753001392,None,2,2.256439700257033,1141.0938753001392,None,2.256439700257033,1143.3976727998815,None,1143.90626219986,None,1143.90626219986,None,f,1.3399610999040306,1143.90626219986,None,1.3399610999040306,,,silent7,001,2022_Jul_27_1133,ProdSingRedoBetween,2021.2.3,59.85930672912203,
,,,,104,0,104,0,,,,,,,,,,,,,,,,,,,,,,1148.6595673002303,None,,,,,,,,,,,,,,,,,welcome,151,105,silent,new,null,1145.7966980999336,None,1145.7966980999336,None,3,1.5055966000072658,1145.7966980999336,None,1.5055966000072658,1147.3352973000146,None,1147.8454832998104,None,1147.8454832998104,None,f,0.7767032999545336,1147.8454832998104,None,0.7767032999545336,,,silent7,001,2022_Jul_27_1133,ProdSingRedoBetween,2021.2.3,59.85930672912203,
,,,,105,0,105,0,,,,,,,,,,,,,,,,,,,,,,1151.924053200055,None,,,,,,,,,,,,,,,,,broke,150,106,silent,new,null,1149.1844096998684,None,1149.1844096998684,None,6,1.4618120002560318,1149.1844096998684,None,1.4618120002560318,1150.6880184998736,None,1151.1954804002307,None,1151.1954804002307,None,r,0.7064439998939633,1151.1954804002307,None,0.7064439998939633,,,silent7,001,2022_Jul_27_1133,ProdSingRedoBetween,2021.2.3,59.85930672912203,
,,,,106,0,106,0,,,,,,,,,,,,,,,,,,,,,,1155.1853693998419,None,,,,,,,,,,,,,,,,,mayor,139,107,silent,new,null,1152.4239990999922,None,1152.4239990999922,None,6,1.8141350001096725,1152.4239990999922,None,1.8141350001096725,1154.2669873000123,None,1154.7831661999226,None,1154.7831661999226,None,r,0.36709329998120666,1154.7831661999226,None,0.36709329998120666,,,silent7,001,2022_Jul_27_1133,ProdSingRedoBetween,2021.2.3,59.85930672912203,
,,,,107,0,107,0,,,,,,,,,,,,,,,,,,,,,,1162.700954100117,None,,,,,,,,,,,,,,,,,pancakes,91,108,silent,new,null,1155.7085190000944,None,1155.7085190000944,None,3,2.7059252997860312,1155.7085190000944,None,2.7059252997860312,1158.4449315001257,None,1158.9529085000977,None,1158.9529085000977,None,f,3.7171061001718044,1158.9529085000977,None,3.7171061001718044,,,silent7,001,2022_Jul_27_1133,ProdSingRedoBetween,2021.2.3,59.85930672912203,
,,,,108,0,108,0,,,,,,,,,,,,,,,,,,,,,,1166.4951395997778,None,,,,,,,,,,,,,,,,,symbol,156,109,silent,new,null,1163.2015523998998,None,1163.2015523998998,None,1,1.988528700079769,1163.2015523998998,None,1.988528700079769,1165.2273681000806,None,1165.7463345997967,None,1165.7463345997967,None,f,0.7159001999534667,1165.7463345997967,None,0.7159001999534667,,,silent7,001,2022_Jul_27_1133,ProdSingRedoBetween,2021.2.3,59.85930672912203,
,,,,109,0,109,0,,,,,,,,,,,,,,,,,,,,,,1169.9657561997883,None,,,,,,,,,,,,,,,,,election,18,110,silent,old,yellow,1167.015857399907,None,1167.015857399907,None,6,1.3748738998547196,1167.015857399907,None,1.3748738998547196,1168.422000600025,None,1168.9360679998063,None,1168.9360679998063,None,f,1.0064900000579655,1168.9360679998063,None,1.0064900000579655,,,silent7,001,2022_Jul_27_1133,ProdSingRedoBetween,2021.2.3,59.85930672912203,
,,,,110,0,110,0,,,,,,,,,,,,,,,,,,,,,,1178.0551535999402,None,,,,,,,,,,,,,,,,,pretty,64,111,silent,old,red,1170.4904789999127,None,1170.4904789999127,None,1,4.115734899882227,1170.4904789999127,None,4.115734899882227,1174.6466771000996,None,1175.1541516999714,None,1175.1541516999714,None,r,2.8680517999455333,1175.1541516999714,None,2.8680517999455333,,,silent7,001,2022_Jul_27_1133,ProdSingRedoBetween,2021.2.3,59.85930672912203,
,,,,111,0,111,0,,,,,,,,,,,,,,,,,,,,,,1185.6985100000165,None,,,,,,,,,,,,,,,,,disease,102,112,silent,new,null,1178.58014179999,None,1178.58014179999,None,6,2.3140714997425675,1178.58014179999,None,2.3140714997425675,1180.9349023001269,None,1181.444897999987,None,1181.444897999987,None,f,4.217386399861425,1181.444897999987,None,4.217386399861425,,,silent7,001,2022_Jul_27_1133,ProdSingRedoBetween,2021.2.3,59.85930672912203,
,,,,112,0,112,0,,,,,,,,,,,,,,,,,,,,,,1191.7705657999031,None,,,,,,,,,,,,,,,,,drama,88,113,silent,old,red,1186.218380600214,None,1186.218380600214,None,6,4.692033099941909,1186.218380600214,None,4.692033099941909,1190.939093399793,None,1191.4518221998587,None,1191.4518221998587,None,r,0.2904388001188636,1191.4518221998587,None,0.2904388001188636,,,silent7,001,2022_Jul_27_1133,ProdSingRedoBetween,2021.2.3,59.85930672912203,
,,,,113,0,113,0,,,,,,,,,,,,,,,,,,,,,,1194.5402930001728,None,,,,,,,,,,,,,,,,,literature,93,114,silent,new,null,1192.291284199804,None,1192.291284199804,None,1,1.4589432002976537,1192.291284199804,None,1.4589432002976537,1193.7793887997977,None,1194.289700999856,None,1194.289700999856,None,f,0.22042670007795095,1194.289700999856,None,0.22042670007795095,,,silent7,001,2022_Jul_27_1133,ProdSingRedoBetween,2021.2.3,59.85930672912203,
,,,,114,0,114,0,,,,,,,,,,,,,,,,,,,,,,1197.6610174002126,None,,,,,,,,,,,,,,,,,running,119,115,silent,new,null,1195.0626352000982,None,1195.0626352000982,None,6,1.5516023002564907,1195.0626352000982,None,1.5516023002564907,1196.6565566998906,None,1197.1771197998896,None,1197.1771197998896,None,r,0.453203700017184,1197.1771197998896,None,0.453203700017184,,,silent7,001,2022_Jul_27_1133,ProdSingRedoBetween,2021.2.3,59.85930672912203,
,,,,115,0,115,0,,,,,,,,,,,,,,,,,,,,,,1201.130893399939,None,,,,,,,,,,,,,,,,,course,7,116,silent,old,yellow,1198.1821372001432,None,1198.1821372001432,None,6,1.4719952000305057,1198.1821372001432,None,1.4719952000305057,1199.6897324002348,None,1200.1954144001938,None,1200.1954144001938,None,r,0.9068352999165654,1200.1954144001938,None,0.9068352999165654,,,silent7,001,2022_Jul_27_1133,ProdSingRedoBetween,2021.2.3,59.85930672912203,
,,,,116,0,116,0,,,,,,,,,,,,,,,,,,,,,,1203.7342723999172,None,,,,,,,,,,,,,,,,,count,174,117,silent,new,null,1201.6507076001726,None,1201.6507076001726,None,6,1.0354316998273134,1201.6507076001726,None,1.0354316998273134,1202.7241454999894,None,1203.2323862998746,None,1203.2323862998746,None,r,0.4779281998053193,1203.2323862998746,None,0.4779281998053193,,,silent7,001,2022_Jul_27_1133,ProdSingRedoBetween,2021.2.3,59.85930672912203,
,,,,117,0,117,0,,,,,,,,,,,,,,,,,,,,,,1206.2368377000093,None,,,,,,,,,,,,,,,,,drove,68,118,silent,old,red,1204.2550687999465,None,1204.2550687999465,None,6,1.1032062997110188,1204.2550687999465,None,1.1032062997110188,1205.390984099824,None,1205.9033166998997,None,1205.9033166998997,None,r,0.3030159999616444,1205.9033166998997,None,0.3030159999616444,,,silent7,001,2022_Jul_27_1133,ProdSingRedoBetween,2021.2.3,59.85930672912203,
,,,,118,0,118,0,,,,,,,,,,,,,,,,,,,,,,1208.6724004000425,None,,,,,,,,,,,,,,,,,error,165,119,silent,new,null,1206.757553000003,None,1206.757553000003,None,6,1.0727152000181377,1206.757553000003,None,1.0727152000181377,1207.8634509001859,None,1208.3701353999786,None,1208.3701353999786,None,r,0.2760717002674937,1208.3701353999786,None,0.2760717002674937,,,silent7,001,2022_Jul_27_1133,ProdSingRedoBetween,2021.2.3,59.85930672912203,
,,,,119,0,119,0,,,,,,,,,,,,,,,,,,,,,,1210.81548999995,None,,,,,,,,,,,,,,,,,history,49,120,silent,old,blue,1209.195611000061,None,1209.195611000061,None,6,0.8026724997907877,1209.195611000061,None,0.8026724997907877,1210.0327918999828,None,1210.541561999824,None,1210.541561999824,None,r,0.2485624998807907,1210.541561999824,None,0.2485624998807907,,,silent7,001,2022_Jul_27_1133,ProdSingRedoBetween,2021.2.3,59.85930672912203,
,,,,120,0,120,0,,,,,,,,,,,,,,,,,,,,,,1212.891194500029,None,,,,,,,,,,,,,,,,,match,113,121,silent,new,null,1211.3311854000203,None,1211.3311854000203,None,6,0.7066677999682724,1211.3311854000203,None,0.7066677999682724,1212.0667896000668,None,1212.567642299924,None,1212.567642299924,None,r,0.28673379961401224,1212.567642299924,None,0.28673379961401224,,,silent7,001,2022_Jul_27_1133,ProdSingRedoBetween,2021.2.3,59.85930672912203,
,,,,121,0,121,0,,,,,,,,,,,,,,,,,,,,,,1218.3155045001768,None,,,,,,,,,,,,,,,,,design,100,122,silent,new,null,1213.41606710013,None,1213.41606710013,None,2,2.886299700010568,1213.41606710013,None,2.886299700010568,1216.3419981999323,None,1216.8631322998554,None,1216.8631322998554,None,f,1.423161500133574,1216.8631322998554,None,1.423161500133574,,,silent7,001,2022_Jul_27_1133,ProdSingRedoBetween,2021.2.3,59.85930672912203,
,,,,122,0,122,0,,,,,,,,,,,,,,,,,,,,,,1221.979013599921,None,,,,,,,,,,,,,,,,,management,169,123,silent,new,null,1218.8356607998721,None,1218.8356607998721,None,6,2.2585340002551675,1218.8356607998721,None,2.2585340002551675,1221.1280110999942,None,1221.6480002999306,None,1221.6480002999306,None,r,0.30210600001737475,1221.6480002999306,None,0.30210600001737475,,,silent7,001,2022_Jul_27_1133,ProdSingRedoBetween,2021.2.3,59.85930672912203,
,,,,123,0,123,0,,,,,,,,,,,,,,,,,,,,,,1226.2851320002228,None,,,,,,,,,,,,,,,,,poetry,85,124,silent,old,red,1222.5059548998252,None,1222.5059548998252,None,6,1.4760626000352204,1222.5059548998252,None,1.4760626000352204,1224.0285681998357,None,1224.531451200135,None,1224.531451200135,None,f,1.7304316000081599,1224.531451200135,None,1.7304316000081599,,,silent7,001,2022_Jul_27_1133,ProdSingRedoBetween,2021.2.3,59.85930672912203,
,,,,124,0,124,0,,,,,,,,,,,,,,,,,,,,,,1231.97733350005,None,,,,,,,,,,,,,,,,,nature,98,125,silent,new,null,1226.8073952998966,None,1226.8073952998966,None,1,2.8307974003255367,1226.8073952998966,None,2.8307974003255367,1229.6837372998707,None,1230.1945647001266,None,1230.1945647001266,None,f,1.7556692999787629,1230.1945647001266,None,1.7556692999787629,,,silent7,001,2022_Jul_27_1133,ProdSingRedoBetween,2021.2.3,59.85930672912203,
,,,,125,0,125,0,,,,,,,,,,,,,,,,,,,,,,1236.3543801000342,None,,,,,,,,,,,,,,,,,trail,115,126,silent,new,null,1232.4997597001493,None,1232.4997597001493,None,6,2.06647829990834,1232.4997597001493,None,2.06647829990834,1234.604494899977,None,1235.113117299974,None,1235.113117299974,None,f,1.213100700173527,1235.113117299974,None,1.213100700173527,,,silent7,001,2022_Jul_27_1133,ProdSingRedoBetween,2021.2.3,59.85930672912203,
,,,,126,0,126,0,,,,,,,,,,,,,,,,,,,,,,1242.2809509001672,None,,,,,,,,,,,,,,,,,sweet,83,127,silent,old,red,1236.871111100074,None,1236.871111100074,None,5,3.087091099936515,1236.871111100074,None,3.087091099936515,1239.9948257999495,None,1240.5040409001522,None,1240.5040409001522,None,f,1.7498653000220656,1240.5040409001522,None,1.7498653000220656,,,silent7,001,2022_Jul_27_1133,ProdSingRedoBetween,2021.2.3,59.85930672912203,
,,,,127,0,127,0,,,,,,,,,,,,,,,,,,,,,,1249.0283718998544,None,,,,,,,,,,,,,,,,,audience,80,128,silent,old,red,1242.7977034999058,None,1242.7977034999058,None,5,3.9525363999418914,1242.7977034999058,None,3.9525363999418914,1246.783932699822,None,1247.290151000023,None,1247.290151000023,None,f,1.7079225000925362,1247.290151000023,None,1.7079225000925362,,,silent7,001,2022_Jul_27_1133,ProdSingRedoBetween,2021.2.3,59.85930672912203,
,,,,128,0,128,0,,,,,,,,,,,,,,,,,,,,,,1258.003782799933,None,,,,,,,,,,,,,,,,,suspect,27,129,silent,old,yellow,1249.549963899888,None,1249.549963899888,None,6,7.184197300113738,1249.549963899888,None,7.184197300113738,1256.7763101002201,None,1257.2848907001317,None,1257.2848907001317,None,f,0.6813572999089956,1257.2848907001317,None,0.6813572999089956,,,silent7,001,2022_Jul_27_1133,ProdSingRedoBetween,2021.2.3,59.85930672912203,
,,,,129,0,129,0,,,,,,,,,,,,,,,,,,,,,,1263.992600500118,None,,,,,,,,,,,,,,,,,council,110,130,silent,new,null,1258.5226262002252,None,1258.5226262002252,None,6,3.531656099949032,1258.5226262002252,None,3.531656099949032,1262.0974710998125,None,1262.606050599832,None,1262.606050599832,None,r,1.352106699720025,1262.606050599832,None,1.352106699720025,,,silent7,001,2022_Jul_27_1133,ProdSingRedoBetween,2021.2.3,59.85930672912203,
,,,,130,0,130,0,,,,,,,,,,,,,,,,,,,,,,1269.8158245999366,None,,,,,,,,,,,,,,,,,weight,34,131,silent,old,blue,1264.5155756999739,None,1264.5155756999739,None,3,3.3946732999756932,1264.5155756999739,None,3.3946732999756932,1267.9559952002019,None,1268.465305000078,None,1268.465305000078,None,f,1.3168702996335924,1268.465305000078,None,1.3168702996335924,,,silent7,001,2022_Jul_27_1133,ProdSingRedoBetween,2021.2.3,59.85930672912203,
,,,,131,0,131,0,,,,,,,,,,,,,,,,,,,,,,1272.968006900046,None,,,,,,,,,,,,,,,,,safety,127,132,silent,new,null,1270.3384397001937,None,1270.3384397001937,None,6,1.843402000144124,1270.3384397001937,None,1.843402000144124,1272.2135557001457,None,1272.7328539001755,None,1272.7328539001755,None,r,0.20138899981975555,1272.7328539001755,None,0.20138899981975555,,,silent7,001,2022_Jul_27_1133,ProdSingRedoBetween,2021.2.3,59.85930672912203,
,,,,132,0,132,0,,,,,,,,,,,,,,,,,,,,,,1278.9750705999322,None,,,,,,,,,,,,,,,,,rural,124,133,silent,new,null,1273.4886722001247,None,1273.4886722001247,None,1,4.65356869995594,1273.4886722001247,None,4.65356869995594,1278.182164200116,None,1278.6932891001925,None,1278.6932891001925,None,f,0.24882750026881695,1278.6932891001925,None,0.24882750026881695,,,silent7,001,2022_Jul_27_1133,ProdSingRedoBetween,2021.2.3,59.85930672912203,
,,,,133,0,133,0,,,,,,,,,,,,,,,,,,,,,,1283.2287484998815,None,,,,,,,,,,,,,,,,,career,94,134,silent,new,null,1279.4970434000716,None,1279.4970434000716,None,6,2.5011185999028385,1279.4970434000716,None,2.5011185999028385,1282.0363847999834,None,1282.5436443998478,None,1282.5436443998478,None,r,0.6465871999971569,1282.5436443998478,None,0.6465871999971569,,,silent7,001,2022_Jul_27_1133,ProdSingRedoBetween,2021.2.3,59.85930672912203,
,,,,134,0,134,0,,,,,,,,,,,,,,,,,,,,,,1288.9102741000243,None,,,,,,,,,,,,,,,,,entrance,103,135,silent,new,null,1283.751458399929,None,1283.751458399929,None,1,2.34287489997223,1283.751458399929,None,2.34287489997223,1286.1439514001831,None,1286.6627046000212,None,1286.6627046000212,None,f,2.223266299813986,1286.6627046000212,None,2.223266299813986,,,silent7,001,2022_Jul_27_1133,ProdSingRedoBetween,2021.2.3,59.85930672912203,
,,,,135,0,135,0,,,,,,,,,,,,,,,,,,,,,,1293.2913983999752,None,,,,,,,,,,,,,,,,,generation,48,136,silent,old,blue,1289.4109610999003,None,1289.4109610999003,None,6,2.787142700050026,1289.4109610999003,None,2.787142700050026,1292.2328286999837,None,1292.7556929001585,None,1292.7556929001585,None,r,0.5065148998983204,1292.7556929001585,None,0.5065148998983204,,,silent7,001,2022_Jul_27_1133,ProdSingRedoBetween,2021.2.3,59.85930672912203,
,,,,136,0,136,0,,,,,,,,,,,,,,,,,,,,,,1295.853135399986,None,,,,,,,,,,,,,,,,,strength,23,137,silent,old,yellow,1293.8151149000041,None,1293.8151149000041,None,6,1.4470774000510573,1293.8151149000041,None,1.4470774000510573,1295.2992377001792,None,1295.807356600184,None,1295.807356600184,None,r,0.022633299697190523,1295.807356600184,None,0.022633299697190523,,,silent7,001,2022_Jul_27_1133,ProdSingRedoBetween,2021.2.3,59.85930672912203,
,,,,137,0,137,0,,,,,,,,,,,,,,,,,,,,,,1299.0157465999946,None,,,,,,,,,,,,,,,,,south,96,138,silent,new,null,1296.3787398999557,None,1296.3787398999557,None,2,1.7794177001342177,1296.3787398999557,None,1.7794177001342177,1298.1942699002102,None,1298.7116089998744,None,1298.7116089998744,None,r,0.2625371003523469,1298.7116089998744,None,0.2625371003523469,,,silent7,001,2022_Jul_27_1133,ProdSingRedoBetween,2021.2.3,59.85930672912203,
,,,,138,0,138,0,,,,,,,,,,,,,,,,,,,,,,1302.4068478001282,None,,,,,,,,,,,,,,,,,dozen,50,139,silent,old,blue,1299.5401922999881,None,1299.5401922999881,None,1,1.8979194001294672,1299.5401922999881,None,1.8979194001294672,1301.4739843998104,None,1301.973186600022,None,1301.973186600022,None,f,0.4167310004122555,1301.973186600022,None,0.4167310004122555,,,silent7,001,2022_Jul_27_1133,ProdSingRedoBetween,2021.2.3,59.85930672912203,
,,,,139,0,139,0,,,,,,,,,,,,,,,,,,,,,,1305.103259800002,None,,,,,,,,,,,,,,,,,citizen,149,140,silent,new,null,1302.9330311999656,None,1302.9330311999656,None,6,1.408782500308007,1302.9330311999656,None,1.408782500308007,1304.3620843999088,None,1304.8865772001445,None,1304.8865772001445,None,f,0.19157169992104173,1304.8865772001445,None,0.19157169992104173,,,silent7,001,2022_Jul_27_1133,ProdSingRedoBetween,2021.2.3,59.85930672912203,
,,,,140,0,140,0,,,,,,,,,,,,,,,,,,,,,,1307.454819300212,None,,,,,,,,,,,,,,,,,bureau,56,141,silent,old,blue,1305.6246219999157,None,1305.6246219999157,None,6,0.8296854002401233,1305.6246219999157,None,0.8296854002401233,1306.4861059999093,None,1307.0026230998337,None,1307.0026230998337,None,r,0.4195695002563298,1307.0026230998337,None,0.4195695002563298,,,silent7,001,2022_Jul_27_1133,ProdSingRedoBetween,2021.2.3,59.85930672912203,
,,,,141,0,141,0,,,,,,,,,,,,,,,,,,,,,,1309.4554465999827,None,,,,,,,,,,,,,,,,,afternoon,73,142,silent,old,red,1307.979406400118,None,1307.979406400118,None,6,0.8348084003664553,1307.979406400118,None,0.8348084003664553,1308.8522649002261,None,1309.3694286998361,None,1309.3694286998361,None,r,0.052813100162893534,1309.3694286998361,None,0.052813100162893534,,,silent7,001,2022_Jul_27_1133,ProdSingRedoBetween,2021.2.3,59.85930672912203,
,,,,142,0,142,0,,,,,,,,,,,,,,,,,,,,,,1312.759229700081,None,,,,,,,,,,,,,,,,,frank,179,143,silent,new,null,1309.9830153998919,None,1309.9830153998919,None,1,1.6070888000540435,1309.9830153998919,None,1.6070888000540435,1311.635127699934,None,1312.141289500054,None,1312.141289500054,None,f,0.5928338998928666,1312.141289500054,None,0.5928338998928666,,,silent7,001,2022_Jul_27_1133,ProdSingRedoBetween,2021.2.3,59.85930672912203,
,,,,143,0,143,0,,,,,,,,,,,,,,,,,,,,,,1316.3269183002412,None,,,,,,,,,,,,,,,,,union,142,144,silent,new,null,1313.2764710998163,None,1313.2764710998163,None,6,2.449668699875474,1313.2764710998163,None,2.449668699875474,1315.7671803999692,None,1316.2757774000056,None,1316.2757774000056,None,f,0.026408599689602852,1316.2757774000056,None,0.026408599689602852,,,silent7,001,2022_Jul_27_1133,ProdSingRedoBetween,2021.2.3,59.85930672912203,
,,,,144,0,144,0,,,,,,,,,,,,,,,,,,,,,,1320.2557239998132,None,,,,,,,,,,,,,,,,,population,66,145,silent,old,red,1316.8504714001901,None,1316.8504714001901,None,6,2.299625899642706,1316.8504714001901,None,2.299625899642706,1319.1856499002315,None,1319.6993594998494,None,1319.6993594998494,None,f,0.51475719967857,1319.6993594998494,None,0.51475719967857,,,silent7,001,2022_Jul_27_1133,ProdSingRedoBetween,2021.2.3,59.85930672912203,
,,,,145,0,145,0,,,,,,,,,,,,,,,,,,,,,,1323.2541135000065,None,,,,,,,,,,,,,,,,,production,166,146,silent,new,null,1320.7744714999571,None,1320.7744714999571,None,6,1.399676499888301,1320.7744714999571,None,1.399676499888301,1322.207975700032,None,1322.716287500225,None,1322.716287500225,None,r,0.5137147000059485,1322.716287500225,None,0.5137147000059485,,,silent7,001,2022_Jul_27_1133,ProdSingRedoBetween,2021.2.3,59.85930672912203,
,,,,146,0,146,0,,,,,,,,,,,,,,,,,,,,,,1326.85471590003,None,,,,,,,,,,,,,,,,,cover,138,147,silent,new,null,1323.7769784000702,None,1323.7769784000702,None,1,1.4210629002191126,1323.7769784000702,None,1.4210629002191126,1325.231614400167,None,1325.7365068001673,None,1325.7365068001673,None,f,1.0936288996599615,1325.7365068001673,None,1.0936288996599615,,,silent7,001,2022_Jul_27_1133,ProdSingRedoBetween,2021.2.3,59.85930672912203,
,,,,147,0,147,0,,,,,,,,,,,,,,,,,,,,,,1329.675261599943,None,,,,,,,,,,,,,,,,,length,71,148,silent,old,red,1327.3749581999145,None,1327.3749581999145,None,1,1.303146299906075,1327.3749581999145,None,1.303146299906075,1328.714295399841,None,1329.2237896001898,None,1329.2237896001898,None,r,0.4223390002734959,1329.2237896001898,None,0.4223390002734959,,,silent7,001,2022_Jul_27_1133,ProdSingRedoBetween,2021.2.3,59.85930672912203,
,,,,148,0,148,0,,,,,,,,,,,,,,,,,,,,,,1333.9476120001636,None,,,,,,,,,,,,,,,,,income,16,149,silent,old,yellow,1330.2085768999532,None,1330.2085768999532,None,2,1.1014376999810338,1330.2085768999532,None,1.1014376999810338,1331.3509300001897,None,1331.860600499902,None,1331.860600499902,None,r,2.057515600230545,1331.860600499902,None,2.057515600230545,,,silent7,001,2022_Jul_27_1133,ProdSingRedoBetween,2021.2.3,59.85930672912203,
,,,,149,0,149,0,,,,,,,,,,,,,,,,,,,,,,1339.3772049997933,None,,,,,,,,,,,,,,,,,number,178,150,silent,new,null,1334.4663865999319,None,1334.4663865999319,None,6,3.8277771999128163,1334.4663865999319,None,3.8277771999128163,1338.322320499923,None,1338.8341307998635,None,1338.8341307998635,None,r,0.5237341001629829,1338.8341307998635,None,0.5237341001629829,,,silent7,001,2022_Jul_27_1133,ProdSingRedoBetween,2021.2.3,59.85930672912203,
,,,,150,0,150,0,,,,,,,,,,,,,,,,,,,,,,1347.6091307001188,None,,,,,,,,,,,,,,,,,center,95,151,silent,new,null,1339.8929595001973,None,1339.8929595001973,None,1,6.473060700111091,1339.8929595001973,None,6.473060700111091,1346.3954525999725,None,1346.9063543998636,None,1346.9063543998636,None,f,0.6758037996478379,1346.9063543998636,None,0.6758037996478379,,,silent7,001,2022_Jul_27_1133,ProdSingRedoBetween,2021.2.3,59.85930672912203,
,,,,151,0,151,0,,,,,,,,,,,,,,,,,,,,,,1351.66430150019,None,,,,,,,,,,,,,,,,,region,157,152,silent,new,null,1348.13148539979,None,1348.13148539979,None,1,2.4827657002024353,1348.13148539979,None,2.4827657002024353,1350.6541240001097,None,1351.16211260017,None,1351.16211260017,None,f,0.46797800017520785,1351.16211260017,None,0.46797800017520785,,,silent7,001,2022_Jul_27_1133,ProdSingRedoBetween,2021.2.3,59.85930672912203,
,,,,152,0,152,0,,,,,,,,,,,,,,,,,,,,,,1355.6049319999292,None,,,,,,,,,,,,,,,,,theme,57,153,silent,old,blue,1352.1736567998305,None,1352.1736567998305,None,6,1.5924713998101652,1352.1736567998305,None,1.5924713998101652,1353.8143150000833,None,1354.3255512001924,None,1354.3255512001924,None,r,1.2403363999910653,1354.3255512001924,None,1.2403363999910653,,,silent7,001,2022_Jul_27_1133,ProdSingRedoBetween,2021.2.3,59.85930672912203,
,,,,153,0,153,0,,,,,,,,,,,,,,,,,,,,,,1358.920457799919,None,,,,,,,,,,,,,,,,,strain,69,154,silent,old,red,1356.1281297998503,None,1356.1281297998503,None,1,1.6221024999395013,1356.1281297998503,None,1.6221024999395013,1357.7913848999888,None,1358.3020220999606,None,1358.3020220999606,None,f,0.5840520998463035,1358.3020220999606,None,0.5840520998463035,,,silent7,001,2022_Jul_27_1133,ProdSingRedoBetween,2021.2.3,59.85930672912203,
,,,,154,0,154,0,,,,,,,,,,,,,,,,,,,,,,1362.6672148997895,None,,,,,,,,,,,,,,,,,swift,111,155,silent,new,null,1359.4422389999963,None,1359.4422389999963,None,1,2.2439961000345647,1359.4422389999963,None,2.2439961000345647,1361.7290354999714,None,1362.2337011001073,None,1362.2337011001073,None,f,0.4122323002666235,1362.2337011001073,None,0.4122323002666235,,,silent7,001,2022_Jul_27_1133,ProdSingRedoBetween,2021.2.3,59.85930672912203,
,,,,155,0,155,0,,,,,,,,,,,,,,,,,,,,,,1366.0036991001107,None,,,,,,,,,,,,,,,,,government,25,156,silent,old,yellow,1363.1839784001932,None,1363.1839784001932,None,6,1.8140309997834265,1363.1839784001932,None,1.8140309997834265,1365.0296498998068,None,1365.546785300132,None,1365.546785300132,None,f,0.42694690031930804,1365.546785300132,None,0.42694690031930804,,,silent7,001,2022_Jul_27_1133,ProdSingRedoBetween,2021.2.3,59.85930672912203,
,,,,156,0,156,0,,,,,,,,,,,,,,,,,,,,,,1372.2024191999808,None,,,,,,,,,,,,,,,,,orchestra,144,157,silent,new,null,1366.522865400184,None,1366.522865400184,None,1,4.843193700071424,1366.522865400184,None,4.843193700071424,1371.4091884000227,None,1371.918742199894,None,1371.918742199894,None,f,0.2554906001314521,1371.918742199894,None,0.2554906001314521,,,silent7,001,2022_Jul_27_1133,ProdSingRedoBetween,2021.2.3,59.85930672912203,
,,,,157,0,157,0,,,,,,,,,,,,,,,,,,,,,,1375.238080599811,None,,,,,,,,,,,,,,,,,under,5,158,silent,old,yellow,1372.7244735001586,None,1372.7244735001586,None,6,1.4016911000944674,1372.7244735001586,None,1.4016911000944674,1374.163273499813,None,1374.669888400007,None,1374.669888400007,None,f,0.5363504998385906,1374.669888400007,None,0.5363504998385906,,,silent7,001,2022_Jul_27_1133,ProdSingRedoBetween,2021.2.3,59.85930672912203,
,,,,158,0,158,0,,,,,,,,,,,,,,,,,,,,,,1378.5407438999973,None,,,,,,,,,,,,,,,,,treatment,136,159,silent,new,null,1375.7593065998517,None,1375.7593065998517,None,1,1.8227876001037657,1375.7593065998517,None,1.8227876001037657,1377.615414199885,None,1378.1247502001934,None,1378.1247502001934,None,f,0.3775895000435412,1378.1247502001934,None,0.3775895000435412,,,silent7,001,2022_Jul_27_1133,ProdSingRedoBetween,2021.2.3,59.85930672912203,
,,,,159,0,159,0,,,,,,,,,,,,,,,,,,,,,,1384.5976332998835,None,,,,,,,,,,,,,,,,,patient,168,160,silent,new,null,1379.0643668998964,None,1379.0643668998964,None,1,4.277601699810475,1379.0643668998964,None,4.277601699810475,1383.3795489999466,None,1383.8952457997948,None,1383.8952457997948,None,f,0.6629177001304924,1383.8952457997948,None,0.6629177001304924,,,silent7,001,2022_Jul_27_1133,ProdSingRedoBetween,2021.2.3,59.85930672912203,
,,,,160,0,160,0,,,,,,,,,,,,,,,,,,,,,,1388.0345288999379,None,,,,,,,,,,,,,,,,,right,116,161,silent,new,null,1385.119685200043,None,1385.119685200043,None,1,1.6784194000065327,1385.119685200043,None,1.6784194000065327,1386.8351443000138,None,1387.3495538998395,None,1387.3495538998395,None,f,0.6565777002833784,1387.3495538998395,None,0.6565777002833784,,,silent7,001,2022_Jul_27_1133,ProdSingRedoBetween,2021.2.3,59.85930672912203,
,,,,161,0,161,0,,,,,,,,,,,,,,,,,,,,,,1391.6533265002072,None,,,,,,,,,,,,,,,,,religion,4,162,silent,old,yellow,1388.5567096001469,None,1388.5567096001469,None,6,1.6574582001194358,1388.5567096001469,None,1.6574582001194358,1390.2631831998006,None,1390.778666099999,None,1390.778666099999,None,r,0.8434617002494633,1390.778666099999,None,0.8434617002494633,,,silent7,001,2022_Jul_27_1133,ProdSingRedoBetween,2021.2.3,59.85930672912203,
,,,,162,0,162,0,,,,,,,,,,,,,,,,,,,,,,1394.972721000202,None,,,,,,,,,,,,,,,,,enemy,29,163,silent,old,blue,1392.1634598998353,None,1392.1634598998353,None,1,1.6743646003305912,1392.1634598998353,None,1.6743646003305912,1393.8684153999202,None,1394.3880706001073,None,1394.3880706001073,None,r,0.5619546002708375,1394.3880706001073,None,0.5619546002708375,,,silent7,001,2022_Jul_27_1133,ProdSingRedoBetween,2021.2.3,59.85930672912203,
,,,,163,0,163,0,,,,,,,,,,,,,,,,,,,,,,1399.0945441001095,None,,,,,,,,,,,,,,,,,break,58,164,silent,old,blue,1395.494194299914,None,1395.494194299914,None,6,2.4959002998657525,1395.494194299914,None,2.4959002998657525,1398.0365487001836,None,1398.5425839000382,None,1398.5425839000382,None,r,0.5274848998524249,1398.5425839000382,None,0.5274848998524249,,,silent7,001,2022_Jul_27_1133,ProdSingRedoBetween,2021.2.3,59.85930672912203,
,,,,164,0,164,0,,,,,,,,,,,,,,,,,,,,,,1401.958593999967,None,,,,,,,,,,,,,,,,,reading,41,165,silent,old,blue,1399.617244000081,None,1399.617244000081,None,6,1.5247780000790954,1399.617244000081,None,1.5247780000790954,1401.187288899906,None,1401.697143800091,None,1401.697143800091,None,r,0.23694099998101592,1401.697143800091,None,0.23694099998101592,,,silent7,001,2022_Jul_27_1133,ProdSingRedoBetween,2021.2.3,59.85930672912203,
,,,,165,0,165,0,,,,,,,,,,,,,,,,,,,,,,1405.6005342002027,None,,,,,,,,,,,,,,,,,service,84,166,silent,old,red,1402.4884381000884,None,1402.4884381000884,None,6,1.3736643004231155,1402.4884381000884,None,1.3736643004231155,1403.9104308998212,None,1404.4182465998456,None,1404.4182465998456,None,r,1.155796100385487,1404.4182465998456,None,1.155796100385487,,,silent7,001,2022_Jul_27_1133,ProdSingRedoBetween,2021.2.3,59.85930672912203,
,,,,166,0,166,0,,,,,,,,,,,,,,,,,,,,,,1409.693067399785,None,,,,,,,,,,,,,,,,,instrument,177,167,silent,new,null,1406.1294734999537,None,1406.1294734999537,None,6,2.660594000015408,1406.1294734999537,None,2.660594000015408,1408.8246678998694,None,1409.3377319998108,None,1409.3377319998108,None,r,0.3244015001691878,1409.3377319998108,None,0.3244015001691878,,,silent7,001,2022_Jul_27_1133,ProdSingRedoBetween,2021.2.3,59.85930672912203,
,,,,167,0,167,0,,,,,,,,,,,,,,,,,,,,,,1414.7445280998945,None,,,,,,,,,,,,,,,,,present,17,168,silent,old,yellow,1410.2152475002222,None,1410.2152475002222,None,4,2.902885100338608,1410.2152475002222,None,2.902885100338608,1413.1518772998825,None,1413.660157499835,None,1413.660157499835,None,f,1.0578789999708533,1413.660157499835,None,1.0578789999708533,,,silent7,001,2022_Jul_27_1133,ProdSingRedoBetween,2021.2.3,59.85930672912203,
,,,,168,0,168,0,,,,,,,,,,,,,,,,,,,,,,1417.9344235002063,None,,,,,,,,,,,,,,,,,emergency,99,169,silent,new,null,1415.2660472998396,None,1415.2660472998396,None,4,1.8917189999483526,1415.2660472998396,None,1.8917189999483526,1417.20190980006,None,1417.7056165998802,None,1417.7056165998802,None,f,0.19627899955958128,1417.7056165998802,None,0.19627899955958128,,,silent7,001,2022_Jul_27_1133,ProdSingRedoBetween,2021.2.3,59.85930672912203,
,,,,169,0,169,0,,,,,,,,,,,,,,,,,,,,,,1422.476956000086,None,,,,,,,,,,,,,,,,,member,1,170,silent,old,yellow,1418.4438451998867,None,1418.4438451998867,None,4,3.3542524999938905,1418.4438451998867,None,3.3542524999938905,1421.845695400145,None,1422.343588899821,None,1422.343588899821,None,f,0.11020789993926883,1422.343588899821,None,0.11020789993926883,,,silent7,001,2022_Jul_27_1133,ProdSingRedoBetween,2021.2.3,59.85930672912203,
,,,,170,0,170,0,,,,,,,,,,,,,,,,,,,,,,1425.5237202001736,None,,,,,,,,,,,,,,,,,employment,126,171,silent,new,null,1422.9954933999106,None,1422.9954933999106,None,5,1.5068943998776376,1422.9954933999106,None,1.5068943998776376,1424.5471358001232,None,1425.0577306998894,None,1425.0577306998894,None,r,0.43640739982947707,1425.0577306998894,None,0.43640739982947707,,,silent7,001,2022_Jul_27_1133,ProdSingRedoBetween,2021.2.3,59.85930672912203,
,,,,171,0,171,0,,,,,,,,,,,,,,,,,,,,,,1428.3006012002006,None,,,,,,,,,,,,,,,,,watch,120,172,silent,new,null,1426.0536634000018,None,1426.0536634000018,None,6,1.656498699914664,1426.0536634000018,None,1.656498699914664,1427.7463533999398,None,1428.2559960000217,None,1428.2559960000217,None,r,0.021865599788725376,1428.2559960000217,None,0.021865599788725376,,,silent7,001,2022_Jul_27_1133,ProdSingRedoBetween,2021.2.3,59.85930672912203,
,,,,172,0,172,0,,,,,,,,,,,,,,,,,,,,,,1435.4397637001239,None,,,,,,,,,,,,,,,,,working,72,173,silent,old,red,1428.8206632998772,None,1428.8206632998772,None,6,5.929410200100392,1428.8206632998772,None,5.929410200100392,1434.7922029998153,None,1435.2985379998572,None,1435.2985379998572,None,f,0.12326430017128587,1435.2985379998572,None,0.12326430017128587,,,silent7,001,2022_Jul_27_1133,ProdSingRedoBetween,2021.2.3,59.85930672912203,
,,,,173,0,173,0,,,,,,,,,,,,,,,,,,,,,,1439.5180251998827,None,,,,,,,,,,,,,,,,,exchange,46,174,silent,old,blue,1435.956675000023,None,1435.956675000023,None,6,1.4573731999844313,1435.956675000023,None,1.4573731999844313,1437.4599599000067,None,1437.9676994001493,None,1437.9676994001493,None,f,1.5264022997580469,1437.9676994001493,None,1.5264022997580469,,,silent7,001,2022_Jul_27_1133,ProdSingRedoBetween,2021.2.3,59.85930672912203,
,,,,174,0,174,0,,,,,,,,,,,,,,,,,,,,,,1443.5559470998123,None,,,,,,,,,,,,,,,,,provision,36,175,silent,old,blue,1440.0410735001788,None,1440.0410735001788,None,3,2.5251066996715963,1440.0410735001788,None,2.5251066996715963,1442.6098516997881,None,1443.1262368001044,None,1443.1262368001044,None,f,0.3922013998962939,1443.1262368001044,None,0.3922013998962939,,,silent7,001,2022_Jul_27_1133,ProdSingRedoBetween,2021.2.3,59.85930672912203,
,,,,175,0,175,0,,,,,,,,,,,,,,,,,,,,,,1446.5076333000325,None,,,,,,,,,,,,,,,,,surface,55,176,silent,old,blue,1444.0768018998206,None,1444.0768018998206,None,2,1.6812515002675354,1444.0768018998206,None,1.6812515002675354,1445.8021312998608,None,1446.3087162999436,None,1446.3087162999436,None,f,0.16130700008943677,1446.3087162999436,None,0.16130700008943677,,,silent7,001,2022_Jul_27_1133,ProdSingRedoBetween,2021.2.3,59.85930672912203,
,,,,176,0,176,0,,,,,,,,,,,,,,,,,,,,,,1449.5720309000462,None,,,,,,,,,,,,,,,,,track,65,177,silent,old,red,1447.0285755000077,None,1447.0285755000077,None,6,1.5293705998919904,1447.0285755000077,None,1.5293705998919904,1448.5941793997772,None,1449.107822299935,None,1449.107822299935,None,r,0.4420928000472486,1449.107822299935,None,0.4420928000472486,,,silent7,001,2022_Jul_27_1133,ProdSingRedoBetween,2021.2.3,59.85930672912203,
