StudyLoop.thisRepN,StudyLoop.thisTrialN,StudyLoop.thisN,StudyLoop.thisIndex,TestLoop.thisRepN,TestLoop.thisTrialN,TestLoop.thisN,TestLoop.thisIndex,textCondition.started,textCondition.stopped,keyCondition.keys,keyCondition.rt,keyCondition.started,keyCondition.stopped,Condition,textWelcome.started,textWelcome.stopped,keyWelcome.keys,keyWelcome.rt,keyWelcome.started,keyWelcome.stopped,textAloud.started,textAloud.stopped,textSilent.started,textSilent.stopped,textSing.started,textSing.stopped,conditional_text.started,conditional_text.stopped,textBlank500.started,textBlank500.stopped,study_word,study_num,study_order,study_type,word_color,textStudy.started,textStudy.stopped,keyStudy.keys,keyStudy.rt,keyStudy.started,keyStudy.stopped,textTestInstructions.started,textTestInstructions.stopped,key_resp_3.keys,key_resp_3.rt,key_resp_3.started,key_resp_3.stopped,test_word,test_num,test_order,test_condition,old_new_test,test_word_original_color,textConf.started,textConf.stopped,textConfScale.started,textConfScale.stopped,keyConf.keys,keyConf.rt,keyConf.started,keyConf.stopped,confidence response time,textTestBlank.started,textTestBlank.stopped,textRKN.started,textRKN.stopped,textRKNScale.started,textRKNScale.stopped,keyRKN.keys,keyRKN.rt,keyRKN.started,keyRKN.stopped,rkn response time,textEnd.started,textEnd.stopped,participant,session,date,expName,psychopyVersion,frameRate
,,,,,,,,1579.720359,None,a,155.1322616,1579.720359,None,,,,,,,,,,,,,,,,,,,,,,,,,,,,,,,,,,,,,,,,,,,,,,,,,,,,,,,,,,,,,,,Oct28Silent1,67,2022_Oct_28_1457,ProdSingRedoBetween,2021.2.3,59.97835975
,,,,,,,,,,,,,,SilentTest,1734.903601,None,space,9.1090298,1734.903601,None,,,,,,,,,,,,,,,,,,,,,,,,,,,,,,,,,,,,,,,,,,,,,,,,,,,,,,,,Oct28Silent1,67,2022_Oct_28_1457,ProdSingRedoBetween,2021.2.3,59.97835975
0,0,0,0,,,,,,,,,,,,,,,,,,1734.903601,None,1734.903601,None,1734.903601,None,1734.903601,None,1746.530688,None,empty,12,1,silent,yellow,1744.528735,None,space,1.3638145,1744.528735,None,,,,,,,,,,,,,,,,,,,,,,,,,,,,,,,,,,,Oct28Silent1,67,2022_Oct_28_1457,ProdSingRedoBetween,2021.2.3,59.97835975
1,0,1,0,,,,,,,,,,,,,,,,,,,,,,,,,,1749.033361,None,little,87,2,silent,red,1747.031506,None,space,1.8130131,1747.031506,None,,,,,,,,,,,,,,,,,,,,,,,,,,,,,,,,,,,Oct28Silent1,67,2022_Oct_28_1457,ProdSingRedoBetween,2021.2.3,59.97835975
2,0,2,0,,,,,,,,,,,,,,,,,,,,,,,,,,1751.552509,None,position,5,3,silent,yellow,1749.537458,None,space,1.0430516,1749.537458,None,,,,,,,,,,,,,,,,,,,,,,,,,,,,,,,,,,,Oct28Silent1,67,2022_Oct_28_1457,ProdSingRedoBetween,2021.2.3,59.97835975
3,0,3,0,,,,,,,,,,,,,,,,,,,,,,,,,,1754.055132,None,raise,13,4,silent,yellow,1752.054681,None,space,1.3182074,1752.054681,None,,,,,,,,,,,,,,,,,,,,,,,,,,,,,,,,,,,Oct28Silent1,67,2022_Oct_28_1457,ProdSingRedoBetween,2021.2.3,59.97835975
4,0,4,0,,,,,,,,,,,,,,,,,,,,,,,,,,1756.573984,None,broke,54,5,silent,blue,1754.565098,None,space,0.9994999,1754.565098,None,,,,,,,,,,,,,,,,,,,,,,,,,,,,,,,,,,,Oct28Silent1,67,2022_Oct_28_1457,ProdSingRedoBetween,2021.2.3,59.97835975
5,0,5,0,,,,,,,,,,,,,,,,,,,,,,,,,,1759.076759,None,blind,28,6,silent,yellow,1757.074791,None,None,,1757.074791,None,,,,,,,,,,,,,,,,,,,,,,,,,,,,,,,,,,,Oct28Silent1,67,2022_Oct_28_1457,ProdSingRedoBetween,2021.2.3,59.97835975
6,0,6,0,,,,,,,,,,,,,,,,,,,,,,,,,,1761.595881,None,crisis,85,7,silent,red,1759.582471,None,space,1.1021328,1759.582471,None,,,,,,,,,,,,,,,,,,,,,,,,,,,,,,,,,,,Oct28Silent1,67,2022_Oct_28_1457,ProdSingRedoBetween,2021.2.3,59.97835975
7,0,7,0,,,,,,,,,,,,,,,,,,,,,,,,,,1764.115154,None,center,89,8,silent,red,1762.099837,None,space,1.1766443,1762.099837,None,,,,,,,,,,,,,,,,,,,,,,,,,,,,,,,,,,,Oct28Silent1,67,2022_Oct_28_1457,ProdSingRedoBetween,2021.2.3,59.97835975
8,0,8,0,,,,,,,,,,,,,,,,,,,,,,,,,,1766.617573,None,watch,63,9,silent,red,1764.617096,None,None,,1764.617096,None,,,,,,,,,,,,,,,,,,,,,,,,,,,,,,,,,,,Oct28Silent1,67,2022_Oct_28_1457,ProdSingRedoBetween,2021.2.3,59.97835975
9,0,9,0,,,,,,,,,,,,,,,,,,,,,,,,,,1769.13685,None,length,74,10,silent,red,1767.124653,None,None,,1767.124653,None,,,,,,,,,,,,,,,,,,,,,,,,,,,,,,,,,,,Oct28Silent1,67,2022_Oct_28_1457,ProdSingRedoBetween,2021.2.3,59.97835975
10,0,10,0,,,,,,,,,,,,,,,,,,,,,,,,,,1771.655935,None,object,34,11,silent,blue,1769.641091,None,None,,1769.641091,None,,,,,,,,,,,,,,,,,,,,,,,,,,,,,,,,,,,Oct28Silent1,67,2022_Oct_28_1457,ProdSingRedoBetween,2021.2.3,59.97835975
11,0,11,0,,,,,,,,,,,,,,,,,,,,,,,,,,1774.158418,None,sight,75,12,silent,red,1772.156536,None,None,,1772.156536,None,,,,,,,,,,,,,,,,,,,,,,,,,,,,,,,,,,,Oct28Silent1,67,2022_Oct_28_1457,ProdSingRedoBetween,2021.2.3,59.97835975
12,0,12,0,,,,,,,,,,,,,,,,,,,,,,,,,,1776.66091,None,signal,27,13,silent,yellow,1774.658852,None,None,,1774.658852,None,,,,,,,,,,,,,,,,,,,,,,,,,,,,,,,,,,,Oct28Silent1,67,2022_Oct_28_1457,ProdSingRedoBetween,2021.2.3,59.97835975
13,0,13,0,,,,,,,,,,,,,,,,,,,,,,,,,,1779.163111,None,court,39,14,silent,blue,1777.163844,None,None,,1777.163844,None,,,,,,,,,,,,,,,,,,,,,,,,,,,,,,,,,,,Oct28Silent1,67,2022_Oct_28_1457,ProdSingRedoBetween,2021.2.3,59.97835975
14,0,14,0,,,,,,,,,,,,,,,,,,,,,,,,,,1781.666028,None,narrow,7,15,silent,yellow,1779.663723,None,None,,1779.663723,None,,,,,,,,,,,,,,,,,,,,,,,,,,,,,,,,,,,Oct28Silent1,67,2022_Oct_28_1457,ProdSingRedoBetween,2021.2.3,59.97835975
15,0,15,0,,,,,,,,,,,,,,,,,,,,,,,,,,1784.168531,None,degree,23,16,silent,yellow,1782.166493,None,None,,1782.166493,None,,,,,,,,,,,,,,,,,,,,,,,,,,,,,,,,,,,Oct28Silent1,67,2022_Oct_28_1457,ProdSingRedoBetween,2021.2.3,59.97835975
16,0,16,0,,,,,,,,,,,,,,,,,,,,,,,,,,1786.687458,None,expansion,32,17,silent,blue,1784.672119,None,None,,1784.672119,None,,,,,,,,,,,,,,,,,,,,,,,,,,,,,,,,,,,Oct28Silent1,67,2022_Oct_28_1457,ProdSingRedoBetween,2021.2.3,59.97835975
17,0,17,0,,,,,,,,,,,,,,,,,,,,,,,,,,1789.189894,None,tough,0,18,silent,yellow,1787.188172,None,None,,1787.188172,None,,,,,,,,,,,,,,,,,,,,,,,,,,,,,,,,,,,Oct28Silent1,67,2022_Oct_28_1457,ProdSingRedoBetween,2021.2.3,59.97835975
18,0,18,0,,,,,,,,,,,,,,,,,,,,,,,,,,1791.692686,None,answer,73,19,silent,red,1789.690516,None,None,,1789.690516,None,,,,,,,,,,,,,,,,,,,,,,,,,,,,,,,,,,,Oct28Silent1,67,2022_Oct_28_1457,ProdSingRedoBetween,2021.2.3,59.97835975
19,0,19,0,,,,,,,,,,,,,,,,,,,,,,,,,,1794.195094,None,concern,20,20,silent,yellow,1792.193364,None,None,,1792.193364,None,,,,,,,,,,,,,,,,,,,,,,,,,,,,,,,,,,,Oct28Silent1,67,2022_Oct_28_1457,ProdSingRedoBetween,2021.2.3,59.97835975
20,0,20,0,,,,,,,,,,,,,,,,,,,,,,,,,,1796.697624,None,grade,72,21,silent,red,1794.696936,None,None,,1794.696936,None,,,,,,,,,,,,,,,,,,,,,,,,,,,,,,,,,,,Oct28Silent1,67,2022_Oct_28_1457,ProdSingRedoBetween,2021.2.3,59.97835975
21,0,21,0,,,,,,,,,,,,,,,,,,,,,,,,,,1799.199944,None,sleep,65,22,silent,red,1797.200429,None,None,,1797.200429,None,,,,,,,,,,,,,,,,,,,,,,,,,,,,,,,,,,,Oct28Silent1,67,2022_Oct_28_1457,ProdSingRedoBetween,2021.2.3,59.97835975
22,0,22,0,,,,,,,,,,,,,,,,,,,,,,,,,,1801.719184,None,build,64,23,silent,red,1799.704949,None,None,,1799.704949,None,,,,,,,,,,,,,,,,,,,,,,,,,,,,,,,,,,,Oct28Silent1,67,2022_Oct_28_1457,ProdSingRedoBetween,2021.2.3,59.97835975
23,0,23,0,,,,,,,,,,,,,,,,,,,,,,,,,,1804.221721,None,right,26,24,silent,yellow,1802.219759,None,None,,1802.219759,None,,,,,,,,,,,,,,,,,,,,,,,,,,,,,,,,,,,Oct28Silent1,67,2022_Oct_28_1457,ProdSingRedoBetween,2021.2.3,59.97835975
24,0,24,0,,,,,,,,,,,,,,,,,,,,,,,,,,1806.724456,None,society,44,25,silent,blue,1804.722136,None,None,,1804.722136,None,,,,,,,,,,,,,,,,,,,,,,,,,,,,,,,,,,,Oct28Silent1,67,2022_Oct_28_1457,ProdSingRedoBetween,2021.2.3,59.97835975
25,0,25,0,,,,,,,,,,,,,,,,,,,,,,,,,,1809.243455,None,population,88,26,silent,red,1807.22827,None,None,,1807.22827,None,,,,,,,,,,,,,,,,,,,,,,,,,,,,,,,,,,,Oct28Silent1,67,2022_Oct_28_1457,ProdSingRedoBetween,2021.2.3,59.97835975
26,0,26,0,,,,,,,,,,,,,,,,,,,,,,,,,,1811.745897,None,medicine,50,27,silent,blue,1809.744462,None,None,,1809.744462,None,,,,,,,,,,,,,,,,,,,,,,,,,,,,,,,,,,,Oct28Silent1,67,2022_Oct_28_1457,ProdSingRedoBetween,2021.2.3,59.97835975
27,0,27,0,,,,,,,,,,,,,,,,,,,,,,,,,,1814.265206,None,notice,36,28,silent,blue,1812.249949,None,None,,1812.249949,None,,,,,,,,,,,,,,,,,,,,,,,,,,,,,,,,,,,Oct28Silent1,67,2022_Oct_28_1457,ProdSingRedoBetween,2021.2.3,59.97835975
28,0,28,0,,,,,,,,,,,,,,,,,,,,,,,,,,1816.784327,None,bureau,14,29,silent,yellow,1814.773518,None,None,,1814.773518,None,,,,,,,,,,,,,,,,,,,,,,,,,,,,,,,,,,,Oct28Silent1,67,2022_Oct_28_1457,ProdSingRedoBetween,2021.2.3,59.97835975
29,0,29,0,,,,,,,,,,,,,,,,,,,,,,,,,,1819.286641,None,threat,30,30,silent,blue,1817.284812,None,None,,1817.284812,None,,,,,,,,,,,,,,,,,,,,,,,,,,,,,,,,,,,Oct28Silent1,67,2022_Oct_28_1457,ProdSingRedoBetween,2021.2.3,59.97835975
30,0,30,0,,,,,,,,,,,,,,,,,,,,,,,,,,1821.80616,None,platform,9,31,silent,yellow,1819.792208,None,None,,1819.792208,None,,,,,,,,,,,,,,,,,,,,,,,,,,,,,,,,,,,Oct28Silent1,67,2022_Oct_28_1457,ProdSingRedoBetween,2021.2.3,59.97835975
31,0,31,0,,,,,,,,,,,,,,,,,,,,,,,,,,1824.32509,None,comedy,81,32,silent,red,1822.312135,None,None,,1822.312135,None,,,,,,,,,,,,,,,,,,,,,,,,,,,,,,,,,,,Oct28Silent1,67,2022_Oct_28_1457,ProdSingRedoBetween,2021.2.3,59.97835975
32,0,32,0,,,,,,,,,,,,,,,,,,,,,,,,,,1826.844342,None,thing,29,33,silent,blue,1824.828875,None,None,,1824.828875,None,,,,,,,,,,,,,,,,,,,,,,,,,,,,,,,,,,,Oct28Silent1,67,2022_Oct_28_1457,ProdSingRedoBetween,2021.2.3,59.97835975
33,0,33,0,,,,,,,,,,,,,,,,,,,,,,,,,,1829.346858,None,oxygen,78,34,silent,red,1827.346079,None,None,,1827.346079,None,,,,,,,,,,,,,,,,,,,,,,,,,,,,,,,,,,,Oct28Silent1,67,2022_Oct_28_1457,ProdSingRedoBetween,2021.2.3,59.97835975
34,0,34,0,,,,,,,,,,,,,,,,,,,,,,,,,,1831.866116,None,quick,77,35,silent,red,1829.858223,None,None,,1829.858223,None,,,,,,,,,,,,,,,,,,,,,,,,,,,,,,,,,,,Oct28Silent1,67,2022_Oct_28_1457,ProdSingRedoBetween,2021.2.3,59.97835975
35,0,35,0,,,,,,,,,,,,,,,,,,,,,,,,,,1834.38506,None,public,46,36,silent,blue,1832.36947,None,None,,1832.36947,None,,,,,,,,,,,,,,,,,,,,,,,,,,,,,,,,,,,Oct28Silent1,67,2022_Oct_28_1457,ProdSingRedoBetween,2021.2.3,59.97835975
36,0,36,0,,,,,,,,,,,,,,,,,,,,,,,,,,1836.887679,None,problem,70,37,silent,red,1834.885742,None,None,,1834.885742,None,,,,,,,,,,,,,,,,,,,,,,,,,,,,,,,,,,,Oct28Silent1,67,2022_Oct_28_1457,ProdSingRedoBetween,2021.2.3,59.97835975
37,0,37,0,,,,,,,,,,,,,,,,,,,,,,,,,,1839.406538,None,figure,59,38,silent,yellow,1837.39401,None,None,,1837.39401,None,,,,,,,,,,,,,,,,,,,,,,,,,,,,,,,,,,,Oct28Silent1,67,2022_Oct_28_1457,ProdSingRedoBetween,2021.2.3,59.97835975
38,0,38,0,,,,,,,,,,,,,,,,,,,,,,,,,,1841.926163,None,clean,17,39,silent,yellow,1839.911467,None,None,,1839.911467,None,,,,,,,,,,,,,,,,,,,,,,,,,,,,,,,,,,,Oct28Silent1,67,2022_Oct_28_1457,ProdSingRedoBetween,2021.2.3,59.97835975
39,0,39,0,,,,,,,,,,,,,,,,,,,,,,,,,,1844.428489,None,discussion,37,40,silent,blue,1842.429103,None,None,,1842.429103,None,,,,,,,,,,,,,,,,,,,,,,,,,,,,,,,,,,,Oct28Silent1,67,2022_Oct_28_1457,ProdSingRedoBetween,2021.2.3,59.97835975
40,0,40,0,,,,,,,,,,,,,,,,,,,,,,,,,,1846.930994,None,graduate,16,41,silent,yellow,1844.931276,None,None,,1844.931276,None,,,,,,,,,,,,,,,,,,,,,,,,,,,,,,,,,,,Oct28Silent1,67,2022_Oct_28_1457,ProdSingRedoBetween,2021.2.3,59.97835975
41,0,41,0,,,,,,,,,,,,,,,,,,,,,,,,,,1849.450184,None,voice,35,42,silent,blue,1847.437752,None,None,,1847.437752,None,,,,,,,,,,,,,,,,,,,,,,,,,,,,,,,,,,,Oct28Silent1,67,2022_Oct_28_1457,ProdSingRedoBetween,2021.2.3,59.97835975
42,0,42,0,,,,,,,,,,,,,,,,,,,,,,,,,,1851.952653,None,search,45,43,silent,blue,1849.950478,None,None,,1849.950478,None,,,,,,,,,,,,,,,,,,,,,,,,,,,,,,,,,,,Oct28Silent1,67,2022_Oct_28_1457,ProdSingRedoBetween,2021.2.3,59.97835975
43,0,43,0,,,,,,,,,,,,,,,,,,,,,,,,,,1854.455036,None,carry,49,44,silent,blue,1852.453197,None,None,,1852.453197,None,,,,,,,,,,,,,,,,,,,,,,,,,,,,,,,,,,,Oct28Silent1,67,2022_Oct_28_1457,ProdSingRedoBetween,2021.2.3,59.97835975
44,0,44,0,,,,,,,,,,,,,,,,,,,,,,,,,,1856.974331,None,weight,21,45,silent,yellow,1854.960298,None,None,,1854.960298,None,,,,,,,,,,,,,,,,,,,,,,,,,,,,,,,,,,,Oct28Silent1,67,2022_Oct_28_1457,ProdSingRedoBetween,2021.2.3,59.97835975
45,0,45,0,,,,,,,,,,,,,,,,,,,,,,,,,,1859.493614,None,science,3,46,silent,yellow,1857.479343,None,None,,1857.479343,None,,,,,,,,,,,,,,,,,,,,,,,,,,,,,,,,,,,Oct28Silent1,67,2022_Oct_28_1457,ProdSingRedoBetween,2021.2.3,59.97835975
46,0,46,0,,,,,,,,,,,,,,,,,,,,,,,,,,1862.012818,None,employment,31,47,silent,blue,1859.99739,None,None,,1859.99739,None,,,,,,,,,,,,,,,,,,,,,,,,,,,,,,,,,,,Oct28Silent1,67,2022_Oct_28_1457,ProdSingRedoBetween,2021.2.3,59.97835975
47,0,47,0,,,,,,,,,,,,,,,,,,,,,,,,,,1864.515037,None,nation,58,48,silent,blue,1862.513227,None,None,,1862.513227,None,,,,,,,,,,,,,,,,,,,,,,,,,,,,,,,,,,,Oct28Silent1,67,2022_Oct_28_1457,ProdSingRedoBetween,2021.2.3,59.97835975
48,0,48,0,,,,,,,,,,,,,,,,,,,,,,,,,,1867.017746,None,front,4,49,silent,yellow,1865.015451,None,None,,1865.015451,None,,,,,,,,,,,,,,,,,,,,,,,,,,,,,,,,,,,Oct28Silent1,67,2022_Oct_28_1457,ProdSingRedoBetween,2021.2.3,59.97835975
49,0,49,0,,,,,,,,,,,,,,,,,,,,,,,,,,1869.520206,None,breath,51,50,silent,blue,1867.520183,None,None,,1867.520183,None,,,,,,,,,,,,,,,,,,,,,,,,,,,,,,,,,,,Oct28Silent1,67,2022_Oct_28_1457,ProdSingRedoBetween,2021.2.3,59.97835975
50,0,50,0,,,,,,,,,,,,,,,,,,,,,,,,,,1872.039366,None,guide,42,51,silent,blue,1870.025747,None,None,,1870.025747,None,,,,,,,,,,,,,,,,,,,,,,,,,,,,,,,,,,,Oct28Silent1,67,2022_Oct_28_1457,ProdSingRedoBetween,2021.2.3,59.97835975
51,0,51,0,,,,,,,,,,,,,,,,,,,,,,,,,,1874.558623,None,institute,57,52,silent,blue,1872.544175,None,None,,1872.544175,None,,,,,,,,,,,,,,,,,,,,,,,,,,,,,,,,,,,Oct28Silent1,67,2022_Oct_28_1457,ProdSingRedoBetween,2021.2.3,59.97835975
52,0,52,0,,,,,,,,,,,,,,,,,,,,,,,,,,1877.077779,None,pressure,24,53,silent,yellow,1875.062896,None,None,,1875.062896,None,,,,,,,,,,,,,,,,,,,,,,,,,,,,,,,,,,,Oct28Silent1,67,2022_Oct_28_1457,ProdSingRedoBetween,2021.2.3,59.97835975
53,0,53,0,,,,,,,,,,,,,,,,,,,,,,,,,,1879.580307,None,orchestra,8,54,silent,yellow,1877.578117,None,None,,1877.578117,None,,,,,,,,,,,,,,,,,,,,,,,,,,,,,,,,,,,Oct28Silent1,67,2022_Oct_28_1457,ProdSingRedoBetween,2021.2.3,59.97835975
54,0,54,0,,,,,,,,,,,,,,,,,,,,,,,,,,1882.082734,None,trail,33,55,silent,blue,1880.081801,None,None,,1880.081801,None,,,,,,,,,,,,,,,,,,,,,,,,,,,,,,,,,,,Oct28Silent1,67,2022_Oct_28_1457,ProdSingRedoBetween,2021.2.3,59.97835975
55,0,55,0,,,,,,,,,,,,,,,,,,,,,,,,,,1884.585219,None,opening,38,56,silent,blue,1882.585203,None,None,,1882.585203,None,,,,,,,,,,,,,,,,,,,,,,,,,,,,,,,,,,,Oct28Silent1,67,2022_Oct_28_1457,ProdSingRedoBetween,2021.2.3,59.97835975
56,0,56,0,,,,,,,,,,,,,,,,,,,,,,,,,,1887.104382,None,error,82,57,silent,red,1885.094698,None,None,,1885.094698,None,,,,,,,,,,,,,,,,,,,,,,,,,,,,,,,,,,,Oct28Silent1,67,2022_Oct_28_1457,ProdSingRedoBetween,2021.2.3,59.97835975
57,0,57,0,,,,,,,,,,,,,,,,,,,,,,,,,,1889.606896,None,season,2,58,silent,yellow,1887.604914,None,None,,1887.604914,None,,,,,,,,,,,,,,,,,,,,,,,,,,,,,,,,,,,Oct28Silent1,67,2022_Oct_28_1457,ProdSingRedoBetween,2021.2.3,59.97835975
58,0,58,0,,,,,,,,,,,,,,,,,,,,,,,,,,1892.109409,None,growth,41,59,silent,blue,1890.110279,None,None,,1890.110279,None,,,,,,,,,,,,,,,,,,,,,,,,,,,,,,,,,,,Oct28Silent1,67,2022_Oct_28_1457,ProdSingRedoBetween,2021.2.3,59.97835975
59,0,59,0,,,,,,,,,,,,,,,,,,,,,,,,,,1894.61159,None,tennis,62,60,silent,red,1892.611598,None,None,,1892.611598,None,,,,,,,,,,,,,,,,,,,,,,,,,,,,,,,,,,,Oct28Silent1,67,2022_Oct_28_1457,ProdSingRedoBetween,2021.2.3,59.97835975
60,0,60,0,,,,,,,,,,,,,,,,,,,,,,,,,,1897.114349,None,measure,66,61,silent,red,1895.112502,None,None,,1895.112502,None,,,,,,,,,,,,,,,,,,,,,,,,,,,,,,,,,,,Oct28Silent1,67,2022_Oct_28_1457,ProdSingRedoBetween,2021.2.3,59.97835975
61,0,61,0,,,,,,,,,,,,,,,,,,,,,,,,,,1899.616543,None,evidence,56,62,silent,blue,1897.614964,None,None,,1897.614964,None,,,,,,,,,,,,,,,,,,,,,,,,,,,,,,,,,,,Oct28Silent1,67,2022_Oct_28_1457,ProdSingRedoBetween,2021.2.3,59.97835975
62,0,62,0,,,,,,,,,,,,,,,,,,,,,,,,,,1902.11935,None,fellow,11,63,silent,yellow,1900.117918,None,None,,1900.117918,None,,,,,,,,,,,,,,,,,,,,,,,,,,,,,,,,,,,Oct28Silent1,67,2022_Oct_28_1457,ProdSingRedoBetween,2021.2.3,59.97835975
63,0,63,0,,,,,,,,,,,,,,,,,,,,,,,,,,1904.638548,None,brief,19,64,silent,yellow,1902.627541,None,None,,1902.627541,None,,,,,,,,,,,,,,,,,,,,,,,,,,,,,,,,,,,Oct28Silent1,67,2022_Oct_28_1457,ProdSingRedoBetween,2021.2.3,59.97835975
64,0,64,0,,,,,,,,,,,,,,,,,,,,,,,,,,1907.157705,None,pancakes,10,65,silent,yellow,1905.150212,None,None,,1905.150212,None,,,,,,,,,,,,,,,,,,,,,,,,,,,,,,,,,,,Oct28Silent1,67,2022_Oct_28_1457,ProdSingRedoBetween,2021.2.3,59.97835975
65,0,65,0,,,,,,,,,,,,,,,,,,,,,,,,,,1909.660281,None,youth,79,66,silent,red,1907.658291,None,None,,1907.658291,None,,,,,,,,,,,,,,,,,,,,,,,,,,,,,,,,,,,Oct28Silent1,67,2022_Oct_28_1457,ProdSingRedoBetween,2021.2.3,59.97835975
66,0,66,0,,,,,,,,,,,,,,,,,,,,,,,,,,1912.17935,None,junior,48,67,silent,blue,1910.164456,None,None,,1910.164456,None,,,,,,,,,,,,,,,,,,,,,,,,,,,,,,,,,,,Oct28Silent1,67,2022_Oct_28_1457,ProdSingRedoBetween,2021.2.3,59.97835975
67,0,67,0,,,,,,,,,,,,,,,,,,,,,,,,,,1914.681844,None,point,84,68,silent,red,1912.679968,None,None,,1912.679968,None,,,,,,,,,,,,,,,,,,,,,,,,,,,,,,,,,,,Oct28Silent1,67,2022_Oct_28_1457,ProdSingRedoBetween,2021.2.3,59.97835975
68,0,68,0,,,,,,,,,,,,,,,,,,,,,,,,,,1917.184399,None,harmony,25,69,silent,yellow,1915.182176,None,None,,1915.182176,None,,,,,,,,,,,,,,,,,,,,,,,,,,,,,,,,,,,Oct28Silent1,67,2022_Oct_28_1457,ProdSingRedoBetween,2021.2.3,59.97835975
69,0,69,0,,,,,,,,,,,,,,,,,,,,,,,,,,1919.68701,None,taste,47,70,silent,blue,1917.684899,None,None,,1917.684899,None,,,,,,,,,,,,,,,,,,,,,,,,,,,,,,,,,,,Oct28Silent1,67,2022_Oct_28_1457,ProdSingRedoBetween,2021.2.3,59.97835975
70,0,70,0,,,,,,,,,,,,,,,,,,,,,,,,,,1922.189172,None,conference,22,71,silent,yellow,1920.187467,None,None,,1920.187467,None,,,,,,,,,,,,,,,,,,,,,,,,,,,,,,,,,,,Oct28Silent1,67,2022_Oct_28_1457,ProdSingRedoBetween,2021.2.3,59.97835975
71,0,71,0,,,,,,,,,,,,,,,,,,,,,,,,,,1924.691664,None,second,1,72,silent,yellow,1922.690327,None,None,,1922.690327,None,,,,,,,,,,,,,,,,,,,,,,,,,,,,,,,,,,,Oct28Silent1,67,2022_Oct_28_1457,ProdSingRedoBetween,2021.2.3,59.97835975
72,0,72,0,,,,,,,,,,,,,,,,,,,,,,,,,,1927.194323,None,force,69,73,silent,red,1925.192481,None,None,,1925.192481,None,,,,,,,,,,,,,,,,,,,,,,,,,,,,,,,,,,,Oct28Silent1,67,2022_Oct_28_1457,ProdSingRedoBetween,2021.2.3,59.97835975
73,0,73,0,,,,,,,,,,,,,,,,,,,,,,,,,,1929.696867,None,smell,86,74,silent,red,1927.694963,None,None,,1927.694963,None,,,,,,,,,,,,,,,,,,,,,,,,,,,,,,,,,,,Oct28Silent1,67,2022_Oct_28_1457,ProdSingRedoBetween,2021.2.3,59.97835975
74,0,74,0,,,,,,,,,,,,,,,,,,,,,,,,,,1932.199365,None,vision,60,75,silent,red,1930.197383,None,None,,1930.197383,None,,,,,,,,,,,,,,,,,,,,,,,,,,,,,,,,,,,Oct28Silent1,67,2022_Oct_28_1457,ProdSingRedoBetween,2021.2.3,59.97835975
75,0,75,0,,,,,,,,,,,,,,,,,,,,,,,,,,1934.701919,None,height,43,76,silent,blue,1932.699965,None,None,,1932.699965,None,,,,,,,,,,,,,,,,,,,,,,,,,,,,,,,,,,,Oct28Silent1,67,2022_Oct_28_1457,ProdSingRedoBetween,2021.2.3,59.97835975
76,0,76,0,,,,,,,,,,,,,,,,,,,,,,,,,,1937.204341,None,union,15,77,silent,yellow,1935.204647,None,None,,1935.204647,None,,,,,,,,,,,,,,,,,,,,,,,,,,,,,,,,,,,Oct28Silent1,67,2022_Oct_28_1457,ProdSingRedoBetween,2021.2.3,59.97835975
77,0,77,0,,,,,,,,,,,,,,,,,,,,,,,,,,1939.706907,None,charter,80,78,silent,red,1937.704986,None,None,,1937.704986,None,,,,,,,,,,,,,,,,,,,,,,,,,,,,,,,,,,,Oct28Silent1,67,2022_Oct_28_1457,ProdSingRedoBetween,2021.2.3,59.97835975
78,0,78,0,,,,,,,,,,,,,,,,,,,,,,,,,,1942.209354,None,still,71,79,silent,red,1940.209931,None,None,,1940.209931,None,,,,,,,,,,,,,,,,,,,,,,,,,,,,,,,,,,,Oct28Silent1,67,2022_Oct_28_1457,ProdSingRedoBetween,2021.2.3,59.97835975
79,0,79,0,,,,,,,,,,,,,,,,,,,,,,,,,,1944.711732,None,period,55,80,silent,blue,1942.712681,None,None,,1942.712681,None,,,,,,,,,,,,,,,,,,,,,,,,,,,,,,,,,,,Oct28Silent1,67,2022_Oct_28_1457,ProdSingRedoBetween,2021.2.3,59.97835975
80,0,80,0,,,,,,,,,,,,,,,,,,,,,,,,,,1947.231037,None,defeat,40,81,silent,blue,1945.215608,None,None,,1945.215608,None,,,,,,,,,,,,,,,,,,,,,,,,,,,,,,,,,,,Oct28Silent1,67,2022_Oct_28_1457,ProdSingRedoBetween,2021.2.3,59.97835975
81,0,81,0,,,,,,,,,,,,,,,,,,,,,,,,,,1949.733577,None,company,52,82,silent,blue,1947.734357,None,None,,1947.734357,None,,,,,,,,,,,,,,,,,,,,,,,,,,,,,,,,,,,Oct28Silent1,67,2022_Oct_28_1457,ProdSingRedoBetween,2021.2.3,59.97835975
82,0,82,0,,,,,,,,,,,,,,,,,,,,,,,,,,1952.252787,None,mayor,76,83,silent,red,1950.237919,None,None,,1950.237919,None,,,,,,,,,,,,,,,,,,,,,,,,,,,,,,,,,,,Oct28Silent1,67,2022_Oct_28_1457,ProdSingRedoBetween,2021.2.3,59.97835975
83,0,83,0,,,,,,,,,,,,,,,,,,,,,,,,,,1954.755045,None,light,6,84,silent,yellow,1952.75445,None,None,,1952.75445,None,,,,,,,,,,,,,,,,,,,,,,,,,,,,,,,,,,,Oct28Silent1,67,2022_Oct_28_1457,ProdSingRedoBetween,2021.2.3,59.97835975
84,0,84,0,,,,,,,,,,,,,,,,,,,,,,,,,,1957.257759,None,gesture,61,85,silent,red,1955.25573,None,None,,1955.25573,None,,,,,,,,,,,,,,,,,,,,,,,,,,,,,,,,,,,Oct28Silent1,67,2022_Oct_28_1457,ProdSingRedoBetween,2021.2.3,59.97835975
85,0,85,0,,,,,,,,,,,,,,,,,,,,,,,,,,1959.776795,None,skill,18,86,silent,yellow,1957.772358,None,None,,1957.772358,None,,,,,,,,,,,,,,,,,,,,,,,,,,,,,,,,,,,Oct28Silent1,67,2022_Oct_28_1457,ProdSingRedoBetween,2021.2.3,59.97835975
86,0,86,0,,,,,,,,,,,,,,,,,,,,,,,,,,1962.279413,None,country,53,87,silent,blue,1960.279057,None,None,,1960.279057,None,,,,,,,,,,,,,,,,,,,,,,,,,,,,,,,,,,,Oct28Silent1,67,2022_Oct_28_1457,ProdSingRedoBetween,2021.2.3,59.97835975
87,0,87,0,,,,,,,,,,,,,,,,,,,,,,,,,,1964.781842,None,generation,67,88,silent,red,1962.779918,None,None,,1962.779918,None,,,,,,,,,,,,,,,,,,,,,,,,,,,,,,,,,,,Oct28Silent1,67,2022_Oct_28_1457,ProdSingRedoBetween,2021.2.3,59.97835975
88,0,88,0,,,,,,,,,,,,,,,,,,,,,,,,,,1967.301116,None,level,83,89,silent,red,1965.286864,None,None,,1965.286864,None,,,,,,,,,,,,,,,,,,,,,,,,,,,,,,,,,,,Oct28Silent1,67,2022_Oct_28_1457,ProdSingRedoBetween,2021.2.3,59.97835975
89,0,89,0,,,,,,,,,,,,,,,,,,,,,,,,,,1969.803539,None,device,68,90,silent,red,1967.803578,None,None,,1967.803578,None,,,,,,,,,,,,,,,,,,,,,,,,,,,,,,,,,,,Oct28Silent1,67,2022_Oct_28_1457,ProdSingRedoBetween,2021.2.3,59.97835975
,,,,,,,,,,,,,,,,,,,,,,,,,,,,,,,,,,,,,,,,,,1970.304449,None,k,130.059466,1970.304449,None,,,,,,,,,,,,,,,,,,,,,,,,,,,,,Oct28Silent1,67,2022_Oct_28_1457,ProdSingRedoBetween,2021.2.3,59.97835975
,,,,0,0,0,0,,,,,,,,,,,,,,,,,,,,,,2109.359384,None,,,,,,,,,,,,,,,,,,pancakes,10,1,silent,old,yellow,2100.892657,None,2100.892657,None,5,5.9832948,2100.892657,None,5.9832948,2106.910012,None,2107.432853,None,2107.432853,None,r,1.8989551,2107.432853,None,1.8989551,,,Oct28Silent1,67,2022_Oct_28_1457,ProdSingRedoBetween,2021.2.3,59.97835975
,,,,1,0,1,0,,,,,,,,,,,,,,,,,,,,,,2114.347757,None,,,,,,,,,,,,,,,,,,narrow,7,2,silent,old,yellow,2109.860977,None,2109.860977,None,4,3.4069343,2109.860977,None,3.4069343,2113.298863,None,2113.817763,None,2113.817763,None,f,0.5141066,2113.817763,None,0.5141066,,,Oct28Silent1,67,2022_Oct_28_1457,ProdSingRedoBetween,2021.2.3,59.97835975
,,,,2,0,2,0,,,,,,,,,,,,,,,,,,,,,,2119.903217,None,,,,,,,,,,,,,,,,,,instrument,133,3,silent,new,null,2114.857661,None,2114.857661,None,1,3.4982341,2114.857661,None,3.4982341,2118.385932,None,2118.893077,None,2118.893077,None,n,0.9908161,2118.893077,None,0.9908161,,,Oct28Silent1,67,2022_Oct_28_1457,ProdSingRedoBetween,2021.2.3,59.97835975
,,,,3,0,3,0,,,,,,,,,,,,,,,,,,,,,,2124.324293,None,,,,,,,,,,,,,,,,,,weight,21,4,silent,old,yellow,2120.406293,None,2120.406293,None,5,2.2055336,2120.406293,None,2.2055336,2122.640276,None,2123.148425,None,2123.148425,None,r,1.1594698,2123.148425,None,1.1594698,,,Oct28Silent1,67,2022_Oct_28_1457,ProdSingRedoBetween,2021.2.3,59.97835975
,,,,4,0,4,0,,,,,,,,,,,,,,,,,,,,,,2128.511795,None,,,,,,,,,,,,,,,,,,master,157,5,silent,new,null,2124.834746,None,2124.834746,None,1,1.7690869,2124.834746,None,1.7690869,2126.628702,None,2127.144916,None,2127.144916,None,n,1.3469595,2127.144916,None,1.3469595,,,Oct28Silent1,67,2022_Oct_28_1457,ProdSingRedoBetween,2021.2.3,59.97835975
,,,,5,0,5,0,,,,,,,,,,,,,,,,,,,,,,2133.933797,None,,,,,,,,,,,,,,,,,,waste,167,6,silent,new,null,2129.02229,None,2129.02229,None,3,3.9896268,2129.02229,None,3.9896268,2133.042096,None,2133.550316,None,2133.550316,None,f,0.3575014,2133.550316,None,0.3575014,,,Oct28Silent1,67,2022_Oct_28_1457,ProdSingRedoBetween,2021.2.3,59.97835975
,,,,6,0,6,0,,,,,,,,,,,,,,,,,,,,,,2140.840463,None,,,,,,,,,,,,,,,,,,death,143,7,silent,new,null,2134.437571,None,2134.437571,None,2,5.2702471,2134.437571,None,5.2702471,2139.724269,None,2140.22367,None,2140.22367,None,f,0.5881994,2140.22367,None,0.5881994,,,Oct28Silent1,67,2022_Oct_28_1457,ProdSingRedoBetween,2021.2.3,59.97835975
,,,,7,0,7,0,,,,,,,,,,,,,,,,,,,,,,2147.080395,None,,,,,,,,,,,,,,,,,,season,2,8,silent,old,yellow,2141.347814,None,2141.347814,None,3,4.3360821,2141.347814,None,4.3360821,2145.717792,None,2146.22961,None,2146.22961,None,r,0.8222448,2146.22961,None,0.8222448,,,Oct28Silent1,67,2022_Oct_28_1457,ProdSingRedoBetween,2021.2.3,59.97835975
,,,,8,0,8,0,,,,,,,,,,,,,,,,,,,,,,2156.756748,None,,,,,,,,,,,,,,,,,,fashion,125,9,silent,new,null,2147.589125,None,2147.589125,None,5,8.0067027,2147.589125,None,8.0067027,2155.62479,None,2156.139549,None,2156.139549,None,f,0.6002327,2156.139549,None,0.6002327,,,Oct28Silent1,67,2022_Oct_28_1457,ProdSingRedoBetween,2021.2.3,59.97835975
,,,,9,0,9,0,,,,,,,,,,,,,,,,,,,,,,2162.479076,None,,,,,,,,,,,,,,,,,,watch,63,10,silent,old,red,2157.269821,None,2157.269821,None,2,2.6699751,2157.269821,None,2.6699751,2159.963166,None,2160.47985,None,2160.47985,None,f,1.971868,2160.47985,None,1.971868,,,Oct28Silent1,67,2022_Oct_28_1457,ProdSingRedoBetween,2021.2.3,59.97835975
,,,,10,0,10,0,,,,,,,,,,,,,,,,,,,,,,2167.217071,None,,,,,,,,,,,,,,,,,,threat,30,11,silent,old,blue,2162.983069,None,2162.983069,None,6,3.2207703,2162.983069,None,3.2207703,2166.235155,None,2166.750044,None,2166.750044,None,r,0.4457783,2166.750044,None,0.4457783,,,Oct28Silent1,67,2022_Oct_28_1457,ProdSingRedoBetween,2021.2.3,59.97835975
,,,,11,0,11,0,,,,,,,,,,,,,,,,,,,,,,2172.95616,None,,,,,,,,,,,,,,,,,,crime,152,12,silent,new,null,2167.727997,None,2167.727997,None,5,4.0197672,2167.727997,None,4.0197672,2171.771567,None,2172.276167,None,2172.276167,None,r,0.6556287,2172.276167,None,0.6556287,,,Oct28Silent1,67,2022_Oct_28_1457,ProdSingRedoBetween,2021.2.3,59.97835975
,,,,12,0,12,0,,,,,,,,,,,,,,,,,,,,,,2181.664832,None,,,,,,,,,,,,,,,,,,testimony,140,13,silent,new,null,2173.465092,None,2173.465092,None,2,4.7786209,2173.465092,None,4.7786209,2178.2627,None,2178.767996,None,2178.767996,None,r,2.8757566,2178.767996,None,2.8757566,,,Oct28Silent1,67,2022_Oct_28_1457,ProdSingRedoBetween,2021.2.3,59.97835975
,,,,13,0,13,0,,,,,,,,,,,,,,,,,,,,,,2187.353823,None,,,,,,,,,,,,,,,,,,quick,77,14,silent,old,red,2182.174449,None,2182.174449,None,5,3.3332325,2182.174449,None,3.3332325,2185.536158,None,2186.038789,None,2186.038789,None,r,1.2930376,2186.038789,None,1.2930376,,,Oct28Silent1,67,2022_Oct_28_1457,ProdSingRedoBetween,2021.2.3,59.97835975
,,,,14,0,14,0,,,,,,,,,,,,,,,,,,,,,,2190.873937,None,,,,,,,,,,,,,,,,,,count,128,15,silent,new,null,2187.865663,None,2187.865663,None,1,1.7621177,2187.865663,None,1.7621177,2189.65615,None,2190.156784,None,2190.156784,None,n,0.6950061,2190.156784,None,0.6950061,,,Oct28Silent1,67,2022_Oct_28_1457,ProdSingRedoBetween,2021.2.3,59.97835975
,,,,15,0,15,0,,,,,,,,,,,,,,,,,,,,,,2197.530663,None,,,,,,,,,,,,,,,,,,expansion,32,16,silent,old,blue,2191.377062,None,2191.377062,None,2,4.5466658,2191.377062,None,4.5466658,2195.948731,None,2196.466686,None,2196.466686,None,n,1.0490469,2196.466686,None,1.0490469,,,Oct28Silent1,67,2022_Oct_28_1457,ProdSingRedoBetween,2021.2.3,59.97835975
,,,,16,0,16,0,,,,,,,,,,,,,,,,,,,,,,2202.936086,None,,,,,,,,,,,,,,,,,,signal,27,17,silent,old,yellow,2198.038218,None,2198.038218,None,5,3.9575537,2198.038218,None,3.9575537,2202.021408,None,2202.537561,None,2202.537561,None,r,0.3702076,2202.537561,None,0.3702076,,,Oct28Silent1,67,2022_Oct_28_1457,ProdSingRedoBetween,2021.2.3,59.97835975
,,,,17,0,17,0,,,,,,,,,,,,,,,,,,,,,,2207.72403,None,,,,,,,,,,,,,,,,,,council,103,18,silent,new,null,2203.440465,None,2203.440465,None,2,2.9073445,2203.440465,None,2.9073445,2206.378578,None,2206.890077,None,2206.890077,None,f,0.8096469,2206.890077,None,0.8096469,,,Oct28Silent1,67,2022_Oct_28_1457,ProdSingRedoBetween,2021.2.3,59.97835975
,,,,18,0,18,0,,,,,,,,,,,,,,,,,,,,,,2212.845912,None,,,,,,,,,,,,,,,,,,range,166,19,silent,new,null,2208.224758,None,2208.224758,None,3,3.2030176,2208.224758,None,3.2030176,2211.450039,None,2211.96318,None,2211.96318,None,f,0.8645576,2211.96318,None,0.8645576,,,Oct28Silent1,67,2022_Oct_28_1457,ProdSingRedoBetween,2021.2.3,59.97835975
,,,,19,0,19,0,,,,,,,,,,,,,,,,,,,,,,2216.382564,None,,,,,,,,,,,,,,,,,,listen,131,20,silent,new,null,2213.356516,None,2213.356516,None,1,1.8231252,2213.356516,None,1.8231252,2215.201267,None,2215.715545,None,2215.715545,None,n,0.6483189,2215.715545,None,0.6483189,,,Oct28Silent1,67,2022_Oct_28_1457,ProdSingRedoBetween,2021.2.3,59.97835975
,,,,20,0,20,0,,,,,,,,,,,,,,,,,,,,,,2220.221702,None,,,,,,,,,,,,,,,,,,conference,22,21,silent,old,yellow,2216.893615,None,2216.893615,None,5,2.3583216,2216.893615,None,2.3583216,2219.277602,None,2219.790377,None,2219.790377,None,r,0.4134175,2219.790377,None,0.4134175,,,Oct28Silent1,67,2022_Oct_28_1457,ProdSingRedoBetween,2021.2.3,59.97835975
,,,,21,0,21,0,,,,,,,,,,,,,,,,,,,,,,2223.606631,None,,,,,,,,,,,,,,,,,,bitter,93,22,silent,new,null,2220.739761,None,2220.739761,None,1,1.8159069,2220.739761,None,1.8159069,2222.572199,None,2223.076457,None,2223.076457,None,n,0.5032197,2223.076457,None,0.5032197,,,Oct28Silent1,67,2022_Oct_28_1457,ProdSingRedoBetween,2021.2.3,59.97835975
,,,,22,0,22,0,,,,,,,,,,,,,,,,,,,,,,2228.511597,None,,,,,,,,,,,,,,,,,,measure,66,23,silent,old,red,2224.116192,None,2224.116192,None,5,3.0875599,2224.116192,None,3.0875599,2227.234064,None,2227.744222,None,2227.744222,None,r,0.7394834,2227.744222,None,0.7394834,,,Oct28Silent1,67,2022_Oct_28_1457,ProdSingRedoBetween,2021.2.3,59.97835975
,,,,23,0,23,0,,,,,,,,,,,,,,,,,,,,,,2233.066145,None,,,,,,,,,,,,,,,,,,bucket,136,24,silent,new,null,2229.020292,None,2229.020292,None,1,2.0873775,2229.020292,None,2.0873775,2231.132069,None,2231.632339,None,2231.632339,None,n,1.403338,2231.632339,None,1.403338,,,Oct28Silent1,67,2022_Oct_28_1457,ProdSingRedoBetween,2021.2.3,59.97835975
,,,,24,0,24,0,,,,,,,,,,,,,,,,,,,,,,2238.34202,None,,,,,,,,,,,,,,,,,,public,46,25,silent,old,blue,2233.571998,None,2233.571998,None,6,3.3277539,2233.571998,None,3.3277539,2236.927339,None,2237.440508,None,2237.440508,None,r,0.8754072,2237.440508,None,0.8754072,,,Oct28Silent1,67,2022_Oct_28_1457,ProdSingRedoBetween,2021.2.3,59.97835975
,,,,25,0,25,0,,,,,,,,,,,,,,,,,,,,,,2241.658205,None,,,,,,,,,,,,,,,,,,orchestra,8,26,silent,old,yellow,2238.87111,None,2238.87111,None,6,2.0366404,2238.87111,None,2.0366404,2240.931941,None,2241.445346,None,2241.445346,None,r,0.1824607,2241.445346,None,0.1824607,,,Oct28Silent1,67,2022_Oct_28_1457,ProdSingRedoBetween,2021.2.3,59.97835975
,,,,26,0,26,0,,,,,,,,,,,,,,,,,,,,,,2245.995616,None,,,,,,,,,,,,,,,,,,division,129,27,silent,new,null,2242.16711,None,2242.16711,None,2,2.1324945,2242.16711,None,2.1324945,2244.329167,None,2244.856057,None,2244.856057,None,n,1.1155739,2244.856057,None,1.1155739,,,Oct28Silent1,67,2022_Oct_28_1457,ProdSingRedoBetween,2021.2.3,59.97835975
,,,,27,0,27,0,,,,,,,,,,,,,,,,,,,,,,2254.170465,None,,,,,,,,,,,,,,,,,,surface,170,28,silent,new,null,2246.506828,None,2246.506828,None,4,6.312697,2246.506828,None,6.312697,2252.840428,None,2253.353121,None,2253.353121,None,f,0.7945197,2253.353121,None,0.7945197,,,Oct28Silent1,67,2022_Oct_28_1457,ProdSingRedoBetween,2021.2.3,59.97835975
,,,,28,0,28,0,,,,,,,,,,,,,,,,,,,,,,2258.374641,None,,,,,,,,,,,,,,,,,,broke,54,29,silent,old,blue,2254.671117,None,2254.671117,None,6,2.2445289,2254.671117,None,2.2445289,2256.943215,None,2257.460416,None,2257.460416,None,r,0.8952931,2257.460416,None,0.8952931,,,Oct28Silent1,67,2022_Oct_28_1457,ProdSingRedoBetween,2021.2.3,59.97835975
,,,,29,0,29,0,,,,,,,,,,,,,,,,,,,,,,2262.028302,None,,,,,,,,,,,,,,,,,,angle,99,30,silent,new,null,2258.881657,None,2258.881657,None,1,1.721952,2258.881657,None,1.721952,2260.627834,None,2261.127273,None,2261.127273,None,r,0.8843363,2261.127273,None,0.8843363,,,Oct28Silent1,67,2022_Oct_28_1457,ProdSingRedoBetween,2021.2.3,59.97835975
,,,,30,0,30,0,,,,,,,,,,,,,,,,,,,,,,2266.249174,None,,,,,,,,,,,,,,,,,,evidence,56,31,silent,old,blue,2262.534475,None,2262.534475,None,5,2.4691945,2262.534475,None,2.4691945,2265.041538,None,2265.549392,None,2265.549392,None,f,0.6782279,2265.549392,None,0.6782279,,,Oct28Silent1,67,2022_Oct_28_1457,ProdSingRedoBetween,2021.2.3,59.97835975
,,,,31,0,31,0,,,,,,,,,,,,,,,,,,,,,,2270.386653,None,,,,,,,,,,,,,,,,,,candidate,154,32,silent,new,null,2266.749772,None,2266.749772,None,2,2.9577905,2266.749772,None,2.9577905,2269.740794,None,2270.257663,None,2270.257663,None,f,0.1140165,2270.257663,None,0.1140165,,,Oct28Silent1,67,2022_Oct_28_1457,ProdSingRedoBetween,2021.2.3,59.97835975
,,,,32,0,32,0,,,,,,,,,,,,,,,,,,,,,,2275.725286,None,,,,,,,,,,,,,,,,,,level,83,33,silent,old,red,2270.896436,None,2270.896436,None,6,3.39516,2270.896436,None,3.39516,2274.30856,None,2274.81202,None,2274.81202,None,r,0.8875786,2274.81202,None,0.8875786,,,Oct28Silent1,67,2022_Oct_28_1457,ProdSingRedoBetween,2021.2.3,59.97835975
,,,,33,0,33,0,,,,,,,,,,,,,,,,,,,,,,2279.278831,None,,,,,,,,,,,,,,,,,,institute,57,34,silent,old,blue,2276.230302,None,2276.230302,None,6,2.3972638,2276.230302,None,2.3972638,2278.646219,None,2279.151262,None,2279.151262,None,r,0.1002501,2279.151262,None,0.1002501,,,Oct28Silent1,67,2022_Oct_28_1457,ProdSingRedoBetween,2021.2.3,59.97835975
,,,,34,0,34,0,,,,,,,,,,,,,,,,,,,,,,2283.282817,None,,,,,,,,,,,,,,,,,,court,39,35,silent,old,blue,2279.787138,None,2279.787138,None,1,2.0324221,2279.787138,None,2.0324221,2281.848062,None,2282.351686,None,2282.351686,None,n,0.9001125,2282.351686,None,0.9001125,,,Oct28Silent1,67,2022_Oct_28_1457,ProdSingRedoBetween,2021.2.3,59.97835975
,,,,35,0,35,0,,,,,,,,,,,,,,,,,,,,,,2287.55345,None,,,,,,,,,,,,,,,,,,sight,75,36,silent,old,red,2283.790922,None,2283.790922,None,5,2.2446682,2283.790922,None,2.2446682,2286.053214,None,2286.552888,None,2286.552888,None,r,0.9708085,2286.552888,None,0.9708085,,,Oct28Silent1,67,2022_Oct_28_1457,ProdSingRedoBetween,2021.2.3,59.97835975
,,,,36,0,36,0,,,,,,,,,,,,,,,,,,,,,,2292.208262,None,,,,,,,,,,,,,,,,,,century,175,37,silent,new,null,2288.060939,None,2288.060939,None,5,1.7586594,2288.060939,None,1.7586594,2289.842789,None,2290.356623,None,2290.356623,None,f,1.8228412,2290.356623,None,1.8228412,,,Oct28Silent1,67,2022_Oct_28_1457,ProdSingRedoBetween,2021.2.3,59.97835975
,,,,37,0,37,0,,,,,,,,,,,,,,,,,,,,,,2297.013262,None,,,,,,,,,,,,,,,,,,research,153,38,silent,new,null,2292.714614,None,2292.714614,None,5,2.6410182,2292.714614,None,2.6410182,2295.384608,None,2295.895557,None,2295.895557,None,r,1.0999437,2295.895557,None,1.0999437,,,Oct28Silent1,67,2022_Oct_28_1457,ProdSingRedoBetween,2021.2.3,59.97835975
,,,,38,0,38,0,,,,,,,,,,,,,,,,,,,,,,2301.033977,None,,,,,,,,,,,,,,,,,,personnel,98,39,silent,new,null,2297.519597,None,2297.519597,None,1,2.2280295,2297.519597,None,2.2280295,2299.772087,None,2300.283297,None,2300.283297,None,r,0.7282999,2300.283297,None,0.7282999,,,Oct28Silent1,67,2022_Oct_28_1457,ProdSingRedoBetween,2021.2.3,59.97835975
,,,,39,0,39,0,,,,,,,,,,,,,,,,,,,,,,2304.537728,None,,,,,,,,,,,,,,,,,,notice,36,40,silent,old,blue,2301.539204,None,2301.539204,None,6,1.8403437,2301.539204,None,1.8403437,2303.403204,None,2303.905864,None,2303.905864,None,r,0.601691,2303.905864,None,0.601691,,,Oct28Silent1,67,2022_Oct_28_1457,ProdSingRedoBetween,2021.2.3,59.97835975
,,,,40,0,40,0,,,,,,,,,,,,,,,,,,,,,,2311.02712,None,,,,,,,,,,,,,,,,,,clean,17,41,silent,old,yellow,2305.039121,None,2305.039121,None,4,4.7245143,2305.039121,None,4.7245143,2309.793108,None,2310.293182,None,2310.293182,None,f,0.7103557,2310.293182,None,0.7103557,,,Oct28Silent1,67,2022_Oct_28_1457,ProdSingRedoBetween,2021.2.3,59.97835975
,,,,41,0,41,0,,,,,,,,,,,,,,,,,,,,,,2315.114339,None,,,,,,,,,,,,,,,,,,concern,20,42,silent,old,yellow,2311.538117,None,2311.538117,None,1,1.5934347,2311.538117,None,1.5934347,2313.164214,None,2313.667413,None,2313.667413,None,n,1.4240728,2313.667413,None,1.4240728,,,Oct28Silent1,67,2022_Oct_28_1457,ProdSingRedoBetween,2021.2.3,59.97835975
,,,,42,0,42,0,,,,,,,,,,,,,,,,,,,,,,2320.353197,None,,,,,,,,,,,,,,,,,,degree,23,43,silent,old,yellow,2315.623746,None,2315.623746,None,6,3.8997824,2315.623746,None,3.8997824,2319.552378,None,2320.053641,None,2320.053641,None,r,0.2698718,2320.053641,None,0.2698718,,,Oct28Silent1,67,2022_Oct_28_1457,ProdSingRedoBetween,2021.2.3,59.97835975
,,,,43,0,43,0,,,,,,,,,,,,,,,,,,,,,,2323.623122,None,,,,,,,,,,,,,,,,,,oxygen,78,44,silent,old,red,2320.860642,None,2320.860642,None,6,2.0148934,2320.860642,None,2.0148934,2322.907449,None,2323.422959,None,2323.422959,None,r,0.1805588,2323.422959,None,0.1805588,,,Oct28Silent1,67,2022_Oct_28_1457,ProdSingRedoBetween,2021.2.3,59.97835975
,,,,44,0,44,0,,,,,,,,,,,,,,,,,,,,,,2328.14429,None,,,,,,,,,,,,,,,,,,curve,178,45,silent,new,null,2324.132614,None,2324.132614,None,2,2.5588762,2324.132614,None,2.5588762,2326.71082,None,2327.210377,None,2327.210377,None,n,0.913129,2327.210377,None,0.913129,,,Oct28Silent1,67,2022_Oct_28_1457,ProdSingRedoBetween,2021.2.3,59.97835975
,,,,45,0,45,0,,,,,,,,,,,,,,,,,,,,,,2330.71356,None,,,,,,,,,,,,,,,,,,mayor,76,46,silent,old,red,2328.649402,None,2328.649402,None,1,1.3140825,2328.649402,None,1.3140825,2329.9877,None,2330.496701,None,2330.496701,None,n,0.186832,2330.496701,None,0.186832,,,Oct28Silent1,67,2022_Oct_28_1457,ProdSingRedoBetween,2021.2.3,59.97835975
,,,,46,0,46,0,,,,,,,,,,,,,,,,,,,,,,2335.701786,None,,,,,,,,,,,,,,,,,,force,69,47,silent,old,red,2331.217874,None,2331.217874,None,6,2.7856311,2331.217874,None,2.7856311,2334.036087,None,2334.550647,None,2334.550647,None,r,1.1248493,2334.550647,None,1.1248493,,,Oct28Silent1,67,2022_Oct_28_1457,ProdSingRedoBetween,2021.2.3,59.97835975
,,,,47,0,47,0,,,,,,,,,,,,,,,,,,,,,,2339.642079,None,,,,,,,,,,,,,,,,,,height,43,48,silent,old,blue,2336.217187,None,2336.217187,None,3,2.1384389,2336.217187,None,2.1384389,2338.377093,None,2338.888311,None,2338.888311,None,f,0.7312241,2338.888311,None,0.7312241,,,Oct28Silent1,67,2022_Oct_28_1457,ProdSingRedoBetween,2021.2.3,59.97835975
,,,,48,0,48,0,,,,,,,,,,,,,,,,,,,,,,2345.578284,None,,,,,,,,,,,,,,,,,,piece,164,49,silent,new,null,2340.15749,None,2340.15749,None,2,2.917963,2340.15749,None,2.917963,2343.09383,None,2343.596221,None,2343.596221,None,f,1.9512146,2343.596221,None,1.9512146,,,Oct28Silent1,67,2022_Oct_28_1457,ProdSingRedoBetween,2021.2.3,59.97835975
,,,,49,0,49,0,,,,,,,,,,,,,,,,,,,,,,2349.048438,None,,,,,,,,,,,,,,,,,,prime,161,50,silent,new,null,2346.091926,None,2346.091926,None,2,1.8874934,2346.091926,None,1.8874934,2347.998653,None,2348.509242,None,2348.509242,None,f,0.5101965,2348.509242,None,0.5101965,,,Oct28Silent1,67,2022_Oct_28_1457,ProdSingRedoBetween,2021.2.3,59.97835975
,,,,50,0,50,0,,,,,,,,,,,,,,,,,,,,,,2352.118184,None,,,,,,,,,,,,,,,,,,management,97,51,silent,new,null,2349.55528,None,2349.55528,None,1,1.7921959,2349.55528,None,1.7921959,2351.369169,None,2351.884687,None,2351.884687,None,n,0.2147564,2351.884687,None,0.2147564,,,Oct28Silent1,67,2022_Oct_28_1457,ProdSingRedoBetween,2021.2.3,59.97835975
,,,,51,0,51,0,,,,,,,,,,,,,,,,,,,,,,2357.139805,None,,,,,,,,,,,,,,,,,,harmony,25,52,silent,old,yellow,2352.61879,None,2352.61879,None,4,3.1046848,2352.61879,None,3.1046848,2355.741506,None,2356.256706,None,2356.256706,None,r,0.866737,2356.256706,None,0.866737,,,Oct28Silent1,67,2022_Oct_28_1457,ProdSingRedoBetween,2021.2.3,59.97835975
,,,,52,0,52,0,,,,,,,,,,,,,,,,,,,,,,2360.393984,None,,,,,,,,,,,,,,,,,,junior,48,53,silent,old,blue,2357.644931,None,2357.644931,None,1,1.7425273,2357.644931,None,1.7425273,2359.409991,None,2359.909422,None,2359.909422,None,n,0.4540739,2359.909422,None,0.4540739,,,Oct28Silent1,67,2022_Oct_28_1457,ProdSingRedoBetween,2021.2.3,59.97835975
,,,,53,0,53,0,,,,,,,,,,,,,,,,,,,,,,2365.648355,None,,,,,,,,,,,,,,,,,,guide,42,54,silent,old,blue,2360.893734,None,2360.893734,None,5,3.4697388,2360.893734,None,3.4697388,2364.385286,None,2364.899129,None,2364.899129,None,r,0.7203224,2364.899129,None,0.7203224,,,Oct28Silent1,67,2022_Oct_28_1457,ProdSingRedoBetween,2021.2.3,59.97835975
,,,,54,0,54,0,,,,,,,,,,,,,,,,,,,,,,2371.354078,None,,,,,,,,,,,,,,,,,,empty,12,55,silent,old,yellow,2366.154909,None,2366.154909,None,3,4.08068,2366.154909,None,4.08068,2370.253504,None,2370.753508,None,2370.753508,None,f,0.5780553,2370.753508,None,0.5780553,,,Oct28Silent1,67,2022_Oct_28_1457,ProdSingRedoBetween,2021.2.3,59.97835975
,,,,55,0,55,0,,,,,,,,,,,,,,,,,,,,,,2375.090907,None,,,,,,,,,,,,,,,,,,smell,86,56,silent,old,red,2371.857792,None,2371.857792,None,5,2.4416288,2371.857792,None,2.4416288,2374.324345,None,2374.824177,None,2374.824177,None,r,0.243218,2374.824177,None,0.243218,,,Oct28Silent1,67,2022_Oct_28_1457,ProdSingRedoBetween,2021.2.3,59.97835975
,,,,56,0,56,0,,,,,,,,,,,,,,,,,,,,,,2378.07735,None,,,,,,,,,,,,,,,,,,science,3,57,silent,old,yellow,2375.602126,None,2375.602126,None,6,1.7853094,2375.602126,None,1.7853094,2377.41039,None,2377.910609,None,2377.910609,None,r,0.1487726,2377.910609,None,0.1487726,,,Oct28Silent1,67,2022_Oct_28_1457,ProdSingRedoBetween,2021.2.3,59.97835975
,,,,57,0,57,0,,,,,,,,,,,,,,,,,,,,,,2380.846844,None,,,,,,,,,,,,,,,,,,period,55,58,silent,old,blue,2378.59024,None,2378.59024,None,6,1.5971633,2378.59024,None,1.5971633,2380.213908,None,2380.71349,None,2380.71349,None,r,0.105896,2380.71349,None,0.105896,,,Oct28Silent1,67,2022_Oct_28_1457,ProdSingRedoBetween,2021.2.3,59.97835975
,,,,58,0,58,0,,,,,,,,,,,,,,,,,,,,,,2385.084799,None,,,,,,,,,,,,,,,,,,captain,116,59,silent,new,null,2381.360829,None,2381.360829,None,2,2.090708,2381.360829,None,2.090708,2383.488633,None,2384.002462,None,2384.002462,None,f,1.0650013,2384.002462,None,1.0650013,,,Oct28Silent1,67,2022_Oct_28_1457,ProdSingRedoBetween,2021.2.3,59.97835975
,,,,59,0,59,0,,,,,,,,,,,,,,,,,,,,,,2389.672044,None,,,,,,,,,,,,,,,,,,build,64,60,silent,old,red,2385.595479,None,2385.595479,None,2,1.9280827,2385.595479,None,1.9280827,2387.553272,None,2388.05405,None,2388.05405,None,n,1.5894516,2388.05405,None,1.5894516,,,Oct28Silent1,67,2022_Oct_28_1457,ProdSingRedoBetween,2021.2.3,59.97835975
,,,,60,0,60,0,,,,,,,,,,,,,,,,,,,,,,2393.837394,None,,,,,,,,,,,,,,,,,,solution,155,61,silent,new,null,2390.187227,None,2390.187227,None,5,2.6561668,2390.187227,None,2.6561668,2392.860761,None,2393.37613,None,2393.37613,None,r,0.4352789,2393.37613,None,0.4352789,,,Oct28Silent1,67,2022_Oct_28_1457,ProdSingRedoBetween,2021.2.3,59.97835975
,,,,61,0,61,0,,,,,,,,,,,,,,,,,,,,,,2397.212907,None,,,,,,,,,,,,,,,,,,citizen,101,62,silent,new,null,2394.363573,None,2394.363573,None,1,1.5358698,2394.363573,None,1.5358698,2395.929506,None,2396.436652,None,2396.436652,None,n,0.7588065,2396.436652,None,0.7588065,,,Oct28Silent1,67,2022_Oct_28_1457,ProdSingRedoBetween,2021.2.3,59.97835975
,,,,62,0,62,0,,,,,,,,,,,,,,,,,,,,,,2401.183695,None,,,,,,,,,,,,,,,,,,device,68,63,silent,old,red,2397.717006,None,2397.717006,None,2,2.5664368,2397.717006,None,2.5664368,2400.300561,None,2400.804266,None,2400.804266,None,n,0.3511421,2400.804266,None,0.3511421,,,Oct28Silent1,67,2022_Oct_28_1457,ProdSingRedoBetween,2021.2.3,59.97835975
,,,,63,0,63,0,,,,,,,,,,,,,,,,,,,,,,2407.840446,None,,,,,,,,,,,,,,,,,,equipment,104,64,silent,new,null,2401.697046,None,2401.697046,None,3,4.5064675,2401.697046,None,4.5064675,2406.233134,None,2406.739402,None,2406.739402,None,n,1.072109,2406.739402,None,1.072109,,,Oct28Silent1,67,2022_Oct_28_1457,ProdSingRedoBetween,2021.2.3,59.97835975
,,,,64,0,64,0,,,,,,,,,,,,,,,,,,,,,,2411.110284,None,,,,,,,,,,,,,,,,,,crowd,138,65,silent,new,null,2408.342883,None,2408.342883,None,1,1.8604866,2408.342883,None,1.8604866,2410.227039,None,2410.731244,None,2410.731244,None,n,0.3601275,2410.731244,None,0.3601275,,,Oct28Silent1,67,2022_Oct_28_1457,ProdSingRedoBetween,2021.2.3,59.97835975
,,,,65,0,65,0,,,,,,,,,,,,,,,,,,,,,,2416.38228,None,,,,,,,,,,,,,,,,,,primary,134,66,silent,new,null,2411.620865,None,2411.620865,None,5,3.5904834,2411.620865,None,3.5904834,2415.232104,None,2415.73143,None,2415.73143,None,r,0.623839,2415.73143,None,0.623839,,,Oct28Silent1,67,2022_Oct_28_1457,ProdSingRedoBetween,2021.2.3,59.97835975
,,,,66,0,66,0,,,,,,,,,,,,,,,,,,,,,,2419.335192,None,,,,,,,,,,,,,,,,,,dozen,117,67,silent,new,null,2416.884311,None,2416.884311,None,1,1.6470475,2416.884311,None,1.6470475,2418.552301,None,2419.056172,None,2419.056172,None,n,0.2513263,2419.056172,None,0.2513263,,,Oct28Silent1,67,2022_Oct_28_1457,ProdSingRedoBetween,2021.2.3,59.97835975
,,,,67,0,67,0,,,,,,,,,,,,,,,,,,,,,,2422.354846,None,,,,,,,,,,,,,,,,,,hearing,114,68,silent,new,null,2419.843648,None,2419.843648,None,2,1.5917227,2419.843648,None,1.5917227,2421.454829,None,2421.957763,None,2421.957763,None,n,0.3735763,2421.957763,None,0.3735763,,,Oct28Silent1,67,2022_Oct_28_1457,ProdSingRedoBetween,2021.2.3,59.97835975
,,,,68,0,68,0,,,,,,,,,,,,,,,,,,,,,,2426.492344,None,,,,,,,,,,,,,,,,,,income,139,69,silent,new,null,2422.864541,None,2422.864541,None,2,2.5148573,2422.864541,None,2.5148573,2425.407883,None,2425.908579,None,2425.908579,None,n,0.5587918,2425.908579,None,0.5587918,,,Oct28Silent1,67,2022_Oct_28_1457,ProdSingRedoBetween,2021.2.3,59.97835975
,,,,69,0,69,0,,,,,,,,,,,,,,,,,,,,,,2429.830706,None,,,,,,,,,,,,,,,,,,growth,41,70,silent,old,blue,2426.995631,None,2426.995631,None,6,2.0077028,2426.995631,None,2.0077028,2429.032897,None,2429.549219,None,2429.549219,None,r,0.2622269,2429.549219,None,0.2622269,,,Oct28Silent1,67,2022_Oct_28_1457,ProdSingRedoBetween,2021.2.3,59.97835975
,,,,70,0,70,0,,,,,,,,,,,,,,,,,,,,,,2432.982112,None,,,,,,,,,,,,,,,,,,beginning,160,71,silent,new,null,2430.35007,None,2430.35007,None,2,1.7012734,2430.35007,None,1.7012734,2432.084092,None,2432.598466,None,2432.598466,None,f,0.3568716,2432.598466,None,0.3568716,,,Oct28Silent1,67,2022_Oct_28_1457,ProdSingRedoBetween,2021.2.3,59.97835975
,,,,71,0,71,0,,,,,,,,,,,,,,,,,,,,,,2436.669219,None,,,,,,,,,,,,,,,,,,break,174,72,silent,new,null,2433.48631,None,2433.48631,None,6,2.0450143,2433.48631,None,2.0450143,2435.552604,None,2436.055794,None,2436.055794,None,r,0.5875596,2436.055794,None,0.5875596,,,Oct28Silent1,67,2022_Oct_28_1457,ProdSingRedoBetween,2021.2.3,59.97835975
,,,,72,0,72,0,,,,,,,,,,,,,,,,,,,,,,2439.43957,None,,,,,,,,,,,,,,,,,,graduate,16,73,silent,old,yellow,2437.176746,None,2437.176746,None,6,1.594717,2437.176746,None,1.594717,2438.794721,None,2439.305276,None,2439.305276,None,r,0.1061107,2439.305276,None,0.1061107,,,Oct28Silent1,67,2022_Oct_28_1457,ProdSingRedoBetween,2021.2.3,59.97835975
,,,,73,0,73,0,,,,,,,,,,,,,,,,,,,,,,2442.258031,None,,,,,,,,,,,,,,,,,,platform,9,74,silent,old,yellow,2439.95527,None,2439.95527,None,5,1.6799618,2439.95527,None,1.6799618,2441.667731,None,2442.174718,None,2442.174718,None,r,0.052594,2442.174718,None,0.052594,,,Oct28Silent1,67,2022_Oct_28_1457,ProdSingRedoBetween,2021.2.3,59.97835975
,,,,74,0,74,0,,,,,,,,,,,,,,,,,,,,,,2444.827271,None,,,,,,,,,,,,,,,,,,crisis,85,75,silent,old,red,2442.771433,None,2442.771433,None,6,1.3597626,2442.771433,None,1.3597626,2444.161344,None,2444.666393,None,2444.666393,None,r,0.1450186,2444.666393,None,0.1450186,,,Oct28Silent1,67,2022_Oct_28_1457,ProdSingRedoBetween,2021.2.3,59.97835975
,,,,75,0,75,0,,,,,,,,,,,,,,,,,,,,,,2448.91454,None,,,,,,,,,,,,,,,,,,block,173,76,silent,new,null,2445.329467,None,2445.329467,None,3,3.0258468,2445.329467,None,3.0258468,2448.380841,None,2448.881272,None,2448.881272,None,f,0.0179359,2448.881272,None,0.0179359,,,Oct28Silent1,67,2022_Oct_28_1457,ProdSingRedoBetween,2021.2.3,59.97835975
,,,,76,0,76,0,,,,,,,,,,,,,,,,,,,,,,2451.817578,None,,,,,,,,,,,,,,,,,,defeat,40,77,silent,old,blue,2449.425564,None,2449.425564,None,6,1.7216966,2449.425564,None,1.7216966,2451.168178,None,2451.667523,None,2451.667523,None,r,0.127774,2451.667523,None,0.127774,,,Oct28Silent1,67,2022_Oct_28_1457,ProdSingRedoBetween,2021.2.3,59.97835975
,,,,77,0,77,0,,,,,,,,,,,,,,,,,,,,,,2455.971697,None,,,,,,,,,,,,,,,,,,carry,49,78,silent,old,blue,2452.325924,None,2452.325924,None,2,2.0694365,2452.325924,None,2.0694365,2454.420187,None,2454.920786,None,2454.920786,None,f,1.0345385,2454.920786,None,1.0345385,,,Oct28Silent1,67,2022_Oct_28_1457,ProdSingRedoBetween,2021.2.3,59.97835975
,,,,78,0,78,0,,,,,,,,,,,,,,,,,,,,,,2460.492945,None,,,,,,,,,,,,,,,,,,breath,51,79,silent,old,blue,2456.478372,None,2456.478372,None,5,3.4609013,2456.478372,None,3.4609013,2459.958798,None,2460.461995,None,2460.461995,None,r,0.0132437,2460.461995,None,0.0132437,,,Oct28Silent1,67,2022_Oct_28_1457,ProdSingRedoBetween,2021.2.3,59.97835975
,,,,79,0,79,0,,,,,,,,,,,,,,,,,,,,,,2463.762808,None,,,,,,,,,,,,,,,,,,blind,28,80,silent,old,yellow,2461.000781,None,2461.000781,None,1,1.4504491,2461.000781,None,1.4504491,2462.47883,None,2462.986575,None,2462.986575,None,n,0.7606639,2462.986575,None,0.7606639,,,Oct28Silent1,67,2022_Oct_28_1457,ProdSingRedoBetween,2021.2.3,59.97835975
,,,,80,0,80,0,,,,,,,,,,,,,,,,,,,,,,2466.782471,None,,,,,,,,,,,,,,,,,,comedy,81,81,silent,old,red,2464.270911,None,2464.270911,None,6,1.932398,2464.270911,None,1.932398,2466.232227,None,2466.732554,None,2466.732554,None,r,0.0226528,2466.732554,None,0.0226528,,,Oct28Silent1,67,2022_Oct_28_1457,ProdSingRedoBetween,2021.2.3,59.97835975
,,,,81,0,81,0,,,,,,,,,,,,,,,,,,,,,,2470.404693,None,,,,,,,,,,,,,,,,,,skill,18,82,silent,old,yellow,2467.291105,None,2467.291105,None,6,2.2801382,2467.291105,None,2.2801382,2469.605101,None,2470.124734,None,2470.124734,None,r,0.254589,2470.124734,None,0.254589,,,Oct28Silent1,67,2022_Oct_28_1457,ProdSingRedoBetween,2021.2.3,59.97835975
,,,,82,0,82,0,,,,,,,,,,,,,,,,,,,,,,2473.656106,None,,,,,,,,,,,,,,,,,,motion,169,83,silent,new,null,2470.923598,None,2470.923598,None,1,1.6556763,2470.923598,None,1.6556763,2472.604749,None,2473.109467,None,2473.109467,None,n,0.5178753,2473.109467,None,0.5178753,,,Oct28Silent1,67,2022_Oct_28_1457,ProdSingRedoBetween,2021.2.3,59.97835975
,,,,83,0,83,0,,,,,,,,,,,,,,,,,,,,,,2477.993739,None,,,,,,,,,,,,,,,,,,right,26,84,silent,old,yellow,2474.162235,None,2474.162235,None,2,2.8729942,2474.162235,None,2.8729942,2477.06115,None,2477.57647,None,2477.57647,None,n,0.3867638,2477.57647,None,0.3867638,,,Oct28Silent1,67,2022_Oct_28_1457,ProdSingRedoBetween,2021.2.3,59.97835975
,,,,84,0,84,0,,,,,,,,,,,,,,,,,,,,,,2482.398168,None,,,,,,,,,,,,,,,,,,discussion,37,85,silent,old,blue,2478.506757,None,2478.506757,None,5,2.5525977,2478.506757,None,2.5525977,2481.089397,None,2481.59875,None,2481.59875,None,r,0.7805347,2481.59875,None,0.7805347,,,Oct28Silent1,67,2022_Oct_28_1457,ProdSingRedoBetween,2021.2.3,59.97835975
,,,,85,0,85,0,,,,,,,,,,,,,,,,,,,,,,2488.053687,None,,,,,,,,,,,,,,,,,,opening,38,86,silent,old,blue,2482.912143,None,2482.912143,None,2,3.3791424,2482.912143,None,3.3791424,2486.32554,None,2486.835932,None,2486.835932,None,f,1.191351,2486.835932,None,1.191351,,,Oct28Silent1,67,2022_Oct_28_1457,ProdSingRedoBetween,2021.2.3,59.97835975
,,,,86,0,86,0,,,,,,,,,,,,,,,,,,,,,,2491.574265,None,,,,,,,,,,,,,,,,,,nation,58,87,silent,old,blue,2488.558399,None,2488.558399,None,5,2.1248501,2488.558399,None,2.1248501,2490.706151,None,2491.20923,None,2491.20923,None,r,0.3380149,2491.20923,None,0.3380149,,,Oct28Silent1,67,2022_Oct_28_1457,ProdSingRedoBetween,2021.2.3,59.97835975
,,,,87,0,87,0,,,,,,,,,,,,,,,,,,,,,,2494.359966,None,,,,,,,,,,,,,,,,,,series,132,88,silent,new,null,2492.086361,None,2492.086361,None,1,1.6369416,2492.086361,None,1.6369416,2493.74992,None,2494.260013,None,2494.260013,None,n,0.0712343,2494.260013,None,0.0712343,,,Oct28Silent1,67,2022_Oct_28_1457,ProdSingRedoBetween,2021.2.3,59.97835975
,,,,88,0,88,0,,,,,,,,,,,,,,,,,,,,,,2497.012636,None,,,,,,,,,,,,,,,,,,dance,122,89,silent,new,null,2494.860881,None,2494.860881,None,1,1.3983351,2494.860881,None,1.3983351,2496.281385,None,2496.797237,None,2496.797237,None,n,0.1901084,2496.797237,None,0.1901084,,,Oct28Silent1,67,2022_Oct_28_1457,ProdSingRedoBetween,2021.2.3,59.97835975
,,,,89,0,89,0,,,,,,,,,,,,,,,,,,,,,,2501.450327,None,,,,,,,,,,,,,,,,,,rapid,145,90,silent,new,null,2497.525819,None,2497.525819,None,6,3.2216699,2497.525819,None,3.2216699,2500.771327,None,2501.286605,None,2501.286605,None,n,0.1325541,2501.286605,None,0.1325541,,,Oct28Silent1,67,2022_Oct_28_1457,ProdSingRedoBetween,2021.2.3,59.97835975
,,,,90,0,90,0,,,,,,,,,,,,,,,,,,,,,,2508.023617,None,,,,,,,,,,,,,,,,,,generation,67,91,silent,old,red,2501.954492,None,2501.954492,None,2,5.1527215,2501.954492,None,5.1527215,2507.123713,None,2507.626959,None,2507.626959,None,n,0.3682565,2507.626959,None,0.3682565,,,Oct28Silent1,67,2022_Oct_28_1457,ProdSingRedoBetween,2021.2.3,59.97835975
,,,,91,0,91,0,,,,,,,,,,,,,,,,,,,,,,2510.893006,None,,,,,,,,,,,,,,,,,,voice,35,92,silent,old,blue,2508.528675,None,2508.528675,None,1,1.6745177,2508.528675,None,1.6745177,2510.227907,None,2510.742992,None,2510.742992,None,n,0.1321198,2510.742992,None,0.1321198,,,Oct28Silent1,67,2022_Oct_28_1457,ProdSingRedoBetween,2021.2.3,59.97835975
,,,,92,0,92,0,,,,,,,,,,,,,,,,,,,,,,2513.762438,None,,,,,,,,,,,,,,,,,,running,159,93,silent,new,null,2511.402352,None,2511.402352,None,1,1.5927858,2511.402352,None,1.5927858,2513.01261,None,2513.512544,None,2513.512544,None,n,0.2266468,2513.512544,None,0.2266468,,,Oct28Silent1,67,2022_Oct_28_1457,ProdSingRedoBetween,2021.2.3,59.97835975
,,,,93,0,93,0,,,,,,,,,,,,,,,,,,,,,,2518.734313,None,,,,,,,,,,,,,,,,,,little,87,94,silent,old,red,2514.268461,None,2514.268461,None,6,3.8706953,2514.268461,None,3.8706953,2518.167109,None,2518.667475,None,2518.667475,None,r,0.0396638,2518.667475,None,0.0396638,,,Oct28Silent1,67,2022_Oct_28_1457,ProdSingRedoBetween,2021.2.3,59.97835975
,,,,94,0,94,0,,,,,,,,,,,,,,,,,,,,,,2522.070962,None,,,,,,,,,,,,,,,,,,discovery,148,95,silent,new,null,2519.234854,None,2519.234854,None,2,2.1123141,2519.234854,None,2.1123141,2521.372737,None,2521.894929,None,2521.894929,None,f,0.1482128,2521.894929,None,0.1482128,,,Oct28Silent1,67,2022_Oct_28_1457,ProdSingRedoBetween,2021.2.3,59.97835975
,,,,95,0,95,0,,,,,,,,,,,,,,,,,,,,,,2526.642164,None,,,,,,,,,,,,,,,,,,grade,72,96,silent,old,red,2522.577947,None,2522.577947,None,3,3.4972439,2522.577947,None,3.4972439,2526.091722,None,2526.594568,None,2526.594568,None,f,0.0246287,2526.594568,None,0.0246287,,,Oct28Silent1,67,2022_Oct_28_1457,ProdSingRedoBetween,2021.2.3,59.97835975
,,,,96,0,96,0,,,,,,,,,,,,,,,,,,,,,,2530.798073,None,,,,,,,,,,,,,,,,,,novel,96,97,silent,new,null,2527.146033,None,2527.146033,None,2,2.6411255,2527.146033,None,2.6411255,2529.811976,None,2530.318945,None,2530.318945,None,n,0.4522952,2530.318945,None,0.4522952,,,Oct28Silent1,67,2022_Oct_28_1457,ProdSingRedoBetween,2021.2.3,59.97835975
,,,,97,0,97,0,,,,,,,,,,,,,,,,,,,,,,2537.558453,None,,,,,,,,,,,,,,,,,,light,6,98,silent,old,yellow,2531.317478,None,2531.317478,None,5,5.3176924,2531.317478,None,5.3176924,2536.656812,None,2537.169456,None,2537.169456,None,r,0.3538386,2537.169456,None,0.3538386,,,Oct28Silent1,67,2022_Oct_28_1457,ProdSingRedoBetween,2021.2.3,59.97835975
,,,,98,0,98,0,,,,,,,,,,,,,,,,,,,,,,2541.290144,None,,,,,,,,,,,,,,,,,,point,84,99,silent,old,red,2538.071446,None,2538.071446,None,2,1.7717855,2538.071446,None,1.7717855,2539.87191,None,2540.378982,None,2540.378982,None,f,0.8802255,2540.378982,None,0.8802255,,,Oct28Silent1,67,2022_Oct_28_1457,ProdSingRedoBetween,2021.2.3,59.97835975
,,,,99,0,99,0,,,,,,,,,,,,,,,,,,,,,,2544.076246,None,,,,,,,,,,,,,,,,,,benefit,168,100,silent,new,null,2541.793752,None,2541.793752,None,1,1.5133528,2541.793752,None,1.5133528,2543.327363,None,2543.842785,None,2543.842785,None,n,0.208405,2543.842785,None,0.208405,,,Oct28Silent1,67,2022_Oct_28_1457,ProdSingRedoBetween,2021.2.3,59.97835975
,,,,100,0,100,0,,,,,,,,,,,,,,,,,,,,,,2552.06755,None,,,,,,,,,,,,,,,,,,patient,176,101,silent,new,null,2544.588046,None,2544.588046,None,4,6.7270541,2544.588046,None,6.7270541,2551.334564,None,2551.834152,None,2551.834152,None,f,0.2090024,2551.834152,None,0.2090024,,,Oct28Silent1,67,2022_Oct_28_1457,ProdSingRedoBetween,2021.2.3,59.97835975
,,,,101,0,101,0,,,,,,,,,,,,,,,,,,,,,,2558.674107,None,,,,,,,,,,,,,,,,,,direction,156,102,silent,new,null,2552.575183,None,2552.575183,None,5,5.3479165,2552.575183,None,5.3479165,2557.940816,None,2558.44067,None,2558.44067,None,r,0.2184854,2558.44067,None,0.2184854,,,Oct28Silent1,67,2022_Oct_28_1457,ProdSingRedoBetween,2021.2.3,59.97835975
,,,,102,0,102,0,,,,,,,,,,,,,,,,,,,,,,2563.095209,None,,,,,,,,,,,,,,,,,,union,15,103,silent,old,yellow,2559.174752,None,2559.174752,None,1,3.0363373,2559.174752,None,3.0363373,2562.233455,None,2562.747578,None,2562.747578,None,n,0.327553,2562.747578,None,0.327553,,,Oct28Silent1,67,2022_Oct_28_1457,ProdSingRedoBetween,2021.2.3,59.97835975
,,,,103,0,103,0,,,,,,,,,,,,,,,,,,,,,,2569.534975,None,,,,,,,,,,,,,,,,,,taste,47,104,silent,old,blue,2563.606284,None,2563.606284,None,5,4.7890175,2563.606284,None,4.7890175,2568.423767,None,2568.934414,None,2568.934414,None,r,0.580642,2568.934414,None,0.580642,,,Oct28Silent1,67,2022_Oct_28_1457,ProdSingRedoBetween,2021.2.3,59.97835975
,,,,104,0,104,0,,,,,,,,,,,,,,,,,,,,,,2573.905999,None,,,,,,,,,,,,,,,,,,error,82,105,silent,old,red,2570.042468,None,2570.042468,None,6,3.2726013,2570.042468,None,3.2726013,2573.338569,None,2573.839268,None,2573.839268,None,r,0.0357485,2573.839268,None,0.0357485,,,Oct28Silent1,67,2022_Oct_28_1457,ProdSingRedoBetween,2021.2.3,59.97835975
,,,,105,0,105,0,,,,,,,,,,,,,,,,,,,,,,2578.009768,None,,,,,,,,,,,,,,,,,,problem,70,106,silent,old,red,2574.409471,None,2574.409471,None,6,2.7456406,2574.409471,None,2.7456406,2577.17718,None,2577.676523,None,2577.676523,None,r,0.3105585,2577.676523,None,0.3105585,,,Oct28Silent1,67,2022_Oct_28_1457,ProdSingRedoBetween,2021.2.3,59.97835975
,,,,106,0,106,0,,,,,,,,,,,,,,,,,,,,,,2580.99627,None,,,,,,,,,,,,,,,,,,tough,0,107,silent,old,yellow,2578.51706,None,2578.51706,None,3,1.8859656,2578.51706,None,1.8859656,2580.43014,None,2580.929834,None,2580.929834,None,f,0.0413047,2580.929834,None,0.0413047,,,Oct28Silent1,67,2022_Oct_28_1457,ProdSingRedoBetween,2021.2.3,59.97835975
,,,,107,0,107,0,,,,,,,,,,,,,,,,,,,,,,2584.33308,None,,,,,,,,,,,,,,,,,,charter,80,108,silent,old,red,2581.497326,None,2581.497326,None,1,1.3297379,2581.497326,None,1.3297379,2582.848036,None,2583.348866,None,2583.348866,None,n,0.9661913,2583.348866,None,0.9661913,,,Oct28Silent1,67,2022_Oct_28_1457,ProdSingRedoBetween,2021.2.3,59.97835975
,,,,108,0,108,0,,,,,,,,,,,,,,,,,,,,,,2587.402759,None,,,,,,,,,,,,,,,,,,atmosphere,137,109,silent,new,null,2584.837939,None,2584.837939,None,1,1.3091188,2584.837939,None,1.3091188,2586.170329,None,2586.688239,None,2586.688239,None,n,0.6910576,2586.688239,None,0.6910576,,,Oct28Silent1,67,2022_Oct_28_1457,ProdSingRedoBetween,2021.2.3,59.97835975
,,,,109,0,109,0,,,,,,,,,,,,,,,,,,,,,,2590.555938,None,,,,,,,,,,,,,,,,,,industry,111,110,silent,new,null,2587.91087,None,2587.91087,None,2,1.5161064,2587.91087,None,1.5161064,2589.455813,None,2589.966053,None,2589.966053,None,f,0.572933,2589.966053,None,0.572933,,,Oct28Silent1,67,2022_Oct_28_1457,ProdSingRedoBetween,2021.2.3,59.97835975
,,,,110,0,110,0,,,,,,,,,,,,,,,,,,,,,,2593.976679,None,,,,,,,,,,,,,,,,,,reach,126,111,silent,new,null,2591.064577,None,2591.064577,None,3,1.818385,2591.064577,None,1.818385,2592.908574,None,2593.415028,None,2593.415028,None,f,0.5322274,2593.415028,None,0.5322274,,,Oct28Silent1,67,2022_Oct_28_1457,ProdSingRedoBetween,2021.2.3,59.97835975
,,,,111,0,111,0,,,,,,,,,,,,,,,,,,,,,,2599.097782,None,,,,,,,,,,,,,,,,,,alert,172,112,silent,new,null,2594.477908,None,2594.477908,None,1,3.8851743,2594.477908,None,3.8851743,2598.383418,None,2598.900322,None,2598.900322,None,n,0.1667069,2598.900322,None,0.1667069,,,Oct28Silent1,67,2022_Oct_28_1457,ProdSingRedoBetween,2021.2.3,59.97835975
,,,,112,0,112,0,,,,,,,,,,,,,,,,,,,,,,2602.551646,None,,,,,,,,,,,,,,,,,,gesture,61,113,silent,old,red,2599.600266,None,2599.600266,None,5,2.3148292,2599.600266,None,2.3148292,2601.934884,None,2602.438152,None,2602.438152,None,r,0.0928848,2602.438152,None,0.0928848,,,Oct28Silent1,67,2022_Oct_28_1457,ProdSingRedoBetween,2021.2.3,59.97835975
,,,,113,0,113,0,,,,,,,,,,,,,,,,,,,,,,2607.539522,None,,,,,,,,,,,,,,,,,,fellow,11,114,silent,old,yellow,2603.065407,None,2603.065407,None,2,2.3937294,2603.065407,None,2.3937294,2605.493016,None,2606.00477,None,2606.00477,None,n,1.5102585,2606.00477,None,1.5102585,,,Oct28Silent1,67,2022_Oct_28_1457,ProdSingRedoBetween,2021.2.3,59.97835975
,,,,114,0,114,0,,,,,,,,,,,,,,,,,,,,,,2612.377716,None,,,,,,,,,,,,,,,,,,length,74,115,silent,old,red,2608.046154,None,2608.046154,None,5,2.4528072,2608.046154,None,2.4528072,2610.525977,None,2611.029239,None,2611.029239,None,r,1.3178029,2611.029239,None,1.3178029,,,Oct28Silent1,67,2022_Oct_28_1457,ProdSingRedoBetween,2021.2.3,59.97835975
,,,,115,0,115,0,,,,,,,,,,,,,,,,,,,,,,2617.082484,None,,,,,,,,,,,,,,,,,,damage,108,116,silent,new,null,2612.879001,None,2612.879001,None,2,3.3240706,2612.879001,None,3.3240706,2616.232233,None,2616.737772,None,2616.737772,None,n,0.3212499,2616.737772,None,0.3212499,,,Oct28Silent1,67,2022_Oct_28_1457,ProdSingRedoBetween,2021.2.3,59.97835975
,,,,116,0,116,0,,,,,,,,,,,,,,,,,,,,,,2625.757409,None,,,,,,,,,,,,,,,,,,rough,177,117,silent,new,null,2617.584334,None,2617.584334,None,2,7.1711983,2617.584334,None,7.1711983,2624.7938,None,2625.307397,None,2625.307397,None,f,0.423509,2625.307397,None,0.423509,,,Oct28Silent1,67,2022_Oct_28_1457,ProdSingRedoBetween,2021.2.3,59.97835975
,,,,117,0,117,0,,,,,,,,,,,,,,,,,,,,,,2629.111029,None,,,,,,,,,,,,,,,,,,answer,73,118,silent,old,red,2626.279799,None,2626.279799,None,5,1.899175,2626.279799,None,1.899175,2628.211141,None,2628.717118,None,2628.717118,None,r,0.3658379,2628.717118,None,0.3658379,,,Oct28Silent1,67,2022_Oct_28_1457,ProdSingRedoBetween,2021.2.3,59.97835975
,,,,118,0,118,0,,,,,,,,,,,,,,,,,,,,,,2638.587274,None,,,,,,,,,,,,,,,,,,cover,102,119,silent,new,null,2629.618055,None,2629.618055,None,2,7.1290055,2629.618055,None,7.1290055,2636.776957,None,2637.292274,None,2637.292274,None,f,1.2706971,2637.292274,None,1.2706971,,,Oct28Silent1,67,2022_Oct_28_1457,ProdSingRedoBetween,2021.2.3,59.97835975
,,,,119,0,119,0,,,,,,,,,,,,,,,,,,,,,,2641.289943,None,,,,,,,,,,,,,,,,,,chief,90,120,silent,new,null,2639.090062,None,2639.090062,None,1,1.569068,2639.090062,None,1.569068,2640.690234,None,2641.189936,None,2641.189936,None,n,0.0690225,2641.189936,None,0.0690225,,,Oct28Silent1,67,2022_Oct_28_1457,ProdSingRedoBetween,2021.2.3,59.97835975
,,,,120,0,120,0,,,,,,,,,,,,,,,,,,,,,,2646.828652,None,,,,,,,,,,,,,,,,,,fight,171,121,silent,new,null,2641.79976,None,2641.79976,None,6,3.4991363,2641.79976,None,3.4991363,2645.329947,None,2645.844534,None,2645.844534,None,r,0.95861,2645.844534,None,0.95861,,,Oct28Silent1,67,2022_Oct_28_1457,ProdSingRedoBetween,2021.2.3,59.97835975
,,,,121,0,121,0,,,,,,,,,,,,,,,,,,,,,,2650.732395,None,,,,,,,,,,,,,,,,,,stand,106,122,silent,new,null,2647.339365,None,2647.339365,None,2,2.4235533,2647.339365,None,2.4235533,2649.78174,None,2650.286105,None,2650.286105,None,n,0.4208319,2650.286105,None,0.4208319,,,Oct28Silent1,67,2022_Oct_28_1457,ProdSingRedoBetween,2021.2.3,59.97835975
,,,,122,0,122,0,,,,,,,,,,,,,,,,,,,,,,2655.353717,None,,,,,,,,,,,,,,,,,,marriage,179,123,silent,new,null,2651.238851,None,2651.238851,None,1,3.1162078,2651.238851,None,3.1162078,2654.390521,None,2654.904761,None,2654.904761,None,n,0.4262018,2654.904761,None,0.4262018,,,Oct28Silent1,67,2022_Oct_28_1457,ProdSingRedoBetween,2021.2.3,59.97835975
,,,,123,0,123,0,,,,,,,,,,,,,,,,,,,,,,2663.795634,None,,,,,,,,,,,,,,,,,,raise,13,124,silent,old,yellow,2655.863987,None,2655.863987,None,5,6.074967,2655.863987,None,6.074967,2661.961879,None,2662.461023,None,2662.461023,None,r,1.3179284,2662.461023,None,1.3179284,,,Oct28Silent1,67,2022_Oct_28_1457,ProdSingRedoBetween,2021.2.3,59.97835975
,,,,124,0,124,0,,,,,,,,,,,,,,,,,,,,,,2666.765271,None,,,,,,,,,,,,,,,,,,tennis,62,125,silent,old,red,2664.303331,None,2664.303331,None,1,1.2116222,2664.303331,None,1.2116222,2665.531951,None,2666.035115,None,2666.035115,None,n,0.7117621,2666.035115,None,0.7117621,,,Oct28Silent1,67,2022_Oct_28_1457,ProdSingRedoBetween,2021.2.3,59.97835975
,,,,125,0,125,0,,,,,,,,,,,,,,,,,,,,,,2671.269622,None,,,,,,,,,,,,,,,,,,private,150,126,silent,new,null,2667.277454,None,2667.277454,None,5,3.3733826,2667.277454,None,3.3733826,2670.672601,None,2671.191312,None,2671.191312,None,r,0.0517815,2671.191312,None,0.0517815,,,Oct28Silent1,67,2022_Oct_28_1457,ProdSingRedoBetween,2021.2.3,59.97835975
,,,,126,0,126,0,,,,,,,,,,,,,,,,,,,,,,2674.890359,None,,,,,,,,,,,,,,,,,,object,34,127,silent,old,blue,2671.774084,None,2671.774084,None,5,2.396901,2671.774084,None,2.396901,2674.189189,None,2674.690509,None,2674.690509,None,f,0.1842896,2674.690509,None,0.1842896,,,Oct28Silent1,67,2022_Oct_28_1457,ProdSingRedoBetween,2021.2.3,59.97835975
,,,,127,0,127,0,,,,,,,,,,,,,,,,,,,,,,2680.545747,None,,,,,,,,,,,,,,,,,,short,147,128,silent,new,null,2675.390634,None,2675.390634,None,4,4.0842693,2675.390634,None,4.0842693,2679.495874,None,2679.995228,None,2679.995228,None,r,0.5278168,2679.995228,None,0.5278168,,,Oct28Silent1,67,2022_Oct_28_1457,ProdSingRedoBetween,2021.2.3,59.97835975
,,,,128,0,128,0,,,,,,,,,,,,,,,,,,,,,,2687.88632,None,,,,,,,,,,,,,,,,,,sleep,65,129,silent,old,red,2681.049323,None,2681.049323,None,3,6.0495682,2681.049323,None,6.0495682,2687.121355,None,2687.636251,None,2687.636251,None,f,0.2306447,2687.636251,None,0.2306447,,,Oct28Silent1,67,2022_Oct_28_1457,ProdSingRedoBetween,2021.2.3,59.97835975
,,,,129,0,129,0,,,,,,,,,,,,,,,,,,,,,,2690.689121,None,,,,,,,,,,,,,,,,,,figure,59,130,silent,old,yellow,2688.394711,None,2688.394711,None,6,1.7123202,2688.394711,None,1.7123202,2690.123146,None,2690.627008,None,2690.627008,None,r,0.0399113,2690.627008,None,0.0399113,,,Oct28Silent1,67,2022_Oct_28_1457,ProdSingRedoBetween,2021.2.3,59.97835975
,,,,130,0,130,0,,,,,,,,,,,,,,,,,,,,,,2694.009101,None,,,,,,,,,,,,,,,,,,pressure,24,131,silent,old,yellow,2691.198384,None,2691.198384,None,6,2.0284784,2691.198384,None,2.0284784,2693.24296,None,2693.742269,None,2693.742269,None,r,0.2366229,2693.742269,None,0.2366229,,,Oct28Silent1,67,2022_Oct_28_1457,ProdSingRedoBetween,2021.2.3,59.97835975
,,,,131,0,131,0,,,,,,,,,,,,,,,,,,,,,,2697.814571,None,,,,,,,,,,,,,,,,,,order,151,132,silent,new,null,2694.509701,None,2694.509701,None,4,2.2370342,2694.509701,None,2.2370342,2696.763267,None,2697.269065,None,2697.269065,None,f,0.525841,2697.269065,None,0.525841,,,Oct28Silent1,67,2022_Oct_28_1457,ProdSingRedoBetween,2021.2.3,59.97835975
,,,,132,0,132,0,,,,,,,,,,,,,,,,,,,,,,2702.233938,None,,,,,,,,,,,,,,,,,,portion,115,133,silent,new,null,2698.334636,None,2698.334636,None,2,3.0762444,2698.334636,None,3.0762444,2701.436014,None,2701.950462,None,2701.950462,None,n,0.2524582,2701.950462,None,0.2524582,,,Oct28Silent1,67,2022_Oct_28_1457,ProdSingRedoBetween,2021.2.3,59.97835975
,,,,133,0,133,0,,,,,,,,,,,,,,,,,,,,,,2706.571651,None,,,,,,,,,,,,,,,,,,incident,165,134,silent,new,null,2702.744693,None,2702.744693,None,6,2.7701441,2702.744693,None,2.7701441,2705.538218,None,2706.041216,None,2706.041216,None,r,0.5057355,2706.041216,None,0.5057355,,,Oct28Silent1,67,2022_Oct_28_1457,ProdSingRedoBetween,2021.2.3,59.97835975
,,,,134,0,134,0,,,,,,,,,,,,,,,,,,,,,,2714.479514,None,,,,,,,,,,,,,,,,,,second,1,135,silent,old,yellow,2707.078914,None,2707.078914,None,3,6.7320287,2707.078914,None,6.7320287,2713.832803,None,2714.346149,None,2714.346149,None,f,0.1127033,2714.346149,None,0.1127033,,,Oct28Silent1,67,2022_Oct_28_1457,ProdSingRedoBetween,2021.2.3,59.97835975
,,,,135,0,135,0,,,,,,,,,,,,,,,,,,,,,,2717.499218,None,,,,,,,,,,,,,,,,,,congress,142,136,silent,new,null,2714.987891,None,2714.987891,None,1,1.8389248,2714.987891,None,1.8389248,2716.850714,None,2717.365825,None,2717.365825,None,n,0.1090165,2717.365825,None,0.1090165,,,Oct28Silent1,67,2022_Oct_28_1457,ProdSingRedoBetween,2021.2.3,59.97835975
,,,,136,0,136,0,,,,,,,,,,,,,,,,,,,,,,2725.523929,None,,,,,,,,,,,,,,,,,,country,53,137,silent,old,blue,2718.013985,None,2718.013985,None,5,6.1487804,2718.013985,None,6.1487804,2724.190384,None,2724.695284,None,2724.695284,None,r,0.8035488,2724.695284,None,0.8035488,,,Oct28Silent1,67,2022_Oct_28_1457,ProdSingRedoBetween,2021.2.3,59.97835975
,,,,137,0,137,0,,,,,,,,,,,,,,,,,,,,,,2728.512264,None,,,,,,,,,,,,,,,,,,position,5,138,silent,old,yellow,2726.032057,None,2726.032057,None,5,1.8268147,2726.032057,None,1.8268147,2727.885112,None,2728.394896,None,2728.394896,None,r,0.087997,2728.394896,None,0.087997,,,Oct28Silent1,67,2022_Oct_28_1457,ProdSingRedoBetween,2021.2.3,59.97835975
,,,,138,0,138,0,,,,,,,,,,,,,,,,,,,,,,2733.448202,None,,,,,,,,,,,,,,,,,,entrance,127,139,silent,new,null,2729.036116,None,2729.036116,None,3,2.7426366,2729.036116,None,2.7426366,2731.797826,None,2732.297399,None,2732.297399,None,f,1.1214035,2732.297399,None,1.1214035,,,Oct28Silent1,67,2022_Oct_28_1457,ProdSingRedoBetween,2021.2.3,59.97835975
,,,,139,0,139,0,,,,,,,,,,,,,,,,,,,,,,2737.719334,None,,,,,,,,,,,,,,,,,,character,124,140,silent,new,null,2733.957321,None,2733.957321,None,2,2.9657275,2733.957321,None,2.9657275,2736.952374,None,2737.457768,None,2737.457768,None,f,0.2330266,2737.457768,None,0.2330266,,,Oct28Silent1,67,2022_Oct_28_1457,ProdSingRedoBetween,2021.2.3,59.97835975
,,,,140,0,140,0,,,,,,,,,,,,,,,,,,,,,,2741.773462,None,,,,,,,,,,,,,,,,,,employment,31,141,silent,old,blue,2738.225099,None,2738.225099,None,6,2.7057004,2738.225099,None,2.7057004,2740.957401,None,2741.473174,None,2741.473174,None,r,0.2815851,2741.473174,None,0.2815851,,,Oct28Silent1,67,2022_Oct_28_1457,ProdSingRedoBetween,2021.2.3,59.97835975
,,,,141,0,141,0,,,,,,,,,,,,,,,,,,,,,,2749.164104,None,,,,,,,,,,,,,,,,,,youth,79,142,silent,old,red,2742.277833,None,2742.277833,None,1,5.2689172,2742.277833,None,5.2689172,2747.56486,None,2748.082,None,2748.082,None,n,1.056785,2748.082,None,1.056785,,,Oct28Silent1,67,2022_Oct_28_1457,ProdSingRedoBetween,2021.2.3,59.97835975
,,,,142,0,142,0,,,,,,,,,,,,,,,,,,,,,,2754.903139,None,,,,,,,,,,,,,,,,,,center,89,143,silent,old,red,2749.671809,None,2749.671809,None,3,4.5789999,2749.671809,None,4.5789999,2754.269181,None,2754.76973,None,2754.76973,None,f,0.112964,2754.76973,None,0.112964,,,Oct28Silent1,67,2022_Oct_28_1457,ProdSingRedoBetween,2021.2.3,59.97835975
,,,,143,0,143,0,,,,,,,,,,,,,,,,,,,,,,2758.089767,None,,,,,,,,,,,,,,,,,,population,88,144,silent,old,red,2755.408784,None,2755.408784,None,6,1.8259872,2755.408784,None,1.8259872,2757.256518,None,2757.75621,None,2757.75621,None,r,0.3185673,2757.75621,None,0.3185673,,,Oct28Silent1,67,2022_Oct_28_1457,ProdSingRedoBetween,2021.2.3,59.97835975
,,,,144,0,144,0,,,,,,,,,,,,,,,,,,,,,,2761.009216,None,,,,,,,,,,,,,,,,,,agency,110,145,silent,new,null,2758.598039,None,2758.598039,None,1,1.7566948,2758.598039,None,1.7566948,2760.378272,None,2760.895627,None,2760.895627,None,n,0.0831303,2760.895627,None,0.0831303,,,Oct28Silent1,67,2022_Oct_28_1457,ProdSingRedoBetween,2021.2.3,59.97835975
,,,,145,0,145,0,,,,,,,,,,,,,,,,,,,,,,2765.029976,None,,,,,,,,,,,,,,,,,,story,158,146,silent,new,null,2761.515575,None,2761.515575,None,1,2.4791961,2761.515575,None,2.4791961,2764.01678,None,2764.541197,None,2764.541197,None,n,0.4694693,2764.541197,None,0.4694693,,,Oct28Silent1,67,2022_Oct_28_1457,ProdSingRedoBetween,2021.2.3,59.97835975
,,,,146,0,146,0,,,,,,,,,,,,,,,,,,,,,,2768.7336,None,,,,,,,,,,,,,,,,,,profession,107,147,silent,new,null,2765.530416,None,2765.530416,None,2,2.3362423,2765.530416,None,2.3362423,2767.884335,None,2768.400025,None,2768.400025,None,f,0.3147369,2768.400025,None,0.3147369,,,Oct28Silent1,67,2022_Oct_28_1457,ProdSingRedoBetween,2021.2.3,59.97835975
,,,,147,0,147,0,,,,,,,,,,,,,,,,,,,,,,2771.569868,None,,,,,,,,,,,,,,,,,,executive,92,148,silent,new,null,2769.247338,None,2769.247338,None,1,1.683415,2769.247338,None,1.683415,2770.958592,None,2771.469871,None,2771.469871,None,n,0.084873,2771.469871,None,0.084873,,,Oct28Silent1,67,2022_Oct_28_1457,ProdSingRedoBetween,2021.2.3,59.97835975
,,,,148,0,148,0,,,,,,,,,,,,,,,,,,,,,,2776.742035,None,,,,,,,,,,,,,,,,,,thing,29,149,silent,old,blue,2772.076426,None,2772.076426,None,4,4.0224233,2772.076426,None,4.0224233,2776.128696,None,2776.64405,None,2776.64405,None,f,0.0708646,2776.64405,None,0.0708646,,,Oct28Silent1,67,2022_Oct_28_1457,ProdSingRedoBetween,2021.2.3,59.97835975
,,,,149,0,149,0,,,,,,,,,,,,,,,,,,,,,,2781.679861,None,,,,,,,,,,,,,,,,,,society,44,150,silent,old,blue,2777.246162,None,2777.246162,None,5,3.6125742,2777.246162,None,3.6125742,2780.881248,None,2781.401439,None,2781.401439,None,r,0.2493059,2781.401439,None,0.2493059,,,Oct28Silent1,67,2022_Oct_28_1457,ProdSingRedoBetween,2021.2.3,59.97835975
,,,,150,0,150,0,,,,,,,,,,,,,,,,,,,,,,2784.466035,None,,,,,,,,,,,,,,,,,,shear,95,151,silent,new,null,2782.195648,None,2782.195648,None,1,1.6230098,2782.195648,None,1.6230098,2783.849971,None,2784.354524,None,2784.354524,None,n,0.0961957,2784.354524,None,0.0961957,,,Oct28Silent1,67,2022_Oct_28_1457,ProdSingRedoBetween,2021.2.3,59.97835975
,,,,151,0,151,0,,,,,,,,,,,,,,,,,,,,,,2788.152966,None,,,,,,,,,,,,,,,,,,vision,60,152,silent,old,red,2784.979622,None,2784.979622,None,3,2.4951509,2784.979622,None,2.4951509,2787.509362,None,2788.020791,None,2788.020791,None,f,0.1019219,2788.020791,None,0.1019219,,,Oct28Silent1,67,2022_Oct_28_1457,ProdSingRedoBetween,2021.2.3,59.97835975
,,,,152,0,152,0,,,,,,,,,,,,,,,,,,,,,,2793.574825,None,,,,,,,,,,,,,,,,,,nature,121,153,silent,new,null,2788.659542,None,2788.659542,None,6,2.9513499,2788.659542,None,2.9513499,2791.64498,None,2792.157085,None,2792.157085,None,r,1.3896323,2792.157085,None,1.3896323,,,Oct28Silent1,67,2022_Oct_28_1457,ProdSingRedoBetween,2021.2.3,59.97835975
,,,,153,0,153,0,,,,,,,,,,,,,,,,,,,,,,2796.581102,None,,,,,,,,,,,,,,,,,,medicine,50,154,silent,old,blue,2794.089576,None,2794.089576,None,6,1.8011154,2794.089576,None,1.8011154,2795.911515,None,2796.416928,None,2796.416928,None,r,0.1458701,2796.416928,None,0.1458701,,,Oct28Silent1,67,2022_Oct_28_1457,ProdSingRedoBetween,2021.2.3,59.97835975
,,,,154,0,154,0,,,,,,,,,,,,,,,,,,,,,,2799.517888,None,,,,,,,,,,,,,,,,,,bureau,14,155,silent,old,yellow,2797.104467,None,2797.104467,None,6,1.778378,2797.104467,None,1.778378,2798.91543,None,2799.437818,None,2799.437818,None,r,0.0610737,2799.437818,None,0.0610737,,,Oct28Silent1,67,2022_Oct_28_1457,ProdSingRedoBetween,2021.2.3,59.97835975
,,,,155,0,155,0,,,,,,,,,,,,,,,,,,,,,,2802.917692,None,,,,,,,,,,,,,,,,,,appeal,94,156,silent,new,null,2800.037393,None,2800.037393,None,2,2.1892776,2800.037393,None,2.1892776,2802.251789,None,2802.751134,None,2802.751134,None,f,0.1475794,2802.751134,None,0.1475794,,,Oct28Silent1,67,2022_Oct_28_1457,ProdSingRedoBetween,2021.2.3,59.97835975
,,,,156,0,156,0,,,,,,,,,,,,,,,,,,,,,,2808.489923,None,,,,,,,,,,,,,,,,,,goose,105,157,silent,new,null,2803.433103,None,2803.433103,None,3,4.4497559,2803.433103,None,4.4497559,2807.910979,None,2808.423314,None,2808.423314,None,f,0.0354482,2808.423314,None,0.0354482,,,Oct28Silent1,67,2022_Oct_28_1457,ProdSingRedoBetween,2021.2.3,59.97835975
,,,,157,0,157,0,,,,,,,,,,,,,,,,,,,,,,2811.493871,None,,,,,,,,,,,,,,,,,,revolution,162,158,silent,new,null,2809.00168,None,2809.00168,None,1,1.8009686,2809.00168,None,1.8009686,2810.83877,None,2811.347796,None,2811.347796,None,n,0.1268153,2811.347796,None,0.1268153,,,Oct28Silent1,67,2022_Oct_28_1457,ProdSingRedoBetween,2021.2.3,59.97835975
,,,,158,0,158,0,,,,,,,,,,,,,,,,,,,,,,2814.179008,None,,,,,,,,,,,,,,,,,,mankind,91,159,silent,new,null,2811.995088,None,2811.995088,None,1,1.5195731,2811.995088,None,1.5195731,2813.545957,None,2814.051336,None,2814.051336,None,n,0.1114031,2814.051336,None,0.1114031,,,Oct28Silent1,67,2022_Oct_28_1457,ProdSingRedoBetween,2021.2.3,59.97835975
,,,,159,0,159,0,,,,,,,,,,,,,,,,,,,,,,2817.482117,None,,,,,,,,,,,,,,,,,,company,52,160,silent,old,blue,2814.689556,None,2814.689556,None,3,2.1050882,2814.689556,None,2.1050882,2816.816185,None,2817.320619,None,2817.320619,None,f,0.1380493,2817.320619,None,0.1380493,,,Oct28Silent1,67,2022_Oct_28_1457,ProdSingRedoBetween,2021.2.3,59.97835975
,,,,160,0,160,0,,,,,,,,,,,,,,,,,,,,,,2820.852345,None,,,,,,,,,,,,,,,,,,addition,120,161,silent,new,null,2817.987178,None,2817.987178,None,1,2.0074903,2817.987178,None,2.0074903,2820.022873,None,2820.535509,None,2820.535509,None,n,0.2911634,2820.535509,None,0.2911634,,,Oct28Silent1,67,2022_Oct_28_1457,ProdSingRedoBetween,2021.2.3,59.97835975
,,,,161,0,161,0,,,,,,,,,,,,,,,,,,,,,,2824.88948,None,,,,,,,,,,,,,,,,,,search,45,162,silent,old,blue,2821.365129,None,2821.365129,None,3,2.8775429,2821.365129,None,2.8775429,2824.273284,None,2824.772754,None,2824.772754,None,f,0.0857878,2824.772754,None,0.0857878,,,Oct28Silent1,67,2022_Oct_28_1457,ProdSingRedoBetween,2021.2.3,59.97835975
,,,,162,0,162,0,,,,,,,,,,,,,,,,,,,,,,2827.827773,None,,,,,,,,,,,,,,,,,,republic,163,163,silent,new,null,2825.390164,None,2825.390164,None,1,1.6765023,2825.390164,None,1.6765023,2827.093073,None,2827.599713,None,2827.599713,None,n,0.2029491,2827.599713,None,0.2029491,,,Oct28Silent1,67,2022_Oct_28_1457,ProdSingRedoBetween,2021.2.3,59.97835975
,,,,163,0,163,0,,,,,,,,,,,,,,,,,,,,,,2830.495249,None,,,,,,,,,,,,,,,,,,safety,135,164,silent,new,null,2828.353285,None,2828.353285,None,1,1.2733339,2828.353285,None,1.2733339,2829.646863,None,2830.16174,None,2830.16174,None,n,0.3131811,2830.16174,None,0.3131811,,,Oct28Silent1,67,2022_Oct_28_1457,ProdSingRedoBetween,2021.2.3,59.97835975
,,,,164,0,164,0,,,,,,,,,,,,,,,,,,,,,,2833.880477,None,,,,,,,,,,,,,,,,,,plane,112,165,silent,new,null,2831.006022,None,2831.006022,None,1,1.700602,2831.006022,None,1.700602,2832.733981,None,2833.250239,None,2833.250239,None,n,0.6003815,2833.250239,None,0.6003815,,,Oct28Silent1,67,2022_Oct_28_1457,ProdSingRedoBetween,2021.2.3,59.97835975
,,,,165,0,165,0,,,,,,,,,,,,,,,,,,,,,,2836.534595,None,,,,,,,,,,,,,,,,,,universal,100,166,silent,new,null,2834.397468,None,2834.397468,None,2,1.4853562,2834.397468,None,1.4853562,2835.911114,None,2836.4179,None,2836.4179,None,n,0.0967324,2836.4179,None,0.0967324,,,Oct28Silent1,67,2022_Oct_28_1457,ProdSingRedoBetween,2021.2.3,59.97835975
,,,,166,0,166,0,,,,,,,,,,,,,,,,,,,,,,2839.887889,None,,,,,,,,,,,,,,,,,,front,4,167,silent,old,yellow,2837.045332,None,2837.045332,None,3,2.2213597,2837.045332,None,2.2213597,2839.293368,None,2839.804506,None,2839.804506,None,f,0.054153,2839.804506,None,0.054153,,,Oct28Silent1,67,2022_Oct_28_1457,ProdSingRedoBetween,2021.2.3,59.97835975
,,,,167,0,167,0,,,,,,,,,,,,,,,,,,,,,,2843.975321,None,,,,,,,,,,,,,,,,,,whole,119,168,silent,new,null,2840.388457,None,2840.388457,None,1,2.7901872,2840.388457,None,2.7901872,2843.208898,None,2843.708314,None,2843.708314,None,n,0.2463015,2843.708314,None,0.2463015,,,Oct28Silent1,67,2022_Oct_28_1457,ProdSingRedoBetween,2021.2.3,59.97835975
,,,,168,0,168,0,,,,,,,,,,,,,,,,,,,,,,2851.93328,None,,,,,,,,,,,,,,,,,,payment,118,169,silent,new,null,2844.47569,None,2844.47569,None,2,4.1669272,2844.47569,None,4.1669272,2848.664545,None,2849.168369,None,2849.168369,None,r,2.7381513,2849.168369,None,2.7381513,,,Oct28Silent1,67,2022_Oct_28_1457,ProdSingRedoBetween,2021.2.3,59.97835975
,,,,169,0,169,0,,,,,,,,,,,,,,,,,,,,,,2861.576184,None,,,,,,,,,,,,,,,,,,contract,113,170,silent,new,null,2852.440885,None,2852.440885,None,3,8.3616948,2852.440885,None,8.3616948,2860.826454,None,2861.326197,None,2861.326197,None,f,0.2283892,2861.326197,None,0.2283892,,,Oct28Silent1,67,2022_Oct_28_1457,ProdSingRedoBetween,2021.2.3,59.97835975
,,,,170,0,170,0,,,,,,,,,,,,,,,,,,,,,,2865.780481,None,,,,,,,,,,,,,,,,,,still,71,171,silent,old,red,2862.0841,None,2862.0841,None,1,1.3503856,2862.0841,None,1.3503856,2863.467574,None,2863.978752,None,2863.978752,None,n,1.7758289,2863.978752,None,1.7758289,,,Oct28Silent1,67,2022_Oct_28_1457,ProdSingRedoBetween,2021.2.3,59.97835975
,,,,171,0,171,0,,,,,,,,,,,,,,,,,,,,,,2868.254342,None,,,,,,,,,,,,,,,,,,material,109,172,silent,new,null,2866.295787,None,2866.295787,None,1,1.2508715,2866.295787,None,1.2508715,2867.570789,None,2868.082715,None,2868.082715,None,n,0.1438992,2868.082715,None,0.1438992,,,Oct28Silent1,67,2022_Oct_28_1457,ProdSingRedoBetween,2021.2.3,59.97835975
,,,,172,0,172,0,,,,,,,,,,,,,,,,,,,,,,2874.943779,None,,,,,,,,,,,,,,,,,,trial,146,173,silent,new,null,2868.768635,None,2868.768635,None,3,4.5779396,2868.768635,None,4.5779396,2873.375945,None,2873.895741,None,2873.895741,None,f,1.0187336,2873.895741,None,1.0187336,,,Oct28Silent1,67,2022_Oct_28_1457,ProdSingRedoBetween,2021.2.3,59.97835975
,,,,173,0,173,0,,,,,,,,,,,,,,,,,,,,,,2881.095679,None,,,,,,,,,,,,,,,,,,brief,19,174,silent,old,yellow,2875.45893,None,2875.45893,None,5,4.0476327,2875.45893,None,4.0476327,2879.528122,None,2880.036906,None,2880.036906,None,r,1.0296668,2880.036906,None,1.0296668,,,Oct28Silent1,67,2022_Oct_28_1457,ProdSingRedoBetween,2021.2.3,59.97835975
,,,,174,0,174,0,,,,,,,,,,,,,,,,,,,,,,2886.851506,None,,,,,,,,,,,,,,,,,,trash,149,175,silent,new,null,2881.610294,None,2881.610294,None,2,2.6322338,2881.610294,None,2.6322338,2884.267698,None,2884.782684,None,2884.782684,None,f,2.051821,2884.782684,None,2.051821,,,Oct28Silent1,67,2022_Oct_28_1457,ProdSingRedoBetween,2021.2.3,59.97835975
,,,,175,0,175,0,,,,,,,,,,,,,,,,,,,,,,2891.98986,None,,,,,,,,,,,,,,,,,,design,141,176,silent,new,null,2887.352876,None,2887.352876,None,5,2.3696712,2887.352876,None,2.3696712,2889.738851,None,2890.243229,None,2890.243229,None,r,1.7272972,2890.243229,None,1.7272972,,,Oct28Silent1,67,2022_Oct_28_1457,ProdSingRedoBetween,2021.2.3,59.97835975
,,,,176,0,176,0,,,,,,,,,,,,,,,,,,,,,,2899.914467,None,,,,,,,,,,,,,,,,,,salary,123,177,silent,new,null,2892.501562,None,2892.501562,None,1,6.676897,2892.501562,None,6.676897,2899.197174,None,2899.702613,None,2899.702613,None,n,0.1958593,2899.702613,None,0.1958593,,,Oct28Silent1,67,2022_Oct_28_1457,ProdSingRedoBetween,2021.2.3,59.97835975
,,,,177,0,177,0,,,,,,,,,,,,,,,,,,,,,,2905.536449,None,,,,,,,,,,,,,,,,,,corner,144,178,silent,new,null,2900.423684,None,2900.423684,None,5,3.0347027,2900.423684,None,3.0347027,2903.484418,None,2903.989243,None,2903.989243,None,r,1.5171651,2903.989243,None,1.5171651,,,Oct28Silent1,67,2022_Oct_28_1457,ProdSingRedoBetween,2021.2.3,59.97835975
,,,,178,0,178,0,,,,,,,,,,,,,,,,,,,,,,2914.912559,None,,,,,,,,,,,,,,,,,,trail,33,179,silent,old,blue,2906.051347,None,2906.051347,None,3,8.1431246,2906.051347,None,8.1431246,2914.211954,None,2914.71252,None,2914.71252,None,f,0.1778979,2914.71252,None,0.1778979,,,Oct28Silent1,67,2022_Oct_28_1457,ProdSingRedoBetween,2021.2.3,59.97835975
,,,,179,0,179,0,,,,,,,,,,,,,,,,,,,,,,2920.551685,None,,,,,,,,,,,,,,,,,,question,130,180,silent,new,null,2915.413281,None,2915.413281,None,5,4.3652111,2915.413281,None,4.3652111,2919.802688,None,2920.31822,None,2920.31822,None,r,0.2123295,2920.31822,None,0.2123295,,,Oct28Silent1,67,2022_Oct_28_1457,ProdSingRedoBetween,2021.2.3,59.97835975
,,,,,,,,,,,,,,,,,,,,,,,,,,,,,,,,,,,,,,,,,,,,,,,,,,,,,,,,,,,,,,,,,,,,,,,,,,2921.052849,None,,,,,,
