StudyLoop.thisRepN,StudyLoop.thisTrialN,StudyLoop.thisN,StudyLoop.thisIndex,TestLoop.thisRepN,TestLoop.thisTrialN,TestLoop.thisN,TestLoop.thisIndex,textCondition.started,textCondition.stopped,keyCondition.keys,keyCondition.rt,keyCondition.started,keyCondition.stopped,Condition,textWelcome.started,textWelcome.stopped,keyWelcome.keys,keyWelcome.rt,keyWelcome.started,keyWelcome.stopped,textAloud.started,textAloud.stopped,textSilent.started,textSilent.stopped,textSing.started,textSing.stopped,conditional_text.started,conditional_text.stopped,textBlank500.started,textBlank500.stopped,study_word,study_num,study_order,study_type,word_color,textStudy.started,textStudy.stopped,keyStudy.keys,keyStudy.started,keyStudy.stopped,keyStudy.rt,textTestInstructions.started,textTestInstructions.stopped,key_resp_3.keys,key_resp_3.rt,key_resp_3.started,key_resp_3.stopped,test_word,test_num,test_order,test_condition,old_new_test,test_word_original_color,textConf.started,textConf.stopped,textConfScale.started,textConfScale.stopped,keyConf.keys,keyConf.rt,keyConf.started,keyConf.stopped,confidence response time,textTestBlank.started,textTestBlank.stopped,textRKN.started,textRKN.stopped,textRKNScale.started,textRKNScale.stopped,keyRKN.keys,keyRKN.rt,keyRKN.started,keyRKN.stopped,rkn response time,textEnd.started,textEnd.stopped,participant,session,date,expName,psychopyVersion,frameRate
,,,,,,,,1573.842827,None,a,180.5385644,1573.842827,None,,,,,,,,,,,,,,,,,,,,,,,,,,,,,,,,,,,,,,,,,,,,,,,,,,,,,,,,,,,,,,,Sep23Silent1,55,2022_Sep_23_1450,ProdSingRedoBetween,2021.2.3,59.94772559
,,,,,,,,,,,,,,SilentTest,1754.43028,None,space,14.7111751,1754.43028,None,,,,,,,,,,,,,,,,,,,,,,,,,,,,,,,,,,,,,,,,,,,,,,,,,,,,,,,,Sep23Silent1,55,2022_Sep_23_1450,ProdSingRedoBetween,2021.2.3,59.94772559
0,0,0,0,,,,,,,,,,,,,,,,,,1754.43028,None,1754.43028,None,1754.43028,None,1754.43028,None,1771.660705,None,point,85,1,silent,red,1769.658606,None,None,1769.658606,None,,,,,,,,,,,,,,,,,,,,,,,,,,,,,,,,,,,,Sep23Silent1,55,2022_Sep_23_1450,ProdSingRedoBetween,2021.2.3,59.94772559
1,0,1,0,,,,,,,,,,,,,,,,,,,,,,,,,,1774.180391,None,music,29,2,silent,blue,1772.167352,None,space,1772.167352,None,1.4300902,,,,,,,,,,,,,,,,,,,,,,,,,,,,,,,,,,,Sep23Silent1,55,2022_Sep_23_1450,ProdSingRedoBetween,2021.2.3,59.94772559
2,0,2,0,,,,,,,,,,,,,,,,,,,,,,,,,,1776.685864,None,division,87,3,silent,red,1774.683451,None,space,1774.683451,None,1.2580176,,,,,,,,,,,,,,,,,,,,,,,,,,,,,,,,,,,Sep23Silent1,55,2022_Sep_23_1450,ProdSingRedoBetween,2021.2.3,59.94772559
3,0,3,0,,,,,,,,,,,,,,,,,,,,,,,,,,1779.201482,None,salary,61,4,silent,red,1777.199464,None,space,1777.199464,None,0.7102329,,,,,,,,,,,,,,,,,,,,,,,,,,,,,,,,,,,Sep23Silent1,55,2022_Sep_23_1450,ProdSingRedoBetween,2021.2.3,59.94772559
4,0,4,0,,,,,,,,,,,,,,,,,,,,,,,,,,1781.704119,None,quantity,50,5,silent,blue,1779.704575,None,space,1779.704575,None,1.4372123,,,,,,,,,,,,,,,,,,,,,,,,,,,,,,,,,,,Sep23Silent1,55,2022_Sep_23_1450,ProdSingRedoBetween,2021.2.3,59.94772559
5,0,5,0,,,,,,,,,,,,,,,,,,,,,,,,,,1784.206267,None,crisis,80,6,silent,red,1782.204972,None,space,1782.204972,None,0.8645431,,,,,,,,,,,,,,,,,,,,,,,,,,,,,,,,,,,Sep23Silent1,55,2022_Sep_23_1450,ProdSingRedoBetween,2021.2.3,59.94772559
6,0,6,0,,,,,,,,,,,,,,,,,,,,,,,,,,1786.725591,None,captain,11,7,silent,yellow,1784.714171,None,space,1784.714171,None,0.7074231,,,,,,,,,,,,,,,,,,,,,,,,,,,,,,,,,,,Sep23Silent1,55,2022_Sep_23_1450,ProdSingRedoBetween,2021.2.3,59.94772559
7,0,7,0,,,,,,,,,,,,,,,,,,,,,,,,,,1789.228686,None,mechanical,86,8,silent,red,1787.226141,None,space,1787.226141,None,1.595547,,,,,,,,,,,,,,,,,,,,,,,,,,,,,,,,,,,Sep23Silent1,55,2022_Sep_23_1450,ProdSingRedoBetween,2021.2.3,59.94772559
8,0,8,0,,,,,,,,,,,,,,,,,,,,,,,,,,1791.730407,None,pancakes,12,9,silent,yellow,1789.728612,None,space,1789.728612,None,0.7408243,,,,,,,,,,,,,,,,,,,,,,,,,,,,,,,,,,,Sep23Silent1,55,2022_Sep_23_1450,ProdSingRedoBetween,2021.2.3,59.94772559
9,0,9,0,,,,,,,,,,,,,,,,,,,,,,,,,,1794.2331,None,watch,32,10,silent,blue,1792.232112,None,space,1792.232112,None,0.6374477,,,,,,,,,,,,,,,,,,,,,,,,,,,,,,,,,,,Sep23Silent1,55,2022_Sep_23_1450,ProdSingRedoBetween,2021.2.3,59.94772559
10,0,10,0,,,,,,,,,,,,,,,,,,,,,,,,,,1796.735712,None,afternoon,74,11,silent,red,1794.735462,None,space,1794.735462,None,0.6538519,,,,,,,,,,,,,,,,,,,,,,,,,,,,,,,,,,,Sep23Silent1,55,2022_Sep_23_1450,ProdSingRedoBetween,2021.2.3,59.94772559
11,0,11,0,,,,,,,,,,,,,,,,,,,,,,,,,,1799.254843,None,skill,44,12,silent,blue,1797.242892,None,space,1797.242892,None,0.5704973,,,,,,,,,,,,,,,,,,,,,,,,,,,,,,,,,,,Sep23Silent1,55,2022_Sep_23_1450,ProdSingRedoBetween,2021.2.3,59.94772559
12,0,12,0,,,,,,,,,,,,,,,,,,,,,,,,,,1801.77411,None,level,77,13,silent,red,1799.759732,None,space,1799.759732,None,0.6216878,,,,,,,,,,,,,,,,,,,,,,,,,,,,,,,,,,,Sep23Silent1,55,2022_Sep_23_1450,ProdSingRedoBetween,2021.2.3,59.94772559
13,0,13,0,,,,,,,,,,,,,,,,,,,,,,,,,,1804.292874,None,accident,20,14,silent,yellow,1802.280261,None,space,1802.280261,None,0.6853021,,,,,,,,,,,,,,,,,,,,,,,,,,,,,,,,,,,Sep23Silent1,55,2022_Sep_23_1450,ProdSingRedoBetween,2021.2.3,59.94772559
14,0,14,0,,,,,,,,,,,,,,,,,,,,,,,,,,1806.795595,None,cousin,7,15,silent,yellow,1804.793447,None,None,1804.793447,None,,,,,,,,,,,,,,,,,,,,,,,,,,,,,,,,,,,,Sep23Silent1,55,2022_Sep_23_1450,ProdSingRedoBetween,2021.2.3,59.94772559
15,0,15,0,,,,,,,,,,,,,,,,,,,,,,,,,,1809.314986,None,trash,78,16,silent,red,1807.301177,None,None,1807.301177,None,,,,,,,,,,,,,,,,,,,,,,,,,,,,,,,,,,,,Sep23Silent1,55,2022_Sep_23_1450,ProdSingRedoBetween,2021.2.3,59.94772559
16,0,16,0,,,,,,,,,,,,,,,,,,,,,,,,,,1811.833918,None,interior,30,17,silent,blue,1809.822053,None,None,1809.822053,None,,,,,,,,,,,,,,,,,,,,,,,,,,,,,,,,,,,,Sep23Silent1,55,2022_Sep_23_1450,ProdSingRedoBetween,2021.2.3,59.94772559
17,0,17,0,,,,,,,,,,,,,,,,,,,,,,,,,,1814.3365,None,character,57,18,silent,blue,1812.336886,None,None,1812.336886,None,,,,,,,,,,,,,,,,,,,,,,,,,,,,,,,,,,,,Sep23Silent1,55,2022_Sep_23_1450,ProdSingRedoBetween,2021.2.3,59.94772559
18,0,18,0,,,,,,,,,,,,,,,,,,,,,,,,,,1816.839077,None,empty,0,19,silent,yellow,1814.839077,None,None,1814.839077,None,,,,,,,,,,,,,,,,,,,,,,,,,,,,,,,,,,,,Sep23Silent1,55,2022_Sep_23_1450,ProdSingRedoBetween,2021.2.3,59.94772559
19,0,19,0,,,,,,,,,,,,,,,,,,,,,,,,,,1819.341406,None,company,34,20,silent,blue,1817.339454,None,None,1817.339454,None,,,,,,,,,,,,,,,,,,,,,,,,,,,,,,,,,,,,Sep23Silent1,55,2022_Sep_23_1450,ProdSingRedoBetween,2021.2.3,59.94772559
20,0,20,0,,,,,,,,,,,,,,,,,,,,,,,,,,1821.843727,None,committee,64,21,silent,red,1819.843726,None,None,1819.843726,None,,,,,,,,,,,,,,,,,,,,,,,,,,,,,,,,,,,,Sep23Silent1,55,2022_Sep_23_1450,ProdSingRedoBetween,2021.2.3,59.94772559
21,0,21,0,,,,,,,,,,,,,,,,,,,,,,,,,,1824.346215,None,conference,84,22,silent,red,1822.3446,None,None,1822.3446,None,,,,,,,,,,,,,,,,,,,,,,,,,,,,,,,,,,,,Sep23Silent1,55,2022_Sep_23_1450,ProdSingRedoBetween,2021.2.3,59.94772559
22,0,22,0,,,,,,,,,,,,,,,,,,,,,,,,,,1826.849021,None,income,22,23,silent,yellow,1824.847685,None,None,1824.847685,None,,,,,,,,,,,,,,,,,,,,,,,,,,,,,,,,,,,,Sep23Silent1,55,2022_Sep_23_1450,ProdSingRedoBetween,2021.2.3,59.94772559
23,0,23,0,,,,,,,,,,,,,,,,,,,,,,,,,,1829.368284,None,growth,54,24,silent,blue,1827.353913,None,None,1827.353913,None,,,,,,,,,,,,,,,,,,,,,,,,,,,,,,,,,,,,Sep23Silent1,55,2022_Sep_23_1450,ProdSingRedoBetween,2021.2.3,59.94772559
24,0,24,0,,,,,,,,,,,,,,,,,,,,,,,,,,1831.88701,None,attack,76,25,silent,red,1829.871652,None,None,1829.871652,None,,,,,,,,,,,,,,,,,,,,,,,,,,,,,,,,,,,,Sep23Silent1,55,2022_Sep_23_1450,ProdSingRedoBetween,2021.2.3,59.94772559
25,0,25,0,,,,,,,,,,,,,,,,,,,,,,,,,,1834.389795,None,discovery,82,26,silent,red,1832.387647,None,None,1832.387647,None,,,,,,,,,,,,,,,,,,,,,,,,,,,,,,,,,,,,Sep23Silent1,55,2022_Sep_23_1450,ProdSingRedoBetween,2021.2.3,59.94772559
26,0,26,0,,,,,,,,,,,,,,,,,,,,,,,,,,1836.909052,None,scene,66,27,silent,red,1834.894198,None,None,1834.894198,None,,,,,,,,,,,,,,,,,,,,,,,,,,,,,,,,,,,,Sep23Silent1,55,2022_Sep_23_1450,ProdSingRedoBetween,2021.2.3,59.94772559
27,0,27,0,,,,,,,,,,,,,,,,,,,,,,,,,,1839.411453,None,meeting,89,28,silent,red,1837.409479,None,None,1837.409479,None,,,,,,,,,,,,,,,,,,,,,,,,,,,,,,,,,,,,Sep23Silent1,55,2022_Sep_23_1450,ProdSingRedoBetween,2021.2.3,59.94772559
28,0,28,0,,,,,,,,,,,,,,,,,,,,,,,,,,1841.913947,None,scale,56,29,silent,blue,1839.912002,None,None,1839.912002,None,,,,,,,,,,,,,,,,,,,,,,,,,,,,,,,,,,,,Sep23Silent1,55,2022_Sep_23_1450,ProdSingRedoBetween,2021.2.3,59.94772559
29,0,29,0,,,,,,,,,,,,,,,,,,,,,,,,,,1844.433198,None,passage,10,30,silent,yellow,1842.419534,None,None,1842.419534,None,,,,,,,,,,,,,,,,,,,,,,,,,,,,,,,,,,,,Sep23Silent1,55,2022_Sep_23_1450,ProdSingRedoBetween,2021.2.3,59.94772559
30,0,30,0,,,,,,,,,,,,,,,,,,,,,,,,,,1846.935516,None,drama,14,31,silent,yellow,1844.933681,None,None,1844.933681,None,,,,,,,,,,,,,,,,,,,,,,,,,,,,,,,,,,,,Sep23Silent1,55,2022_Sep_23_1450,ProdSingRedoBetween,2021.2.3,59.94772559
31,0,31,0,,,,,,,,,,,,,,,,,,,,,,,,,,1849.454911,None,mayor,83,32,silent,red,1847.44016,None,None,1847.44016,None,,,,,,,,,,,,,,,,,,,,,,,,,,,,,,,,,,,,Sep23Silent1,55,2022_Sep_23_1450,ProdSingRedoBetween,2021.2.3,59.94772559
32,0,32,0,,,,,,,,,,,,,,,,,,,,,,,,,,1851.957486,None,debate,70,33,silent,red,1849.957885,None,None,1849.957885,None,,,,,,,,,,,,,,,,,,,,,,,,,,,,,,,,,,,,Sep23Silent1,55,2022_Sep_23_1450,ProdSingRedoBetween,2021.2.3,59.94772559
33,0,33,0,,,,,,,,,,,,,,,,,,,,,,,,,,1854.459833,None,little,31,34,silent,blue,1852.459706,None,None,1852.459706,None,,,,,,,,,,,,,,,,,,,,,,,,,,,,,,,,,,,,Sep23Silent1,55,2022_Sep_23_1450,ProdSingRedoBetween,2021.2.3,59.94772559
34,0,34,0,,,,,,,,,,,,,,,,,,,,,,,,,,1856.962405,None,whole,88,35,silent,red,1854.960414,None,None,1854.960414,None,,,,,,,,,,,,,,,,,,,,,,,,,,,,,,,,,,,,Sep23Silent1,55,2022_Sep_23_1450,ProdSingRedoBetween,2021.2.3,59.94772559
35,0,35,0,,,,,,,,,,,,,,,,,,,,,,,,,,1859.4649,None,error,25,36,silent,yellow,1857.46314,None,None,1857.46314,None,,,,,,,,,,,,,,,,,,,,,,,,,,,,,,,,,,,,Sep23Silent1,55,2022_Sep_23_1450,ProdSingRedoBetween,2021.2.3,59.94772559
36,0,36,0,,,,,,,,,,,,,,,,,,,,,,,,,,1861.984225,None,payment,1,37,silent,yellow,1859.971763,None,None,1859.971763,None,,,,,,,,,,,,,,,,,,,,,,,,,,,,,,,,,,,,Sep23Silent1,55,2022_Sep_23_1450,ProdSingRedoBetween,2021.2.3,59.94772559
37,0,37,0,,,,,,,,,,,,,,,,,,,,,,,,,,1864.502857,None,agency,69,38,silent,red,1862.488166,None,None,1862.488166,None,,,,,,,,,,,,,,,,,,,,,,,,,,,,,,,,,,,,Sep23Silent1,55,2022_Sep_23_1450,ProdSingRedoBetween,2021.2.3,59.94772559
38,0,38,0,,,,,,,,,,,,,,,,,,,,,,,,,,1867.005641,None,vision,60,39,silent,red,1865.006532,None,None,1865.006532,None,,,,,,,,,,,,,,,,,,,,,,,,,,,,,,,,,,,,Sep23Silent1,55,2022_Sep_23_1450,ProdSingRedoBetween,2021.2.3,59.94772559
39,0,39,0,,,,,,,,,,,,,,,,,,,,,,,,,,1869.508114,None,society,23,40,silent,yellow,1867.506159,None,None,1867.506159,None,,,,,,,,,,,,,,,,,,,,,,,,,,,,,,,,,,,,Sep23Silent1,55,2022_Sep_23_1450,ProdSingRedoBetween,2021.2.3,59.94772559
40,0,40,0,,,,,,,,,,,,,,,,,,,,,,,,,,1872.02728,None,month,6,41,silent,yellow,1870.013608,None,None,1870.013608,None,,,,,,,,,,,,,,,,,,,,,,,,,,,,,,,,,,,,Sep23Silent1,55,2022_Sep_23_1450,ProdSingRedoBetween,2021.2.3,59.94772559
41,0,41,0,,,,,,,,,,,,,,,,,,,,,,,,,,1874.546589,None,tough,26,42,silent,yellow,1872.531365,None,None,1872.531365,None,,,,,,,,,,,,,,,,,,,,,,,,,,,,,,,,,,,,Sep23Silent1,55,2022_Sep_23_1450,ProdSingRedoBetween,2021.2.3,59.94772559
42,0,42,0,,,,,,,,,,,,,,,,,,,,,,,,,,1877.065799,None,marriage,72,43,silent,red,1875.054929,None,None,1875.054929,None,,,,,,,,,,,,,,,,,,,,,,,,,,,,,,,,,,,,Sep23Silent1,55,2022_Sep_23_1450,ProdSingRedoBetween,2021.2.3,59.94772559
43,0,43,0,,,,,,,,,,,,,,,,,,,,,,,,,,1879.568234,None,straight,2,44,silent,yellow,1877.566269,None,None,1877.566269,None,,,,,,,,,,,,,,,,,,,,,,,,,,,,,,,,,,,,Sep23Silent1,55,2022_Sep_23_1450,ProdSingRedoBetween,2021.2.3,59.94772559
44,0,44,0,,,,,,,,,,,,,,,,,,,,,,,,,,1882.070868,None,thick,55,45,silent,blue,1880.070048,None,None,1880.070048,None,,,,,,,,,,,,,,,,,,,,,,,,,,,,,,,,,,,,Sep23Silent1,55,2022_Sep_23_1450,ProdSingRedoBetween,2021.2.3,59.94772559
45,0,45,0,,,,,,,,,,,,,,,,,,,,,,,,,,1884.589619,None,question,67,46,silent,red,1882.579465,None,None,1882.579465,None,,,,,,,,,,,,,,,,,,,,,,,,,,,,,,,,,,,,Sep23Silent1,55,2022_Sep_23_1450,ProdSingRedoBetween,2021.2.3,59.94772559
46,0,46,0,,,,,,,,,,,,,,,,,,,,,,,,,,1887.092378,None,rural,15,47,silent,yellow,1885.09023,None,None,1885.09023,None,,,,,,,,,,,,,,,,,,,,,,,,,,,,,,,,,,,,Sep23Silent1,55,2022_Sep_23_1450,ProdSingRedoBetween,2021.2.3,59.94772559
47,0,47,0,,,,,,,,,,,,,,,,,,,,,,,,,,1889.61157,None,right,75,48,silent,red,1887.596344,None,None,1887.596344,None,,,,,,,,,,,,,,,,,,,,,,,,,,,,,,,,,,,,Sep23Silent1,55,2022_Sep_23_1450,ProdSingRedoBetween,2021.2.3,59.94772559
48,0,48,0,,,,,,,,,,,,,,,,,,,,,,,,,,1892.114123,None,gesture,53,49,silent,blue,1890.11186,None,None,1890.11186,None,,,,,,,,,,,,,,,,,,,,,,,,,,,,,,,,,,,,Sep23Silent1,55,2022_Sep_23_1450,ProdSingRedoBetween,2021.2.3,59.94772559
49,0,49,0,,,,,,,,,,,,,,,,,,,,,,,,,,1894.616221,None,notice,39,50,silent,blue,1892.615131,None,None,1892.615131,None,,,,,,,,,,,,,,,,,,,,,,,,,,,,,,,,,,,,Sep23Silent1,55,2022_Sep_23_1450,ProdSingRedoBetween,2021.2.3,59.94772559
50,0,50,0,,,,,,,,,,,,,,,,,,,,,,,,,,1897.135765,None,welcome,17,51,silent,yellow,1895.121776,None,None,1895.121776,None,,,,,,,,,,,,,,,,,,,,,,,,,,,,,,,,,,,,Sep23Silent1,55,2022_Sep_23_1450,ProdSingRedoBetween,2021.2.3,59.94772559
51,0,51,0,,,,,,,,,,,,,,,,,,,,,,,,,,1899.63823,None,provision,52,52,silent,blue,1897.637411,None,None,1897.637411,None,,,,,,,,,,,,,,,,,,,,,,,,,,,,,,,,,,,,Sep23Silent1,55,2022_Sep_23_1450,ProdSingRedoBetween,2021.2.3,59.94772559
52,0,52,0,,,,,,,,,,,,,,,,,,,,,,,,,,1902.140761,None,period,21,53,silent,yellow,1900.139509,None,None,1900.139509,None,,,,,,,,,,,,,,,,,,,,,,,,,,,,,,,,,,,,Sep23Silent1,55,2022_Sep_23_1450,ProdSingRedoBetween,2021.2.3,59.94772559
53,0,53,0,,,,,,,,,,,,,,,,,,,,,,,,,,1904.643232,None,science,73,54,silent,red,1902.641039,None,None,1902.641039,None,,,,,,,,,,,,,,,,,,,,,,,,,,,,,,,,,,,,Sep23Silent1,55,2022_Sep_23_1450,ProdSingRedoBetween,2021.2.3,59.94772559
54,0,54,0,,,,,,,,,,,,,,,,,,,,,,,,,,1907.162431,None,comedy,42,55,silent,blue,1905.147991,None,None,1905.147991,None,,,,,,,,,,,,,,,,,,,,,,,,,,,,,,,,,,,,Sep23Silent1,55,2022_Sep_23_1450,ProdSingRedoBetween,2021.2.3,59.94772559
55,0,55,0,,,,,,,,,,,,,,,,,,,,,,,,,,1909.664936,None,taste,41,56,silent,blue,1907.662958,None,None,1907.662958,None,,,,,,,,,,,,,,,,,,,,,,,,,,,,,,,,,,,,Sep23Silent1,55,2022_Sep_23_1450,ProdSingRedoBetween,2021.2.3,59.94772559
56,0,56,0,,,,,,,,,,,,,,,,,,,,,,,,,,1912.167288,None,measure,19,57,silent,yellow,1910.165397,None,None,1910.165397,None,,,,,,,,,,,,,,,,,,,,,,,,,,,,,,,,,,,,Sep23Silent1,55,2022_Sep_23_1450,ProdSingRedoBetween,2021.2.3,59.94772559
57,0,57,0,,,,,,,,,,,,,,,,,,,,,,,,,,1914.686611,None,device,35,58,silent,blue,1912.67372,None,None,1912.67372,None,,,,,,,,,,,,,,,,,,,,,,,,,,,,,,,,,,,,Sep23Silent1,55,2022_Sep_23_1450,ProdSingRedoBetween,2021.2.3,59.94772559
58,0,58,0,,,,,,,,,,,,,,,,,,,,,,,,,,1917.189017,None,place,37,59,silent,blue,1915.18683,None,None,1915.18683,None,,,,,,,,,,,,,,,,,,,,,,,,,,,,,,,,,,,,Sep23Silent1,55,2022_Sep_23_1450,ProdSingRedoBetween,2021.2.3,59.94772559
59,0,59,0,,,,,,,,,,,,,,,,,,,,,,,,,,1919.708343,None,household,81,60,silent,red,1917.694105,None,None,1917.694105,None,,,,,,,,,,,,,,,,,,,,,,,,,,,,,,,,,,,,Sep23Silent1,55,2022_Sep_23_1450,ProdSingRedoBetween,2021.2.3,59.94772559
60,0,60,0,,,,,,,,,,,,,,,,,,,,,,,,,,1922.210765,None,instrument,45,61,silent,blue,1920.211272,None,None,1920.211272,None,,,,,,,,,,,,,,,,,,,,,,,,,,,,,,,,,,,,Sep23Silent1,55,2022_Sep_23_1450,ProdSingRedoBetween,2021.2.3,59.94772559
61,0,61,0,,,,,,,,,,,,,,,,,,,,,,,,,,1924.714857,None,medicine,8,62,silent,yellow,1922.711252,None,None,1922.711252,None,,,,,,,,,,,,,,,,,,,,,,,,,,,,,,,,,,,,Sep23Silent1,55,2022_Sep_23_1450,ProdSingRedoBetween,2021.2.3,59.94772559
62,0,62,0,,,,,,,,,,,,,,,,,,,,,,,,,,1927.249087,None,number,65,63,silent,red,1925.236757,None,None,1925.236757,None,,,,,,,,,,,,,,,,,,,,,,,,,,,,,,,,,,,,Sep23Silent1,55,2022_Sep_23_1450,ProdSingRedoBetween,2021.2.3,59.94772559
63,0,63,0,,,,,,,,,,,,,,,,,,,,,,,,,,1929.751595,None,strain,63,64,silent,red,1927.750922,None,None,1927.750922,None,,,,,,,,,,,,,,,,,,,,,,,,,,,,,,,,,,,,Sep23Silent1,55,2022_Sep_23_1450,ProdSingRedoBetween,2021.2.3,59.94772559
64,0,64,0,,,,,,,,,,,,,,,,,,,,,,,,,,1932.254127,None,clear,16,65,silent,yellow,1930.254036,None,None,1930.254036,None,,,,,,,,,,,,,,,,,,,,,,,,,,,,,,,,,,,,Sep23Silent1,55,2022_Sep_23_1450,ProdSingRedoBetween,2021.2.3,59.94772559
65,0,65,0,,,,,,,,,,,,,,,,,,,,,,,,,,1934.756358,None,symbol,47,66,silent,blue,1932.757353,None,None,1932.757353,None,,,,,,,,,,,,,,,,,,,,,,,,,,,,,,,,,,,,Sep23Silent1,55,2022_Sep_23_1450,ProdSingRedoBetween,2021.2.3,59.94772559
66,0,66,0,,,,,,,,,,,,,,,,,,,,,,,,,,1937.259028,None,close,68,67,silent,red,1935.256779,None,None,1935.256779,None,,,,,,,,,,,,,,,,,,,,,,,,,,,,,,,,,,,,Sep23Silent1,55,2022_Sep_23_1450,ProdSingRedoBetween,2021.2.3,59.94772559
67,0,67,0,,,,,,,,,,,,,,,,,,,,,,,,,,1939.76162,None,angle,59,68,silent,yellow,1937.759539,None,None,1937.759539,None,,,,,,,,,,,,,,,,,,,,,,,,,,,,,,,,,,,,Sep23Silent1,55,2022_Sep_23_1450,ProdSingRedoBetween,2021.2.3,59.94772559
68,0,68,0,,,,,,,,,,,,,,,,,,,,,,,,,,1942.264014,None,message,43,69,silent,blue,1940.262594,None,None,1940.262594,None,,,,,,,,,,,,,,,,,,,,,,,,,,,,,,,,,,,,Sep23Silent1,55,2022_Sep_23_1450,ProdSingRedoBetween,2021.2.3,59.94772559
69,0,69,0,,,,,,,,,,,,,,,,,,,,,,,,,,1944.783287,None,dispute,36,70,silent,blue,1942.768694,None,None,1942.768694,None,,,,,,,,,,,,,,,,,,,,,,,,,,,,,,,,,,,,Sep23Silent1,55,2022_Sep_23_1450,ProdSingRedoBetween,2021.2.3,59.94772559
70,0,70,0,,,,,,,,,,,,,,,,,,,,,,,,,,1947.285839,None,discussion,3,71,silent,yellow,1945.286,None,None,1945.286,None,,,,,,,,,,,,,,,,,,,,,,,,,,,,,,,,,,,,Sep23Silent1,55,2022_Sep_23_1450,ProdSingRedoBetween,2021.2.3,59.94772559
71,0,71,0,,,,,,,,,,,,,,,,,,,,,,,,,,1949.80495,None,history,18,72,silent,yellow,1947.799,None,None,1947.799,None,,,,,,,,,,,,,,,,,,,,,,,,,,,,,,,,,,,,Sep23Silent1,55,2022_Sep_23_1450,ProdSingRedoBetween,2021.2.3,59.94772559
72,0,72,0,,,,,,,,,,,,,,,,,,,,,,,,,,1952.324143,None,sunset,24,73,silent,yellow,1950.30985,None,None,1950.30985,None,,,,,,,,,,,,,,,,,,,,,,,,,,,,,,,,,,,,Sep23Silent1,55,2022_Sep_23_1450,ProdSingRedoBetween,2021.2.3,59.94772559
73,0,73,0,,,,,,,,,,,,,,,,,,,,,,,,,,1954.842958,None,travel,40,74,silent,blue,1952.827666,None,None,1952.827666,None,,,,,,,,,,,,,,,,,,,,,,,,,,,,,,,,,,,,Sep23Silent1,55,2022_Sep_23_1450,ProdSingRedoBetween,2021.2.3,59.94772559
74,0,74,0,,,,,,,,,,,,,,,,,,,,,,,,,,1957.345808,None,incident,27,75,silent,yellow,1955.343759,None,None,1955.343759,None,,,,,,,,,,,,,,,,,,,,,,,,,,,,,,,,,,,,Sep23Silent1,55,2022_Sep_23_1450,ProdSingRedoBetween,2021.2.3,59.94772559
75,0,75,0,,,,,,,,,,,,,,,,,,,,,,,,,,1959.864894,None,running,9,76,silent,yellow,1957.849727,None,None,1957.849727,None,,,,,,,,,,,,,,,,,,,,,,,,,,,,,,,,,,,,Sep23Silent1,55,2022_Sep_23_1450,ProdSingRedoBetween,2021.2.3,59.94772559
76,0,76,0,,,,,,,,,,,,,,,,,,,,,,,,,,1962.38417,None,shock,5,77,silent,yellow,1960.37349,None,None,1960.37349,None,,,,,,,,,,,,,,,,,,,,,,,,,,,,,,,,,,,,Sep23Silent1,55,2022_Sep_23_1450,ProdSingRedoBetween,2021.2.3,59.94772559
77,0,77,0,,,,,,,,,,,,,,,,,,,,,,,,,,1964.88649,None,commercial,13,78,silent,yellow,1962.885576,None,None,1962.885576,None,,,,,,,,,,,,,,,,,,,,,,,,,,,,,,,,,,,,Sep23Silent1,55,2022_Sep_23_1450,ProdSingRedoBetween,2021.2.3,59.94772559
78,0,78,0,,,,,,,,,,,,,,,,,,,,,,,,,,1967.405613,None,congress,51,79,silent,blue,1965.391506,None,None,1965.391506,None,,,,,,,,,,,,,,,,,,,,,,,,,,,,,,,,,,,,Sep23Silent1,55,2022_Sep_23_1450,ProdSingRedoBetween,2021.2.3,59.94772559
79,0,79,0,,,,,,,,,,,,,,,,,,,,,,,,,,1969.908369,None,shear,58,80,silent,blue,1967.908896,None,None,1967.908896,None,,,,,,,,,,,,,,,,,,,,,,,,,,,,,,,,,,,,Sep23Silent1,55,2022_Sep_23_1450,ProdSingRedoBetween,2021.2.3,59.94772559
80,0,80,0,,,,,,,,,,,,,,,,,,,,,,,,,,1972.427501,None,threat,79,81,silent,red,1970.41213,None,None,1970.41213,None,,,,,,,,,,,,,,,,,,,,,,,,,,,,,,,,,,,,Sep23Silent1,55,2022_Sep_23_1450,ProdSingRedoBetween,2021.2.3,59.94772559
81,0,81,0,,,,,,,,,,,,,,,,,,,,,,,,,,1974.930006,None,machinery,46,82,silent,blue,1972.929139,None,None,1972.929139,None,,,,,,,,,,,,,,,,,,,,,,,,,,,,,,,,,,,,Sep23Silent1,55,2022_Sep_23_1450,ProdSingRedoBetween,2021.2.3,59.94772559
82,0,82,0,,,,,,,,,,,,,,,,,,,,,,,,,,1977.43236,None,primary,62,83,silent,red,1975.431021,None,None,1975.431021,None,,,,,,,,,,,,,,,,,,,,,,,,,,,,,,,,,,,,Sep23Silent1,55,2022_Sep_23_1450,ProdSingRedoBetween,2021.2.3,59.94772559
83,0,83,0,,,,,,,,,,,,,,,,,,,,,,,,,,1979.935006,None,weather,49,84,silent,blue,1977.935895,None,None,1977.935895,None,,,,,,,,,,,,,,,,,,,,,,,,,,,,,,,,,,,,Sep23Silent1,55,2022_Sep_23_1450,ProdSingRedoBetween,2021.2.3,59.94772559
84,0,84,0,,,,,,,,,,,,,,,,,,,,,,,,,,1982.437445,None,candidate,33,85,silent,blue,1980.435461,None,None,1980.435461,None,,,,,,,,,,,,,,,,,,,,,,,,,,,,,,,,,,,,Sep23Silent1,55,2022_Sep_23_1450,ProdSingRedoBetween,2021.2.3,59.94772559
85,0,85,0,,,,,,,,,,,,,,,,,,,,,,,,,,1984.956603,None,degree,28,86,silent,yellow,1982.946468,None,None,1982.946468,None,,,,,,,,,,,,,,,,,,,,,,,,,,,,,,,,,,,,Sep23Silent1,55,2022_Sep_23_1450,ProdSingRedoBetween,2021.2.3,59.94772559
86,0,86,0,,,,,,,,,,,,,,,,,,,,,,,,,,1987.475803,None,subject,71,87,silent,red,1985.472819,None,None,1985.472819,None,,,,,,,,,,,,,,,,,,,,,,,,,,,,,,,,,,,,Sep23Silent1,55,2022_Sep_23_1450,ProdSingRedoBetween,2021.2.3,59.94772559
87,0,87,0,,,,,,,,,,,,,,,,,,,,,,,,,,1989.978336,None,heavy,38,88,silent,blue,1987.977113,None,None,1987.977113,None,,,,,,,,,,,,,,,,,,,,,,,,,,,,,,,,,,,,Sep23Silent1,55,2022_Sep_23_1450,ProdSingRedoBetween,2021.2.3,59.94772559
88,0,88,0,,,,,,,,,,,,,,,,,,,,,,,,,,1992.480879,None,people,4,89,silent,yellow,1990.478804,None,None,1990.478804,None,,,,,,,,,,,,,,,,,,,,,,,,,,,,,,,,,,,,Sep23Silent1,55,2022_Sep_23_1450,ProdSingRedoBetween,2021.2.3,59.94772559
89,0,89,0,,,,,,,,,,,,,,,,,,,,,,,,,,1995.000052,None,service,48,90,silent,blue,1992.98763,None,None,1992.98763,None,,,,,,,,,,,,,,,,,,,,,,,,,,,,,,,,,,,,Sep23Silent1,55,2022_Sep_23_1450,ProdSingRedoBetween,2021.2.3,59.94772559
,,,,,,,,,,,,,,,,,,,,,,,,,,,,,,,,,,,,,,,,,,1995.500731,None,k,12.3841899,1995.500731,None,,,,,,,,,,,,,,,,,,,,,,,,,,,,,Sep23Silent1,55,2022_Sep_23_1450,ProdSingRedoBetween,2021.2.3,59.94772559
,,,,0,0,0,0,,,,,,,,,,,,,,,,,,,,,,2018.106348,None,,,,,,,,,,,,,,,,,,taste,41,1,silent,old,blue,2008.421248,None,2008.421248,None,6,5.1198958,2008.421248,None,5.1198958,2013.579355,None,2014.089549,None,2014.089549,None,r,3.995416,2014.089549,None,3.995416,,,Sep23Silent1,55,2022_Sep_23_1450,ProdSingRedoBetween,2021.2.3,59.94772559
,,,,1,0,1,0,,,,,,,,,,,,,,,,,,,,,,2024.179652,None,,,,,,,,,,,,,,,,,,platform,146,2,silent,new,null,2018.611269,None,2018.611269,None,1,1.921756,2018.611269,None,1.921756,2020.55989,None,2021.05923,None,2021.05923,None,n,3.097807,2021.05923,None,3.097807,,,Sep23Silent1,55,2022_Sep_23_1450,ProdSingRedoBetween,2021.2.3,59.94772559
,,,,2,0,2,0,,,,,,,,,,,,,,,,,,,,,,2028.683528,None,,,,,,,,,,,,,,,,,,industry,175,3,silent,new,null,2024.682454,None,2024.682454,None,1,2.1385079,2024.682454,None,2.1385079,2026.849895,None,2027.348817,None,2027.348817,None,n,1.304218,2027.348817,None,1.304218,,,Sep23Silent1,55,2022_Sep_23_1450,ProdSingRedoBetween,2021.2.3,59.94772559
,,,,3,0,3,0,,,,,,,,,,,,,,,,,,,,,,2035.340138,None,,,,,,,,,,,,,,,,,,material,151,4,silent,new,null,2029.190472,None,2029.190472,None,6,2.5184372,2029.190472,None,2.5184372,2031.736642,None,2032.241391,None,2032.241391,None,r,3.0755918,2032.241391,None,3.0755918,,,Sep23Silent1,55,2022_Sep_23_1450,ProdSingRedoBetween,2021.2.3,59.94772559
,,,,4,0,4,0,,,,,,,,,,,,,,,,,,,,,,2043.13206,None,,,,,,,,,,,,,,,,,,character,57,5,silent,old,blue,2035.85013,None,2035.85013,None,6,4.9868512,2035.85013,None,4.9868512,2040.863948,None,2041.366323,None,2041.366323,None,f,1.73466,2041.366323,None,1.73466,,,Sep23Silent1,55,2022_Sep_23_1450,ProdSingRedoBetween,2021.2.3,59.94772559
,,,,5,0,5,0,,,,,,,,,,,,,,,,,,,,,,2046.501297,None,,,,,,,,,,,,,,,,,,budget,148,6,silent,new,null,2043.631895,None,2043.631895,None,1,1.8851044,2043.631895,None,1.8851044,2045.533753,None,2046.034381,None,2046.034381,None,n,0.4507453,2046.034381,None,0.4507453,,,Sep23Silent1,55,2022_Sep_23_1450,ProdSingRedoBetween,2021.2.3,59.94772559
,,,,6,0,6,0,,,,,,,,,,,,,,,,,,,,,,2051.058386,None,,,,,,,,,,,,,,,,,,conference,84,7,silent,old,red,2047.00334,None,2047.00334,None,6,2.0175683,2047.00334,None,2.0175683,2049.038799,None,2049.554478,None,2049.554478,None,f,1.4825156,2049.554478,None,1.4825156,,,Sep23Silent1,55,2022_Sep_23_1450,ProdSingRedoBetween,2021.2.3,59.94772559
,,,,7,0,7,0,,,,,,,,,,,,,,,,,,,,,,2055.778177,None,,,,,,,,,,,,,,,,,,welcome,17,8,silent,old,yellow,2051.579541,None,2051.579541,None,6,2.3374149,2051.579541,None,2.3374149,2053.946027,None,2054.463779,None,2054.463779,None,r,1.2851898,2054.463779,None,1.2851898,,,Sep23Silent1,55,2022_Sep_23_1450,ProdSingRedoBetween,2021.2.3,59.94772559
,,,,8,0,8,0,,,,,,,,,,,,,,,,,,,,,,2059.199379,None,,,,,,,,,,,,,,,,,,judge,115,9,silent,new,null,2056.279757,None,2056.279757,None,6,1.9412078,2056.279757,None,1.9412078,2058.249476,None,2058.76954,None,2058.76954,None,r,0.4034498,2058.76954,None,0.4034498,,,Sep23Silent1,55,2022_Sep_23_1450,ProdSingRedoBetween,2021.2.3,59.94772559
,,,,9,0,9,0,,,,,,,,,,,,,,,,,,,,,,2062.467223,None,,,,,,,,,,,,,,,,,,shear,58,10,silent,old,blue,2059.715606,None,2059.715606,None,1,1.5053354,2059.715606,None,1.5053354,2061.249435,None,2061.749992,None,2061.749992,None,n,0.6868852,2061.749992,None,0.6868852,,,Sep23Silent1,55,2022_Sep_23_1450,ProdSingRedoBetween,2021.2.3,59.94772559
,,,,10,0,10,0,,,,,,,,,,,,,,,,,,,,,,2066.571245,None,,,,,,,,,,,,,,,,,,travel,40,11,silent,old,blue,2062.976814,None,2062.976814,None,6,1.6920321,2062.976814,None,1.6920321,2064.688368,None,2065.209437,None,2065.209437,None,f,1.347367,2065.209437,None,1.347367,,,Sep23Silent1,55,2022_Sep_23_1450,ProdSingRedoBetween,2021.2.3,59.94772559
,,,,11,0,11,0,,,,,,,,,,,,,,,,,,,,,,2069.190513,None,,,,,,,,,,,,,,,,,,comedy,42,12,silent,old,blue,2067.072695,None,2067.072695,None,6,1.0681269,2067.072695,None,1.0681269,2068.158319,None,2068.673548,None,2068.673548,None,f,0.4913918,2068.673548,None,0.4913918,,,Sep23Silent1,55,2022_Sep_23_1450,ProdSingRedoBetween,2021.2.3,59.94772559
,,,,12,0,12,0,,,,,,,,,,,,,,,,,,,,,,2071.593002,None,,,,,,,,,,,,,,,,,,search,160,13,silent,new,null,2069.701825,None,2069.701825,None,6,0.9592367,2069.701825,None,0.9592367,2070.692777,None,2071.196142,None,2071.196142,None,f,0.3768771,2071.196142,None,0.3768771,,,Sep23Silent1,55,2022_Sep_23_1450,ProdSingRedoBetween,2021.2.3,59.94772559
,,,,13,0,13,0,,,,,,,,,,,,,,,,,,,,,,2074.012121,None,,,,,,,,,,,,,,,,,,tragedy,104,14,silent,new,null,2072.102628,None,2072.102628,None,6,0.9103245,2072.102628,None,0.9103245,2073.031079,None,2073.545023,None,2073.545023,None,f,0.4439562,2073.545023,None,0.4439562,,,Sep23Silent1,55,2022_Sep_23_1450,ProdSingRedoBetween,2021.2.3,59.94772559
,,,,14,0,14,0,,,,,,,,,,,,,,,,,,,,,,2076.180922,None,,,,,,,,,,,,,,,,,,symbol,47,15,silent,old,blue,2074.52089,None,2074.52089,None,6,0.7882618,2074.52089,None,0.7882618,2075.336559,None,2075.847701,None,2075.847701,None,f,0.3092023,2075.847701,None,0.3092023,,,Sep23Silent1,55,2022_Sep_23_1450,ProdSingRedoBetween,2021.2.3,59.94772559
,,,,15,0,15,0,,,,,,,,,,,,,,,,,,,,,,2079.651022,None,,,,,,,,,,,,,,,,,,dispute,36,16,silent,old,blue,2076.693954,None,2076.693954,None,6,0.8230491,2076.693954,None,0.8230491,2077.543033,None,2078.053167,None,2078.053167,None,r,1.5676826,2078.053167,None,1.5676826,,,Sep23Silent1,55,2022_Sep_23_1450,ProdSingRedoBetween,2021.2.3,59.94772559
,,,,16,0,16,0,,,,,,,,,,,,,,,,,,,,,,2082.637404,None,,,,,,,,,,,,,,,,,,tough,26,17,silent,old,yellow,2080.151708,None,2080.151708,None,6,1.5812002,2080.151708,None,1.5812002,2081.755114,None,2082.270485,None,2082.270485,None,r,0.3504352,2082.270485,None,0.3504352,,,Sep23Silent1,55,2022_Sep_23_1450,ProdSingRedoBetween,2021.2.3,59.94772559
,,,,17,0,17,0,,,,,,,,,,,,,,,,,,,,,,2085.173218,None,,,,,,,,,,,,,,,,,,instrument,45,18,silent,old,blue,2083.147975,None,2083.147975,None,6,1.0329343,2083.147975,None,1.0329343,2084.213349,None,2084.722971,None,2084.722971,None,r,0.4259295,2084.722971,None,0.4259295,,,Sep23Silent1,55,2022_Sep_23_1450,ProdSingRedoBetween,2021.2.3,59.94772559
,,,,18,0,18,0,,,,,,,,,,,,,,,,,,,,,,2087.508765,None,,,,,,,,,,,,,,,,,,medicine,8,19,silent,old,yellow,2085.675415,None,2085.675415,None,6,0.849471,2085.675415,None,0.849471,2086.544922,None,2087.064694,None,2087.064694,None,r,0.420216,2087.064694,None,0.420216,,,Sep23Silent1,55,2022_Sep_23_1450,ProdSingRedoBetween,2021.2.3,59.94772559
,,,,19,0,19,0,,,,,,,,,,,,,,,,,,,,,,2093.798504,None,,,,,,,,,,,,,,,,,,edition,116,20,silent,new,null,2088.014824,None,2088.014824,None,4,3.7820065,2088.014824,None,3.7820065,2091.812972,None,2092.313849,None,2092.313849,None,f,1.4590813,2092.313849,None,1.4590813,,,Sep23Silent1,55,2022_Sep_23_1450,ProdSingRedoBetween,2021.2.3,59.94772559
,,,,20,0,20,0,,,,,,,,,,,,,,,,,,,,,,2097.568867,None,,,,,,,,,,,,,,,,,,course,149,21,silent,new,null,2094.298983,None,2094.298983,None,4,2.2500088,2094.298983,None,2.2500088,2096.569179,None,2097.076293,None,2097.076293,None,f,0.4726138,2097.076293,None,0.4726138,,,Sep23Silent1,55,2022_Sep_23_1450,ProdSingRedoBetween,2021.2.3,59.94772559
,,,,21,0,21,0,,,,,,,,,,,,,,,,,,,,,,2101.189165,None,,,,,,,,,,,,,,,,,,military,165,22,silent,new,null,2098.072782,None,2098.072782,None,4,1.7882098,2098.072782,None,1.7882098,2099.90173,None,2100.407908,None,2100.407908,None,f,0.7649362,2100.407908,None,0.7649362,,,Sep23Silent1,55,2022_Sep_23_1450,ProdSingRedoBetween,2021.2.3,59.94772559
,,,,22,0,22,0,,,,,,,,,,,,,,,,,,,,,,2104.492526,None,,,,,,,,,,,,,,,,,,discovery,82,23,silent,old,red,2101.696073,None,2101.696073,None,6,1.6847349,2101.696073,None,1.6847349,2103.4102,None,2103.927859,None,2103.927859,None,r,0.5489827,2103.927859,None,0.5489827,,,Sep23Silent1,55,2022_Sep_23_1450,ProdSingRedoBetween,2021.2.3,59.94772559
,,,,23,0,23,0,,,,,,,,,,,,,,,,,,,,,,2108.229561,None,,,,,,,,,,,,,,,,,,machinery,46,24,silent,old,blue,2105.008041,None,2105.008041,None,5,2.060732,2105.008041,None,2.060732,2107.098123,None,2107.612451,None,2107.612451,None,f,0.6003783,2107.612451,None,0.6003783,,,Sep23Silent1,55,2022_Sep_23_1450,ProdSingRedoBetween,2021.2.3,59.94772559
,,,,24,0,24,0,,,,,,,,,,,,,,,,,,,,,,2112.417254,None,,,,,,,,,,,,,,,,,,pretty,127,25,silent,new,null,2108.739927,None,2108.739927,None,1,1.9528985,2108.739927,None,1.9528985,2110.716697,None,2111.222768,None,2111.222768,None,n,1.1661021,2111.222768,None,1.1661021,,,Sep23Silent1,55,2022_Sep_23_1450,ProdSingRedoBetween,2021.2.3,59.94772559
,,,,25,0,25,0,,,,,,,,,,,,,,,,,,,,,,2117.622333,None,,,,,,,,,,,,,,,,,,vision,60,26,silent,old,red,2112.924004,None,2112.924004,None,6,2.8568006,2112.924004,None,2.8568006,2115.805022,None,2116.304372,None,2116.304372,None,f,1.300486,2116.304372,None,1.300486,,,Sep23Silent1,55,2022_Sep_23_1450,ProdSingRedoBetween,2021.2.3,59.94772559
,,,,26,0,26,0,,,,,,,,,,,,,,,,,,,,,,2120.608585,None,,,,,,,,,,,,,,,,,,science,73,27,silent,old,red,2118.132076,None,2118.132076,None,6,1.5130817,2118.132076,None,1.5130817,2119.68235,None,2120.195124,None,2120.195124,None,f,0.3857002,2120.195124,None,0.3857002,,,Sep23Silent1,55,2022_Sep_23_1450,ProdSingRedoBetween,2021.2.3,59.94772559
,,,,27,0,27,0,,,,,,,,,,,,,,,,,,,,,,2123.111072,None,,,,,,,,,,,,,,,,,,education,102,28,silent,new,null,2121.116352,None,2121.116352,None,6,1.1445408,2121.116352,None,1.1445408,2122.276987,None,2122.781203,None,2122.781203,None,f,0.3035844,2122.781203,None,0.3035844,,,Sep23Silent1,55,2022_Sep_23_1450,ProdSingRedoBetween,2021.2.3,59.94772559
,,,,28,0,28,0,,,,,,,,,,,,,,,,,,,,,,2126.931651,None,,,,,,,,,,,,,,,,,,testimony,141,29,silent,new,null,2123.624179,None,2123.624179,None,1,1.7566606,2123.624179,None,1.7566606,2125.402502,None,2125.915823,None,2125.915823,None,f,0.9850268,2125.915823,None,0.9850268,,,Sep23Silent1,55,2022_Sep_23_1450,ProdSingRedoBetween,2021.2.3,59.94772559
,,,,29,0,29,0,,,,,,,,,,,,,,,,,,,,,,2129.534154,None,,,,,,,,,,,,,,,,,,poetry,159,30,silent,new,null,2127.432041,None,2127.432041,None,5,1.2447115,2127.432041,None,1.2447115,2128.699813,None,2129.204924,None,2129.204924,None,f,0.3119011,2129.204924,None,0.3119011,,,Sep23Silent1,55,2022_Sep_23_1450,ProdSingRedoBetween,2021.2.3,59.94772559
,,,,30,0,30,0,,,,,,,,,,,,,,,,,,,,,,2132.570542,None,,,,,,,,,,,,,,,,,,reading,168,31,silent,new,null,2130.047058,None,2130.047058,None,2,1.5097854,2130.047058,None,1.5097854,2131.586832,None,2132.089101,None,2132.089101,None,n,0.4517453,2132.089101,None,0.4517453,,,Sep23Silent1,55,2022_Sep_23_1450,ProdSingRedoBetween,2021.2.3,59.94772559
,,,,31,0,31,0,,,,,,,,,,,,,,,,,,,,,,2135.573482,None,,,,,,,,,,,,,,,,,,substance,163,32,silent,new,null,2133.072821,None,2133.072821,None,3,1.4600018,2133.072821,None,1.4600018,2134.557954,None,2135.077362,None,2135.077362,None,n,0.471611,2135.077362,None,0.471611,,,Sep23Silent1,55,2022_Sep_23_1450,ProdSingRedoBetween,2021.2.3,59.94772559
,,,,32,0,32,0,,,,,,,,,,,,,,,,,,,,,,2138.326189,None,,,,,,,,,,,,,,,,,,crisis,80,33,silent,old,red,2136.083104,None,2136.083104,None,6,1.3937836,2136.083104,None,1.3937836,2137.498145,None,2138.00934,None,2138.00934,None,r,0.2994635,2138.00934,None,0.2994635,,,Sep23Silent1,55,2022_Sep_23_1450,ProdSingRedoBetween,2021.2.3,59.94772559
,,,,33,0,33,0,,,,,,,,,,,,,,,,,,,,,,2140.72861,None,,,,,,,,,,,,,,,,,,pressure,113,34,silent,new,null,2138.837713,None,2138.837713,None,6,1.0230333,2138.837713,None,1.0230333,2139.879358,None,2140.384225,None,2140.384225,None,r,0.3246152,2140.384225,None,0.3246152,,,Sep23Silent1,55,2022_Sep_23_1450,ProdSingRedoBetween,2021.2.3,59.94772559
,,,,34,0,34,0,,,,,,,,,,,,,,,,,,,,,,2142.683796,None,,,,,,,,,,,,,,,,,,period,21,35,silent,old,yellow,2141.22919,None,2141.22919,None,6,0.5595924,2141.22919,None,0.5595924,2141.813575,None,2142.313783,None,2142.313783,None,r,0.3390712,2142.313783,None,0.3390712,,,Sep23Silent1,55,2022_Sep_23_1450,ProdSingRedoBetween,2021.2.3,59.94772559
,,,,35,0,35,0,,,,,,,,,,,,,,,,,,,,,,2144.751297,None,,,,,,,,,,,,,,,,,,strength,119,36,silent,new,null,2143.203238,None,2143.203238,None,6,0.7056068,2143.203238,None,0.7056068,2143.936843,None,2144.449105,None,2144.449105,None,r,0.2757029,2144.449105,None,0.2757029,,,Sep23Silent1,55,2022_Sep_23_1450,ProdSingRedoBetween,2021.2.3,59.94772559
,,,,36,0,36,0,,,,,,,,,,,,,,,,,,,,,,2146.601138,None,,,,,,,,,,,,,,,,,,music,29,37,silent,old,blue,2145.275917,None,2145.275917,None,6,0.5689158,2145.275917,None,0.5689158,2145.875142,None,2146.384494,None,2146.384494,None,r,0.1963143,2146.384494,None,0.1963143,,,Sep23Silent1,55,2022_Sep_23_1450,ProdSingRedoBetween,2021.2.3,59.94772559
,,,,37,0,37,0,,,,,,,,,,,,,,,,,,,,,,2148.921517,None,,,,,,,,,,,,,,,,,,debate,70,38,silent,old,red,2147.117531,None,2147.117531,None,6,0.6873208,2147.117531,None,0.6873208,2147.841047,None,2148.353044,None,2148.353044,None,r,0.5478495,2148.353044,None,0.5478495,,,Sep23Silent1,55,2022_Sep_23_1450,ProdSingRedoBetween,2021.2.3,59.94772559
,,,,38,0,38,0,,,,,,,,,,,,,,,,,,,,,,2150.971936,None,,,,,,,,,,,,,,,,,,silence,150,39,silent,new,null,2149.425235,None,2149.425235,None,6,0.7076001,2149.425235,None,0.7076001,2150.161681,None,2150.675754,None,2150.675754,None,r,0.2731144,2150.675754,None,0.2731144,,,Sep23Silent1,55,2022_Sep_23_1450,ProdSingRedoBetween,2021.2.3,59.94772559
,,,,39,0,39,0,,,,,,,,,,,,,,,,,,,,,,2153.891803,None,,,,,,,,,,,,,,,,,,weather,49,40,silent,old,blue,2151.483398,None,2151.483398,None,1,1.4413502,2151.483398,None,1.4413502,2152.94745,None,2153.462591,None,2153.462591,None,n,0.3982001,2153.462591,None,0.3982001,,,Sep23Silent1,55,2022_Sep_23_1450,ProdSingRedoBetween,2021.2.3,59.94772559
,,,,40,0,40,0,,,,,,,,,,,,,,,,,,,,,,2156.44435,None,,,,,,,,,,,,,,,,,,dream,96,41,silent,new,null,2154.395054,None,2154.395054,None,1,1.1696183,2154.395054,None,1.1696183,2155.593891,None,2156.093931,None,2156.093931,None,n,0.3348343,2156.093931,None,0.3348343,,,Sep23Silent1,55,2022_Sep_23_1450,ProdSingRedoBetween,2021.2.3,59.94772559
,,,,41,0,41,0,,,,,,,,,,,,,,,,,,,,,,2159.413976,None,,,,,,,,,,,,,,,,,,touch,153,42,silent,new,null,2156.95929,None,2156.95929,None,5,1.5093826,2156.95929,None,1.5093826,2158.503873,None,2159.013389,None,2159.013389,None,f,0.3833445,2159.013389,None,0.3833445,,,Sep23Silent1,55,2022_Sep_23_1450,ProdSingRedoBetween,2021.2.3,59.94772559
,,,,42,0,42,0,,,,,,,,,,,,,,,,,,,,,,2162.133073,None,,,,,,,,,,,,,,,,,,season,178,43,silent,new,null,2159.914515,None,2159.914515,None,1,1.1464084,2159.914515,None,1.1464084,2161.082575,None,2161.582834,None,2161.582834,None,n,0.5259552,2161.582834,None,0.5259552,,,Sep23Silent1,55,2022_Sep_23_1450,ProdSingRedoBetween,2021.2.3,59.94772559
,,,,43,0,43,0,,,,,,,,,,,,,,,,,,,,,,2165.303132,None,,,,,,,,,,,,,,,,,,angle,59,44,silent,old,yellow,2162.63399,None,2162.63399,None,6,1.1948139,2162.63399,None,1.1948139,2163.853712,None,2164.368789,None,2164.368789,None,r,0.9079708,2164.368789,None,0.9079708,,,Sep23Silent1,55,2022_Sep_23_1450,ProdSingRedoBetween,2021.2.3,59.94772559
,,,,44,0,44,0,,,,,,,,,,,,,,,,,,,,,,2168.055975,None,,,,,,,,,,,,,,,,,,minor,132,45,silent,new,null,2165.806876,None,2165.806876,None,6,1.2698351,2165.806876,None,1.2698351,2167.104995,None,2167.609525,None,2167.609525,None,r,0.4275242,2167.609525,None,0.4275242,,,Sep23Silent1,55,2022_Sep_23_1450,ProdSingRedoBetween,2021.2.3,59.94772559
,,,,45,0,45,0,,,,,,,,,,,,,,,,,,,,,,2171.176841,None,,,,,,,,,,,,,,,,,,income,22,46,silent,old,yellow,2168.55803,None,2168.55803,None,1,1.5747402,2168.55803,None,1.5747402,2170.16258,None,2170.675283,None,2170.675283,None,n,0.4815839,2170.675283,None,0.4815839,,,Sep23Silent1,55,2022_Sep_23_1450,ProdSingRedoBetween,2021.2.3,59.94772559
,,,,46,0,46,0,,,,,,,,,,,,,,,,,,,,,,2173.848061,None,,,,,,,,,,,,,,,,,,comfort,172,47,silent,new,null,2171.684233,None,2171.684233,None,6,1.3444901,2171.684233,None,1.3444901,2173.046703,None,2173.56596,None,2173.56596,None,f,0.2548681,2173.56596,None,0.2548681,,,Sep23Silent1,55,2022_Sep_23_1450,ProdSingRedoBetween,2021.2.3,59.94772559
,,,,47,0,47,0,,,,,,,,,,,,,,,,,,,,,,2175.847002,None,,,,,,,,,,,,,,,,,,mechanical,86,48,silent,old,red,2174.370877,None,2174.370877,None,6,0.6898187,2174.370877,None,0.6898187,2175.080688,None,2175.582012,None,2175.582012,None,f,0.2466442,2175.582012,None,0.2466442,,,Sep23Silent1,55,2022_Sep_23_1450,ProdSingRedoBetween,2021.2.3,59.94772559
,,,,48,0,48,0,,,,,,,,,,,,,,,,,,,,,,2177.832252,None,,,,,,,,,,,,,,,,,,display,137,49,silent,new,null,2176.354989,None,2176.354989,None,6,0.6657064,2176.354989,None,0.6657064,2177.04911,None,2177.554665,None,2177.554665,None,f,0.2580461,2177.554665,None,0.2580461,,,Sep23Silent1,55,2022_Sep_23_1450,ProdSingRedoBetween,2021.2.3,59.94772559
,,,,49,0,49,0,,,,,,,,,,,,,,,,,,,,,,2180.034431,None,,,,,,,,,,,,,,,,,,majority,117,50,silent,new,null,2178.341561,None,2178.341561,None,6,0.8232133,2178.341561,None,0.8232133,2179.185689,None,2179.703128,None,2179.703128,None,f,0.3016381,2179.703128,None,0.3016381,,,Sep23Silent1,55,2022_Sep_23_1450,ProdSingRedoBetween,2021.2.3,59.94772559
,,,,50,0,50,0,,,,,,,,,,,,,,,,,,,,,,2182.086316,None,,,,,,,,,,,,,,,,,,principal,107,51,silent,new,null,2180.536833,None,2180.536833,None,6,0.7318855,2180.536833,None,0.7318855,2181.289216,None,2181.804671,None,2181.804671,None,f,0.2640914,2181.804671,None,0.2640914,,,Sep23Silent1,55,2022_Sep_23_1450,ProdSingRedoBetween,2021.2.3,59.94772559
,,,,51,0,51,0,,,,,,,,,,,,,,,,,,,,,,2184.191812,None,,,,,,,,,,,,,,,,,,incident,27,52,silent,old,yellow,2182.590024,None,2182.590024,None,6,0.7348381,2182.590024,None,0.7348381,2183.358798,None,2183.876585,None,2183.876585,None,f,0.2882243,2183.876585,None,0.2882243,,,Sep23Silent1,55,2022_Sep_23_1450,ProdSingRedoBetween,2021.2.3,59.94772559
,,,,52,0,52,0,,,,,,,,,,,,,,,,,,,,,,2186.824598,None,,,,,,,,,,,,,,,,,,series,131,53,silent,new,null,2184.71191,None,2184.71191,None,4,1.2127757,2184.71191,None,1.2127757,2185.945741,None,2186.457489,None,2186.457489,None,f,0.347148,2186.457489,None,0.347148,,,Sep23Silent1,55,2022_Sep_23_1450,ProdSingRedoBetween,2021.2.3,59.94772559
,,,,53,0,53,0,,,,,,,,,,,,,,,,,,,,,,2190.211309,None,,,,,,,,,,,,,,,,,,alert,154,54,silent,new,null,2187.325343,None,2187.325343,None,6,1.9832472,2187.325343,None,1.9832472,2189.326873,None,2189.827767,None,2189.827767,None,f,0.3609615,2189.827767,None,0.3609615,,,Sep23Silent1,55,2022_Sep_23_1450,ProdSingRedoBetween,2021.2.3,59.94772559
,,,,54,0,54,0,,,,,,,,,,,,,,,,,,,,,,2192.80058,None,,,,,,,,,,,,,,,,,,plane,103,55,silent,new,null,2190.721557,None,2190.721557,None,1,1.267125,2190.721557,None,1.267125,2192.014738,None,2192.534562,None,2192.534562,None,n,0.2382912,2192.534562,None,0.2382912,,,Sep23Silent1,55,2022_Sep_23_1450,ProdSingRedoBetween,2021.2.3,59.94772559
,,,,55,0,55,0,,,,,,,,,,,,,,,,,,,,,,2195.633377,None,,,,,,,,,,,,,,,,,,meeting,89,56,silent,old,red,2193.324281,None,2193.324281,None,1,1.2484473,2193.324281,None,1.2484473,2194.599998,None,2195.101377,None,2195.101377,None,n,0.5033451,2195.101377,None,0.5033451,,,Sep23Silent1,55,2022_Sep_23_1450,ProdSingRedoBetween,2021.2.3,59.94772559
,,,,56,0,56,0,,,,,,,,,,,,,,,,,,,,,,2198.235931,None,,,,,,,,,,,,,,,,,,month,6,57,silent,old,yellow,2196.13999,None,2196.13999,None,1,1.2328034,2196.13999,None,1.2328034,2197.402433,None,2197.906341,None,2197.906341,None,n,0.3143455,2197.906341,None,0.3143455,,,Sep23Silent1,55,2022_Sep_23_1450,ProdSingRedoBetween,2021.2.3,59.94772559
,,,,57,0,57,0,,,,,,,,,,,,,,,,,,,,,,2200.855244,None,,,,,,,,,,,,,,,,,,orchestra,118,58,silent,new,null,2198.743771,None,2198.743771,None,1,1.2128402,2198.743771,None,1.2128402,2199.989531,None,2200.50508,None,2200.50508,None,n,0.3316496,2200.50508,None,0.3316496,,,Sep23Silent1,55,2022_Sep_23_1450,ProdSingRedoBetween,2021.2.3,59.94772559
,,,,58,0,58,0,,,,,,,,,,,,,,,,,,,,,,2203.5079,None,,,,,,,,,,,,,,,,,,trash,78,59,silent,old,red,2201.359119,None,2201.359119,None,6,1.2216077,2201.359119,None,1.2216077,2202.61263,None,2203.127001,None,2203.127001,None,f,0.3577254,2203.127001,None,0.3577254,,,Sep23Silent1,55,2022_Sep_23_1450,ProdSingRedoBetween,2021.2.3,59.94772559
,,,,59,0,59,0,,,,,,,,,,,,,,,,,,,,,,2206.427361,None,,,,,,,,,,,,,,,,,,commercial,13,60,silent,old,yellow,2204.009777,None,2204.009777,None,6,1.1949743,2204.009777,None,1.1949743,2205.23265,None,2205.74355,None,2205.74355,None,f,0.6610478,2205.74355,None,0.6610478,,,Sep23Silent1,55,2022_Sep_23_1450,ProdSingRedoBetween,2021.2.3,59.94772559
,,,,60,0,60,0,,,,,,,,,,,,,,,,,,,,,,2208.29598,None,,,,,,,,,,,,,,,,,,territory,93,61,silent,new,null,2206.948954,None,2206.948954,None,6,0.6796857,2206.948954,None,0.6796857,2207.645389,None,2208.149944,None,2208.149944,None,f,0.1186739,2208.149944,None,0.1186739,,,Sep23Silent1,55,2022_Sep_23_1450,ProdSingRedoBetween,2021.2.3,59.94772559
,,,,61,0,61,0,,,,,,,,,,,,,,,,,,,,,,2209.914271,None,,,,,,,,,,,,,,,,,,drink,157,62,silent,new,null,2208.799917,None,2208.799917,None,6,0.5167995,2208.799917,None,0.5167995,2209.347881,None,2209.852398,None,2209.852398,None,f,0.0403105,2209.852398,None,0.0403105,,,Sep23Silent1,55,2022_Sep_23_1450,ProdSingRedoBetween,2021.2.3,59.94772559
,,,,62,0,62,0,,,,,,,,,,,,,,,,,,,,,,2211.715868,None,,,,,,,,,,,,,,,,,,crime,94,63,silent,new,null,2210.416324,None,2210.416324,None,6,0.7323277,2210.416324,None,0.7323277,2211.166546,None,2211.668507,None,2211.668507,None,f,0.024167,2211.668507,None,0.024167,,,Sep23Silent1,55,2022_Sep_23_1450,ProdSingRedoBetween,2021.2.3,59.94772559
,,,,63,0,63,0,,,,,,,,,,,,,,,,,,,,,,2214.085168,None,,,,,,,,,,,,,,,,,,guard,162,64,silent,new,null,2212.221125,None,2212.221125,None,1,1.1355009,2212.221125,None,1.1355009,2213.384453,None,2213.889591,None,2213.889591,None,n,0.1710699,2213.889591,None,0.1710699,,,Sep23Silent1,55,2022_Sep_23_1450,ProdSingRedoBetween,2021.2.3,59.94772559
,,,,64,0,64,0,,,,,,,,,,,,,,,,,,,,,,2216.641109,None,,,,,,,,,,,,,,,,,,opening,105,65,silent,new,null,2214.588756,None,2214.588756,None,1,1.1279658,2214.588756,None,1.1279658,2215.74181,None,2216.260768,None,2216.260768,None,n,0.3599638,2216.260768,None,0.3599638,,,Sep23Silent1,55,2022_Sep_23_1450,ProdSingRedoBetween,2021.2.3,59.94772559
,,,,65,0,65,0,,,,,,,,,,,,,,,,,,,,,,2219.423569,None,,,,,,,,,,,,,,,,,,cousin,7,66,silent,old,yellow,2217.15684,None,2217.15684,None,2,1.3757243,2217.15684,None,1.3757243,2218.561646,None,2219.073307,None,2219.073307,None,n,0.3234124,2219.073307,None,0.3234124,,,Sep23Silent1,55,2022_Sep_23_1450,ProdSingRedoBetween,2021.2.3,59.94772559
,,,,66,0,66,0,,,,,,,,,,,,,,,,,,,,,,2222.910633,None,,,,,,,,,,,,,,,,,,order,138,67,silent,new,null,2219.927291,None,2219.927291,None,5,2.1173046,2219.927291,None,2.1173046,2222.05976,None,2222.562983,None,2222.562983,None,f,0.3216146,2222.562983,None,0.3216146,,,Sep23Silent1,55,2022_Sep_23_1450,ProdSingRedoBetween,2021.2.3,59.94772559
,,,,67,0,67,0,,,,,,,,,,,,,,,,,,,,,,2225.914594,None,,,,,,,,,,,,,,,,,,brilliant,171,68,silent,new,null,2223.417782,None,2223.417782,None,5,1.6347888,2223.417782,None,1.6347888,2225.080055,None,2225.585847,None,2225.585847,None,r,0.3067952,2225.585847,None,0.3067952,,,Sep23Silent1,55,2022_Sep_23_1450,ProdSingRedoBetween,2021.2.3,59.94772559
,,,,68,0,68,0,,,,,,,,,,,,,,,,,,,,,,2228.549564,None,,,,,,,,,,,,,,,,,,member,91,69,silent,new,null,2226.424797,None,2226.424797,None,5,1.0918907,2226.424797,None,1.0918907,2227.531661,None,2228.034859,None,2228.034859,None,f,0.4977286,2228.034859,None,0.4977286,,,Sep23Silent1,55,2022_Sep_23_1450,ProdSingRedoBetween,2021.2.3,59.94772559
,,,,69,0,69,0,,,,,,,,,,,,,,,,,,,,,,2230.834959,None,,,,,,,,,,,,,,,,,,degree,28,70,silent,old,yellow,2229.057811,None,2229.057811,None,4,0.9948684,2229.057811,None,0.9948684,2230.071531,None,2230.587903,None,2230.587903,None,n,0.2167837,2230.587903,None,0.2167837,,,Sep23Silent1,55,2022_Sep_23_1450,ProdSingRedoBetween,2021.2.3,59.94772559
,,,,70,0,70,0,,,,,,,,,,,,,,,,,,,,,,2232.903632,None,,,,,,,,,,,,,,,,,,leader,155,71,silent,new,null,2231.338463,None,2231.338463,None,4,0.6742436,2231.338463,None,0.6742436,2232.044313,None,2232.556786,None,2232.556786,None,n,0.3279383,2232.556786,None,0.3279383,,,Sep23Silent1,55,2022_Sep_23_1450,ProdSingRedoBetween,2021.2.3,59.94772559
,,,,71,0,71,0,,,,,,,,,,,,,,,,,,,,,,2235.789951,None,,,,,,,,,,,,,,,,,,universal,123,72,silent,new,null,2233.415991,None,2233.415991,None,1,1.4926402,2233.415991,None,1.4926402,2234.940164,None,2235.439971,None,2235.439971,None,n,0.3245939,2235.439971,None,0.3245939,,,Sep23Silent1,55,2022_Sep_23_1450,ProdSingRedoBetween,2021.2.3,59.94772559
,,,,72,0,72,0,,,,,,,,,,,,,,,,,,,,,,2240.127893,None,,,,,,,,,,,,,,,,,,sound,129,73,silent,new,null,2236.305007,None,2236.305007,None,1,0.9157013,2236.305007,None,0.9157013,2237.242939,None,2237.742145,None,2237.742145,None,r,2.366691,2237.742145,None,2.366691,,,Sep23Silent1,55,2022_Sep_23_1450,ProdSingRedoBetween,2021.2.3,59.94772559
,,,,73,0,73,0,,,,,,,,,,,,,,,,,,,,,,2242.78557,None,,,,,,,,,,,,,,,,,,household,81,74,silent,old,red,2240.631695,None,2240.631695,None,4,1.4529776,2240.631695,None,1.4529776,2242.114715,None,2242.63604,None,2242.63604,None,n,0.1288495,2242.63604,None,0.1288495,,,Sep23Silent1,55,2022_Sep_23_1450,ProdSingRedoBetween,2021.2.3,59.94772559
,,,,74,0,74,0,,,,,,,,,,,,,,,,,,,,,,2244.81576,None,,,,,,,,,,,,,,,,,,company,34,75,silent,old,blue,2243.300301,None,2243.300301,None,4,0.5923821,2243.300301,None,0.5923821,2243.91965,None,2244.432261,None,2244.432261,None,n,0.3643866,2244.432261,None,0.3643866,,,Sep23Silent1,55,2022_Sep_23_1450,ProdSingRedoBetween,2021.2.3,59.94772559
,,,,75,0,75,0,,,,,,,,,,,,,,,,,,,,,,2246.450845,None,,,,,,,,,,,,,,,,,,scale,56,76,silent,old,blue,2245.318717,None,2245.318717,None,4,0.5338862,2245.318717,None,0.5338862,2245.886994,None,2246.400864,None,2246.400864,None,n,0.0278352,2246.400864,None,0.0278352,,,Sep23Silent1,55,2022_Sep_23_1450,ProdSingRedoBetween,2021.2.3,59.94772559
,,,,76,0,76,0,,,,,,,,,,,,,,,,,,,,,,2249.205942,None,,,,,,,,,,,,,,,,,,skill,44,77,silent,old,blue,2246.955648,None,2246.955648,None,6,1.4808611,2246.955648,None,1.4808611,2248.462371,None,2248.973788,None,2248.973788,None,r,0.1988534,2248.973788,None,0.1988534,,,Sep23Silent1,55,2022_Sep_23_1450,ProdSingRedoBetween,2021.2.3,59.94772559
,,,,77,0,77,0,,,,,,,,,,,,,,,,,,,,,,2252.089849,None,,,,,,,,,,,,,,,,,,captain,11,78,silent,old,yellow,2249.722013,None,2249.722013,None,6,1.6267097,2249.722013,None,1.6267097,2251.380957,None,2251.897616,None,2251.897616,None,r,0.1709552,2251.897616,None,0.1709552,,,Sep23Silent1,55,2022_Sep_23_1450,ProdSingRedoBetween,2021.2.3,59.94772559
,,,,78,0,78,0,,,,,,,,,,,,,,,,,,,,,,2254.758825,None,,,,,,,,,,,,,,,,,,history,18,79,silent,old,yellow,2252.590284,None,2252.590284,None,6,1.1423225,2252.590284,None,1.1423225,2253.760152,None,2254.275285,None,2254.275285,None,r,0.4573493,2254.275285,None,0.4573493,,,Sep23Silent1,55,2022_Sep_23_1450,ProdSingRedoBetween,2021.2.3,59.94772559
,,,,79,0,79,0,,,,,,,,,,,,,,,,,,,,,,2258.345922,None,,,,,,,,,,,,,,,,,,agency,69,80,silent,old,red,2255.262675,None,2255.262675,None,6,2.0059104,2255.262675,None,2.0059104,2257.295545,None,2257.796722,None,2257.796722,None,r,0.5198544,2257.796722,None,0.5198544,,,Sep23Silent1,55,2022_Sep_23_1450,ProdSingRedoBetween,2021.2.3,59.94772559
,,,,80,0,80,0,,,,,,,,,,,,,,,,,,,,,,2261.215419,None,,,,,,,,,,,,,,,,,,block,134,81,silent,new,null,2258.850123,None,2258.850123,None,1,1.4985002,2258.850123,None,1.4985002,2260.376966,None,2260.881722,None,2260.881722,None,n,0.306801,2260.881722,None,0.306801,,,Sep23Silent1,55,2022_Sep_23_1450,ProdSingRedoBetween,2021.2.3,59.94772559
,,,,81,0,81,0,,,,,,,,,,,,,,,,,,,,,,2263.117318,None,,,,,,,,,,,,,,,,,,growth,54,82,silent,old,blue,2261.72411,None,2261.72411,None,1,0.5924307,2261.72411,None,0.5924307,2262.334399,None,2262.833833,None,2262.833833,None,n,0.2587994,2262.833833,None,0.2587994,,,Sep23Silent1,55,2022_Sep_23_1450,ProdSingRedoBetween,2021.2.3,59.94772559
,,,,82,0,82,0,,,,,,,,,,,,,,,,,,,,,,2265.271554,None,,,,,,,,,,,,,,,,,,present,145,83,silent,new,null,2263.621105,None,2263.621105,None,2,0.8075182,2263.621105,None,0.8075182,2264.45873,None,2264.98151,None,2264.98151,None,n,0.2631381,2264.98151,None,0.2631381,,,Sep23Silent1,55,2022_Sep_23_1450,ProdSingRedoBetween,2021.2.3,59.94772559
,,,,83,0,83,0,,,,,,,,,,,,,,,,,,,,,,2270.02425,None,,,,,,,,,,,,,,,,,,drama,14,84,silent,old,yellow,2265.791663,None,2265.791663,None,6,1.8850746,2265.791663,None,1.8850746,2267.705385,None,2268.205759,None,2268.205759,None,f,1.79881,2268.205759,None,1.79881,,,Sep23Silent1,55,2022_Sep_23_1450,ProdSingRedoBetween,2021.2.3,59.94772559
,,,,84,0,84,0,,,,,,,,,,,,,,,,,,,,,,2272.52679,None,,,,,,,,,,,,,,,,,,balance,142,85,silent,new,null,2270.531838,None,2270.531838,None,4,1.3927673,2270.531838,None,1.3927673,2271.942763,None,2272.443435,None,2272.443435,None,f,0.065175,2272.443435,None,0.065175,,,Sep23Silent1,55,2022_Sep_23_1450,ProdSingRedoBetween,2021.2.3,59.94772559
,,,,85,0,85,0,,,,,,,,,,,,,,,,,,,,,,2274.597355,None,,,,,,,,,,,,,,,,,,light,169,86,silent,new,null,2273.028916,None,2273.028916,None,1,0.9918747,2273.028916,None,0.9918747,2274.053472,None,2274.562268,None,2274.562268,None,n,0.0103138,2274.562268,None,0.0103138,,,Sep23Silent1,55,2022_Sep_23_1450,ProdSingRedoBetween,2021.2.3,59.94772559
,,,,86,0,86,0,,,,,,,,,,,,,,,,,,,,,,2276.313842,None,,,,,,,,,,,,,,,,,,level,77,87,silent,old,red,2275.117146,None,2275.117146,None,1,0.5834279,2275.117146,None,0.5834279,2275.730901,None,2276.23371,None,2276.23371,None,n,0.0588552,2276.23371,None,0.0588552,,,Sep23Silent1,55,2022_Sep_23_1450,ProdSingRedoBetween,2021.2.3,59.94772559
,,,,87,0,87,0,,,,,,,,,,,,,,,,,,,,,,2278.482848,None,,,,,,,,,,,,,,,,,,worker,167,88,silent,new,null,2276.826262,None,2276.826262,None,2,1.0981441,2276.826262,None,1.0981441,2277.956075,None,2278.466002,None,2278.466002,None,n,0.0024621,2278.466002,None,0.0024621,,,Sep23Silent1,55,2022_Sep_23_1450,ProdSingRedoBetween,2021.2.3,59.94772559
,,,,88,0,88,0,,,,,,,,,,,,,,,,,,,,,,2280.217726,None,,,,,,,,,,,,,,,,,,break,161,89,silent,new,null,2278.983131,None,2278.983131,None,3,0.6534125,2278.983131,None,0.6534125,2279.67164,None,2280.184535,None,2280.184535,None,n,0.0038947,2280.184535,None,0.0038947,,,Sep23Silent1,55,2022_Sep_23_1450,ProdSingRedoBetween,2021.2.3,59.94772559
,,,,89,0,89,0,,,,,,,,,,,,,,,,,,,,,,2282.44002,None,,,,,,,,,,,,,,,,,,sunset,24,90,silent,old,yellow,2280.724277,None,2280.724277,None,4,0.8002333,2280.724277,None,0.8002333,2281.554315,None,2282.075523,None,2282.075523,None,f,0.3449193,2282.075523,None,0.3449193,,,Sep23Silent1,55,2022_Sep_23_1450,ProdSingRedoBetween,2021.2.3,59.94772559
,,,,90,0,90,0,,,,,,,,,,,,,,,,,,,,,,2284.538643,None,,,,,,,,,,,,,,,,,,grade,92,91,silent,new,null,2282.953975,None,2282.953975,None,5,0.9945021,2282.953975,None,0.9945021,2283.974722,None,2284.488769,None,2284.488769,None,f,0.0199396,2284.488769,None,0.0199396,,,Sep23Silent1,55,2022_Sep_23_1450,ProdSingRedoBetween,2021.2.3,59.94772559
,,,,91,0,91,0,,,,,,,,,,,,,,,,,,,,,,2286.590781,None,,,,,,,,,,,,,,,,,,strain,63,92,silent,old,red,2285.059235,None,2285.059235,None,6,0.8173539,2285.059235,None,0.8173539,2285.908796,None,2286.423839,None,2286.423839,None,f,0.14077,2286.423839,None,0.14077,,,Sep23Silent1,55,2022_Sep_23_1450,ProdSingRedoBetween,2021.2.3,59.94772559
,,,,92,0,92,0,,,,,,,,,,,,,,,,,,,,,,2289.627167,None,,,,,,,,,,,,,,,,,,question,67,93,silent,old,red,2287.099944,None,2287.099944,None,1,1.2566115,2287.099944,None,1.2566115,2288.379188,None,2288.893162,None,2288.893162,None,n,0.7033798,2288.893162,None,0.7033798,,,Sep23Silent1,55,2022_Sep_23_1450,ProdSingRedoBetween,2021.2.3,59.94772559
,,,,93,0,93,0,,,,,,,,,,,,,,,,,,,,,,2291.395605,None,,,,,,,,,,,,,,,,,,accident,20,94,silent,old,yellow,2290.142661,None,2290.142661,None,2,0.5659161,2290.142661,None,0.5659161,2290.72832,None,2291.233439,None,2291.233439,None,n,0.1389936,2291.233439,None,0.1389936,,,Sep23Silent1,55,2022_Sep_23_1450,ProdSingRedoBetween,2021.2.3,59.94772559
,,,,94,0,94,0,,,,,,,,,,,,,,,,,,,,,,2293.363867,None,,,,,,,,,,,,,,,,,,broke,174,95,silent,new,null,2291.904072,None,2291.904072,None,3,0.7324697,2291.904072,None,0.7324697,2292.668127,None,2293.184327,None,2293.184327,None,f,0.1562079,2293.184327,None,0.1562079,,,Sep23Silent1,55,2022_Sep_23_1450,ProdSingRedoBetween,2021.2.3,59.94772559
,,,,95,0,95,0,,,,,,,,,,,,,,,,,,,,,,2295.315956,None,,,,,,,,,,,,,,,,,,clear,16,96,silent,old,yellow,2293.874739,None,2293.874739,None,4,0.7857932,2293.874739,None,0.7857932,2294.683944,None,2295.200803,None,2295.200803,None,f,0.0998041,2295.200803,None,0.0998041,,,Sep23Silent1,55,2022_Sep_23_1450,ProdSingRedoBetween,2021.2.3,59.94772559
,,,,96,0,96,0,,,,,,,,,,,,,,,,,,,,,,2298.037887,None,,,,,,,,,,,,,,,,,,heavy,38,97,silent,old,blue,2295.820164,None,2295.820164,None,5,0.8084041,2295.820164,None,0.8084041,2296.654946,None,2297.175217,None,2297.175217,None,f,0.8293499,2297.175217,None,0.8293499,,,Sep23Silent1,55,2022_Sep_23_1450,ProdSingRedoBetween,2021.2.3,59.94772559
,,,,97,0,97,0,,,,,,,,,,,,,,,,,,,,,,2300.004201,None,,,,,,,,,,,,,,,,,,quantity,50,98,silent,old,blue,2298.571465,None,2298.571465,None,6,0.8489897,2298.571465,None,0.8489897,2299.438478,None,2299.954268,None,2299.954268,None,f,0.0262664,2299.954268,None,0.0262664,,,Sep23Silent1,55,2022_Sep_23_1450,ProdSingRedoBetween,2021.2.3,59.94772559
,,,,98,0,98,0,,,,,,,,,,,,,,,,,,,,,,2302.13966,None,,,,,,,,,,,,,,,,,,front,100,99,silent,new,null,2300.511933,None,2300.511933,None,1,1.0445425,2300.511933,None,1.0445425,2301.573109,None,2302.074476,None,2302.074476,None,n,0.0421311,2302.074476,None,0.0421311,,,Sep23Silent1,55,2022_Sep_23_1450,ProdSingRedoBetween,2021.2.3,59.94772559
,,,,99,0,99,0,,,,,,,,,,,,,,,,,,,,,,2304.441769,None,,,,,,,,,,,,,,,,,,thick,55,100,silent,old,blue,2302.648317,None,2302.648317,None,2,0.8122789,2302.648317,None,0.8122789,2303.509813,None,2304.025407,None,2304.025407,None,f,0.3872176,2304.025407,None,0.3872176,,,Sep23Silent1,55,2022_Sep_23_1450,ProdSingRedoBetween,2021.2.3,59.94772559
,,,,100,0,100,0,,,,,,,,,,,,,,,,,,,,,,2306.961165,None,,,,,,,,,,,,,,,,,,motion,109,101,silent,new,null,2304.944133,None,2304.944133,None,3,0.9085172,2304.944133,None,0.9085172,2305.884484,None,2306.393738,None,2306.393738,None,f,0.5468331,2306.393738,None,0.5468331,,,Sep23Silent1,55,2022_Sep_23_1450,ProdSingRedoBetween,2021.2.3,59.94772559
,,,,101,0,101,0,,,,,,,,,,,,,,,,,,,,,,2311.600877,None,,,,,,,,,,,,,,,,,,addition,101,102,silent,new,null,2307.467619,None,2307.467619,None,4,2.080936,2307.467619,None,2.080936,2309.563713,None,2310.070052,None,2310.070052,None,r,1.5105112,2310.070052,None,1.5105112,,,Sep23Silent1,55,2022_Sep_23_1450,ProdSingRedoBetween,2021.2.3,59.94772559
,,,,102,0,102,0,,,,,,,,,,,,,,,,,,,,,,2313.500968,None,,,,,,,,,,,,,,,,,,primary,62,103,silent,old,red,2312.119935,None,2312.119935,None,5,0.524576,2312.119935,None,0.524576,2312.669067,None,2313.185157,None,2313.185157,None,r,0.2913243,2313.185157,None,0.2913243,,,Sep23Silent1,55,2022_Sep_23_1450,ProdSingRedoBetween,2021.2.3,59.94772559
,,,,103,0,103,0,,,,,,,,,,,,,,,,,,,,,,2316.003443,None,,,,,,,,,,,,,,,,,,harmony,177,104,silent,new,null,2314.010168,None,2314.010168,None,6,1.3383411,2314.010168,None,1.3383411,2315.371607,None,2315.891477,None,2315.891477,None,n,0.089015,2315.891477,None,0.089015,,,Sep23Silent1,55,2022_Sep_23_1450,ProdSingRedoBetween,2021.2.3,59.94772559
,,,,104,0,104,0,,,,,,,,,,,,,,,,,,,,,,2317.775557,None,,,,,,,,,,,,,,,,,,people,4,105,silent,old,yellow,2316.514516,None,2316.514516,None,1,0.6098847,2316.514516,None,0.6098847,2317.159236,None,2317.676551,None,2317.676551,None,n,0.0641832,2317.676551,None,0.0641832,,,Sep23Silent1,55,2022_Sep_23_1450,ProdSingRedoBetween,2021.2.3,59.94772559
,,,,105,0,105,0,,,,,,,,,,,,,,,,,,,,,,2319.358594,None,,,,,,,,,,,,,,,,,,narrow,97,106,silent,new,null,2318.301984,None,2318.301984,None,2,0.4145836,2318.301984,None,0.4145836,2318.745411,None,2319.261763,None,2319.261763,None,n,0.0707932,2319.261763,None,0.0707932,,,Sep23Silent1,55,2022_Sep_23_1450,ProdSingRedoBetween,2021.2.3,59.94772559
,,,,106,0,106,0,,,,,,,,,,,,,,,,,,,,,,2322.526616,None,,,,,,,,,,,,,,,,,,division,87,107,silent,old,red,2319.890629,None,2319.890629,None,3,0.5218846,2319.890629,None,0.5218846,2320.445515,None,2320.958447,None,2320.958447,None,f,1.5419947,2320.958447,None,1.5419947,,,Sep23Silent1,55,2022_Sep_23_1450,ProdSingRedoBetween,2021.2.3,59.94772559
,,,,107,0,107,0,,,,,,,,,,,,,,,,,,,,,,2325.195937,None,,,,,,,,,,,,,,,,,,trail,90,108,silent,new,null,2323.03779,None,2323.03779,None,4,1.1747355,2323.03779,None,1.1747355,2324.231528,None,2324.745556,None,2324.745556,None,f,0.4191022,2324.745556,None,0.4191022,,,Sep23Silent1,55,2022_Sep_23_1450,ProdSingRedoBetween,2021.2.3,59.94772559
,,,,108,0,108,0,,,,,,,,,,,,,,,,,,,,,,2327.347972,None,,,,,,,,,,,,,,,,,,reach,144,109,silent,new,null,2325.69647,None,2325.69647,None,5,0.9959854,2325.69647,None,0.9959854,2326.714043,None,2327.218888,None,2327.218888,None,f,0.1136008,2327.218888,None,0.1136008,,,Sep23Silent1,55,2022_Sep_23_1450,ProdSingRedoBetween,2021.2.3,59.94772559
,,,,109,0,109,0,,,,,,,,,,,,,,,,,,,,,,2329.466857,None,,,,,,,,,,,,,,,,,,weight,126,110,silent,new,null,2327.848459,None,2327.848459,None,6,0.9399783,2327.848459,None,0.9399783,2328.815998,None,2329.316789,None,2329.316789,None,f,0.127786,2329.316789,None,0.127786,,,Sep23Silent1,55,2022_Sep_23_1450,ProdSingRedoBetween,2021.2.3,59.94772559
,,,,110,0,110,0,,,,,,,,,,,,,,,,,,,,,,2331.126319,None,,,,,,,,,,,,,,,,,,curve,170,111,silent,new,null,2329.974004,None,2329.974004,None,1,0.5664818,2329.974004,None,0.5664818,2330.570866,None,2331.089941,None,2331.089941,None,n,0.0107955,2331.089941,None,0.0107955,,,Sep23Silent1,55,2022_Sep_23_1450,ProdSingRedoBetween,2021.2.3,59.94772559
,,,,111,0,111,0,,,,,,,,,,,,,,,,,,,,,,2332.770156,None,,,,,,,,,,,,,,,,,,rural,15,112,silent,old,yellow,2331.64182,None,2331.64182,None,2,0.5066431,2331.64182,None,0.5066431,2332.173501,None,2332.686638,None,2332.686638,None,n,0.0538964,2332.686638,None,0.0538964,,,Sep23Silent1,55,2022_Sep_23_1450,ProdSingRedoBetween,2021.2.3,59.94772559
,,,,112,0,112,0,,,,,,,,,,,,,,,,,,,,,,2334.755479,None,,,,,,,,,,,,,,,,,,device,35,113,silent,old,blue,2333.273492,None,2333.273492,None,3,0.6429727,2333.273492,None,0.6429727,2333.939269,None,2334.440871,None,2334.440871,None,f,0.2837767,2334.440871,None,0.2837767,,,Sep23Silent1,55,2022_Sep_23_1450,ProdSingRedoBetween,2021.2.3,59.94772559
,,,,113,0,113,0,,,,,,,,,,,,,,,,,,,,,,2337.274514,None,,,,,,,,,,,,,,,,,,measure,19,114,silent,old,yellow,2335.263778,None,2335.263778,None,4,0.9807377,2335.263778,None,0.9807377,2336.275481,None,2336.795565,None,2336.795565,None,f,0.4488263,2336.795565,None,0.4488263,,,Sep23Silent1,55,2022_Sep_23_1450,ProdSingRedoBetween,2021.2.3,59.94772559
,,,,114,0,114,0,,,,,,,,,,,,,,,,,,,,,,2339.511247,None,,,,,,,,,,,,,,,,,,empty,0,115,silent,old,yellow,2337.777382,None,2337.777382,None,5,0.7870202,2337.777382,None,0.7870202,2338.598657,None,2339.115109,None,2339.115109,None,f,0.3694507,2339.115109,None,0.3694507,,,Sep23Silent1,55,2022_Sep_23_1450,ProdSingRedoBetween,2021.2.3,59.94772559
,,,,115,0,115,0,,,,,,,,,,,,,,,,,,,,,,2341.979401,None,,,,,,,,,,,,,,,,,,husband,147,116,silent,new,null,2340.018203,None,2340.018203,None,6,1.338321,2340.018203,None,1.338321,2341.379939,None,2341.879441,None,2341.879441,None,n,0.0689374,2341.879441,None,0.0689374,,,Sep23Silent1,55,2022_Sep_23_1450,ProdSingRedoBetween,2021.2.3,59.94772559
,,,,116,0,116,0,,,,,,,,,,,,,,,,,,,,,,2344.22317,None,,,,,,,,,,,,,,,,,,discussion,3,117,silent,old,yellow,2342.488058,None,2342.488058,None,1,0.4446818,2342.488058,None,0.4446818,2342.96737,None,2343.481055,None,2343.481055,None,n,0.7076306,2343.481055,None,0.7076306,,,Sep23Silent1,55,2022_Sep_23_1450,ProdSingRedoBetween,2021.2.3,59.94772559
,,,,117,0,117,0,,,,,,,,,,,,,,,,,,,,,,2346.504806,None,,,,,,,,,,,,,,,,,,gesture,53,118,silent,old,blue,2344.731968,None,2344.731968,None,2,0.9204139,2344.731968,None,0.9204139,2345.683051,None,2346.19583,None,2346.19583,None,n,0.2885238,2346.19583,None,0.2885238,,,Sep23Silent1,55,2022_Sep_23_1450,ProdSingRedoBetween,2021.2.3,59.94772559
,,,,118,0,118,0,,,,,,,,,,,,,,,,,,,,,,2350.037395,None,,,,,,,,,,,,,,,,,,estate,156,119,silent,new,null,2347.040423,None,2347.040423,None,3,2.1160978,2347.040423,None,2.1160978,2349.186756,None,2349.694759,None,2349.694759,None,n,0.3177055,2349.694759,None,0.3177055,,,Sep23Silent1,55,2022_Sep_23_1450,ProdSingRedoBetween,2021.2.3,59.94772559
,,,,119,0,119,0,,,,,,,,,,,,,,,,,,,,,,2351.939181,None,,,,,,,,,,,,,,,,,,relation,173,120,silent,new,null,2350.537928,None,2350.537928,None,4,0.6585075,2350.537928,None,0.6585075,2351.222835,None,2351.724373,None,2351.724373,None,n,0.2001248,2351.724373,None,0.2001248,,,Sep23Silent1,55,2022_Sep_23_1450,ProdSingRedoBetween,2021.2.3,59.94772559
,,,,120,0,120,0,,,,,,,,,,,,,,,,,,,,,,2353.991394,None,,,,,,,,,,,,,,,,,,message,43,121,silent,old,blue,2352.444003,None,2352.444003,None,5,0.6724965,2352.444003,None,0.6724965,2353.146514,None,2353.65983,None,2353.65983,None,n,0.3045376,2353.65983,None,0.3045376,,,Sep23Silent1,55,2022_Sep_23_1450,ProdSingRedoBetween,2021.2.3,59.94772559
,,,,121,0,121,0,,,,,,,,,,,,,,,,,,,,,,2356.560586,None,,,,,,,,,,,,,,,,,,running,9,122,silent,old,yellow,2354.503425,None,2354.503425,None,6,1.0849952,2354.503425,None,1.0849952,2355.611374,None,2356.112478,None,2356.112478,None,n,0.4279413,2356.112478,None,0.4279413,,,Sep23Silent1,55,2022_Sep_23_1450,ProdSingRedoBetween,2021.2.3,59.94772559
,,,,122,0,122,0,,,,,,,,,,,,,,,,,,,,,,2362.733352,None,,,,,,,,,,,,,,,,,,route,95,123,silent,new,null,2357.06111,None,2357.06111,None,5,4.6713964,2357.06111,None,4.6713964,2361.749079,None,2362.252367,None,2362.252367,None,n,0.4639946,2362.252367,None,0.4639946,,,Sep23Silent1,55,2022_Sep_23_1450,ProdSingRedoBetween,2021.2.3,59.94772559
,,,,123,0,123,0,,,,,,,,,,,,,,,,,,,,,,2364.251578,None,,,,,,,,,,,,,,,,,,session,106,124,silent,new,null,2363.241114,None,2363.241114,None,5,0.3313246,2363.241114,None,0.3313246,2363.601896,None,2364.101493,None,2364.101493,None,n,0.1270173,2364.101493,None,0.1270173,,,Sep23Silent1,55,2022_Sep_23_1450,ProdSingRedoBetween,2021.2.3,59.94772559
,,,,124,0,124,0,,,,,,,,,,,,,,,,,,,,,,2365.886508,None,,,,,,,,,,,,,,,,,,congress,51,125,silent,old,blue,2364.762062,None,2364.762062,None,5,0.402438,2364.762062,None,0.402438,2365.187066,None,2365.693694,None,2365.693694,None,n,0.1746449,2365.693694,None,0.1746449,,,Sep23Silent1,55,2022_Sep_23_1450,ProdSingRedoBetween,2021.2.3,59.94772559
,,,,125,0,125,0,,,,,,,,,,,,,,,,,,,,,,2367.304596,None,,,,,,,,,,,,,,,,,,height,124,126,silent,new,null,2366.392747,None,2366.392747,None,5,0.2916123,2366.392747,None,0.2916123,2366.709077,None,2367.221104,None,2367.221104,None,n,0.0551997,2367.221104,None,0.0551997,,,Sep23Silent1,55,2022_Sep_23_1450,ProdSingRedoBetween,2021.2.3,59.94772559
,,,,126,0,126,0,,,,,,,,,,,,,,,,,,,,,,2369.139742,None,,,,,,,,,,,,,,,,,,surface,158,127,silent,new,null,2367.809698,None,2367.809698,None,5,0.0506614,2367.809698,None,0.0506614,2367.900643,None,2368.406228,None,2368.406228,None,n,0.7022485,2368.406228,None,0.7022485,,,Sep23Silent1,55,2022_Sep_23_1450,ProdSingRedoBetween,2021.2.3,59.94772559
,,,,127,0,127,0,,,,,,,,,,,,,,,,,,,,,,2370.507793,None,,,,,,,,,,,,,,,,,,cross,111,128,silent,new,null,2369.649095,None,2369.649095,None,5,0.2514271,2369.649095,None,0.2514271,2369.931948,None,2370.442322,None,2370.442322,None,n,0.0421518,2370.442322,None,0.0421518,,,Sep23Silent1,55,2022_Sep_23_1450,ProdSingRedoBetween,2021.2.3,59.94772559
,,,,128,0,128,0,,,,,,,,,,,,,,,,,,,,,,2372.060333,None,,,,,,,,,,,,,,,,,,emergency,164,129,silent,new,null,2371.011443,None,2371.011443,None,5,0.2170111,2371.011443,None,0.2170111,2371.261689,None,2371.775883,None,2371.775883,None,n,0.2605897,2371.775883,None,0.2605897,,,Sep23Silent1,55,2022_Sep_23_1450,ProdSingRedoBetween,2021.2.3,59.94772559
,,,,129,0,129,0,,,,,,,,,,,,,,,,,,,,,,2374.43069,None,,,,,,,,,,,,,,,,,,interior,30,130,silent,old,blue,2372.569696,None,2372.569696,None,4,0.8907147,2372.569696,None,0.8907147,2373.48084,None,2373.994794,None,2373.994794,None,n,0.4176971,2373.994794,None,0.4176971,,,Sep23Silent1,55,2022_Sep_23_1450,ProdSingRedoBetween,2021.2.3,59.94772559
,,,,130,0,130,0,,,,,,,,,,,,,,,,,,,,,,2375.863249,None,,,,,,,,,,,,,,,,,,threat,79,131,silent,old,red,2374.952467,None,2374.952467,None,5,0.3399914,2374.952467,None,0.3399914,2375.312836,None,2375.813322,None,2375.813322,None,n,0.0232153,2375.813322,None,0.0232153,,,Sep23Silent1,55,2022_Sep_23_1450,ProdSingRedoBetween,2021.2.3,59.94772559
,,,,131,0,131,0,,,,,,,,,,,,,,,,,,,,,,2377.114355,None,,,,,,,,,,,,,,,,,,point,85,132,silent,old,red,2376.369315,None,2376.369315,None,4,0.0990767,2376.369315,None,0.0990767,2376.499824,None,2377.018701,None,2377.018701,None,n,0.0658012,2377.018701,None,0.0658012,,,Sep23Silent1,55,2022_Sep_23_1450,ProdSingRedoBetween,2021.2.3,59.94772559
,,,,132,0,132,0,,,,,,,,,,,,,,,,,,,,,,2378.435052,None,,,,,,,,,,,,,,,,,,place,37,133,silent,old,blue,2377.615336,None,2377.615336,None,5,0.124951,2377.615336,None,0.124951,2377.769711,None,2378.286257,None,2378.286257,None,n,0.1261941,2378.286257,None,0.1261941,,,Sep23Silent1,55,2022_Sep_23_1450,ProdSingRedoBetween,2021.2.3,59.94772559
,,,,133,0,133,0,,,,,,,,,,,,,,,,,,,,,,2379.917222,None,,,,,,,,,,,,,,,,,,society,23,134,silent,old,yellow,2378.964222,None,2378.964222,None,4,0.3445196,2378.964222,None,0.3445196,2379.340228,None,2379.860474,None,2379.860474,None,n,0.031958,2379.860474,None,0.031958,,,Sep23Silent1,55,2022_Sep_23_1450,ProdSingRedoBetween,2021.2.3,59.94772559
,,,,134,0,134,0,,,,,,,,,,,,,,,,,,,,,,2382.402963,None,,,,,,,,,,,,,,,,,,nation,114,135,silent,new,null,2380.419396,None,2380.419396,None,3,0.3290055,2380.419396,None,0.3290055,2380.769011,None,2381.26857,None,2381.26857,None,r,1.111811,2381.26857,None,1.111811,,,Sep23Silent1,55,2022_Sep_23_1450,ProdSingRedoBetween,2021.2.3,59.94772559
,,,,135,0,135,0,,,,,,,,,,,,,,,,,,,,,,2385.155719,None,,,,,,,,,,,,,,,,,,tennis,125,136,silent,new,null,2382.914078,None,2382.914078,None,4,0.2984304,2382.914078,None,0.2984304,2383.238395,None,2383.741759,None,2383.741759,None,n,1.3986456,2383.741759,None,1.3986456,,,Sep23Silent1,55,2022_Sep_23_1450,ProdSingRedoBetween,2021.2.3,59.94772559
,,,,136,0,136,0,,,,,,,,,,,,,,,,,,,,,,2386.874096,None,,,,,,,,,,,,,,,,,,straight,2,137,silent,old,yellow,2385.668388,None,2385.668388,None,5,0.6239939,2385.668388,None,0.6239939,2386.324264,None,2386.825093,None,2386.825093,None,r,0.0193636,2386.825093,None,0.0193636,,,Sep23Silent1,55,2022_Sep_23_1450,ProdSingRedoBetween,2021.2.3,59.94772559
,,,,137,0,137,0,,,,,,,,,,,,,,,,,,,,,,2388.725958,None,,,,,,,,,,,,,,,,,,disease,108,138,silent,new,null,2387.380415,None,2387.380415,None,4,0.3439617,2387.380415,None,0.3439617,2387.746771,None,2388.261371,None,2388.261371,None,n,0.4389974,2388.261371,None,0.4389974,,,Sep23Silent1,55,2022_Sep_23_1450,ProdSingRedoBetween,2021.2.3,59.94772559
,,,,138,0,138,0,,,,,,,,,,,,,,,,,,,,,,2390.32758,None,,,,,,,,,,,,,,,,,,notice,39,139,silent,old,blue,2389.235494,None,2389.235494,None,4,0.2808212,2389.235494,None,0.2808212,2389.544921,None,2390.04476,None,2390.04476,None,n,0.2636678,2390.04476,None,0.2636678,,,Sep23Silent1,55,2022_Sep_23_1450,ProdSingRedoBetween,2021.2.3,59.94772559
,,,,139,0,139,0,,,,,,,,,,,,,,,,,,,,,,2391.929132,None,,,,,,,,,,,,,,,,,,shock,5,140,silent,old,yellow,2390.836111,None,2390.836111,None,4,0.2883331,2390.836111,None,0.2883331,2391.146612,None,2391.652695,None,2391.652695,None,n,0.2477625,2391.652695,None,0.2477625,,,Sep23Silent1,55,2022_Sep_23_1450,ProdSingRedoBetween,2021.2.3,59.94772559
,,,,140,0,140,0,,,,,,,,,,,,,,,,,,,,,,2394.900091,None,,,,,,,,,,,,,,,,,,defeat,136,141,silent,new,null,2392.435975,None,2392.435975,None,3,0.2964033,2392.435975,None,0.2964033,2392.764309,None,2393.265354,None,2393.265354,None,r,1.6111044,2393.265354,None,1.6111044,,,Sep23Silent1,55,2022_Sep_23_1450,ProdSingRedoBetween,2021.2.3,59.94772559
,,,,141,0,141,0,,,,,,,,,,,,,,,,,,,,,,2397.368015,None,,,,,,,,,,,,,,,,,,quick,139,142,silent,new,null,2395.405883,None,2395.405883,None,4,0.3666878,2395.405883,None,0.3666878,2395.813876,None,2396.319484,None,2396.319484,None,n,1.0207366,2396.319484,None,1.0207366,,,Sep23Silent1,55,2022_Sep_23_1450,ProdSingRedoBetween,2021.2.3,59.94772559
,,,,142,0,142,0,,,,,,,,,,,,,,,,,,,,,,2398.835982,None,,,,,,,,,,,,,,,,,,watch,32,143,silent,old,blue,2397.870962,None,2397.870962,None,4,0.3732718,2397.870962,None,0.3732718,2398.27599,None,2398.786187,None,2398.786187,None,r,0.0340715,2398.786187,None,0.0340715,,,Sep23Silent1,55,2022_Sep_23_1450,ProdSingRedoBetween,2021.2.3,59.94772559
,,,,143,0,143,0,,,,,,,,,,,,,,,,,,,,,,2400.521002,None,,,,,,,,,,,,,,,,,,hunger,121,144,silent,new,null,2399.350268,None,2399.350268,None,4,0.2780902,2399.350268,None,0.2780902,2399.655277,None,2400.170815,None,2400.170815,None,n,0.3216025,2400.170815,None,0.3216025,,,Sep23Silent1,55,2022_Sep_23_1450,ProdSingRedoBetween,2021.2.3,59.94772559
,,,,144,0,144,0,,,,,,,,,,,,,,,,,,,,,,2402.91018,None,,,,,,,,,,,,,,,,,,little,31,145,silent,old,blue,2401.021393,None,2401.021393,None,4,0.1429599,2401.021393,None,0.1429599,2401.190179,None,2401.705675,None,2401.705675,None,r,1.1708001,2401.705675,None,1.1708001,,,Sep23Silent1,55,2022_Sep_23_1450,ProdSingRedoBetween,2021.2.3,59.94772559
,,,,145,0,145,0,,,,,,,,,,,,,,,,,,,,,,2404.40908,None,,,,,,,,,,,,,,,,,,service,48,146,silent,old,blue,2403.424315,None,2403.424315,None,4,0.1319944,2403.424315,None,0.1319944,2403.577425,None,2404.091513,None,2404.091513,None,n,0.2968951,2404.091513,None,0.2968951,,,Sep23Silent1,55,2022_Sep_23_1450,ProdSingRedoBetween,2021.2.3,59.94772559
,,,,146,0,146,0,,,,,,,,,,,,,,,,,,,,,,2405.943111,None,,,,,,,,,,,,,,,,,,payment,1,147,silent,old,yellow,2404.916498,None,2404.916498,None,4,0.3917998,2404.916498,None,0.3917998,2405.330422,None,2405.846291,None,2405.846291,None,r,0.069993,2405.846291,None,0.069993,,,Sep23Silent1,55,2022_Sep_23_1450,ProdSingRedoBetween,2021.2.3,59.94772559
,,,,147,0,147,0,,,,,,,,,,,,,,,,,,,,,,2407.199577,None,,,,,,,,,,,,,,,,,,bucket,140,148,silent,new,null,2406.456006,None,2406.456006,None,4,0.1402543,2406.456006,None,0.1402543,2406.627099,None,2407.129679,None,2407.129679,None,n,0.0427505,2407.129679,None,0.0427505,,,Sep23Silent1,55,2022_Sep_23_1450,ProdSingRedoBetween,2021.2.3,59.94772559
,,,,148,0,148,0,,,,,,,,,,,,,,,,,,,,,,2409.429903,None,,,,,,,,,,,,,,,,,,damage,98,149,silent,new,null,2407.714285,None,2407.714285,None,5,0.7940864,2407.714285,None,0.7940864,2408.530817,None,2409.046284,None,2409.046284,None,n,0.3581659,2409.046284,None,0.3581659,,,Sep23Silent1,55,2022_Sep_23_1450,ProdSingRedoBetween,2021.2.3,59.94772559
,,,,149,0,149,0,,,,,,,,,,,,,,,,,,,,,,2410.997948,None,,,,,,,,,,,,,,,,,,candidate,33,150,silent,old,blue,2409.940153,None,2409.940153,None,3,0.2561177,2409.940153,None,0.2561177,2410.215092,None,2410.717369,None,2410.717369,None,n,0.2549931,2410.717369,None,0.2549931,,,Sep23Silent1,55,2022_Sep_23_1450,ProdSingRedoBetween,2021.2.3,59.94772559
,,,,150,0,150,0,,,,,,,,,,,,,,,,,,,,,,2413.150299,None,,,,,,,,,,,,,,,,,,suspect,112,151,silent,new,null,2411.50785,None,2411.50785,None,3,0.2725836,2411.50785,None,0.2725836,2411.809858,None,2412.317294,None,2412.317294,None,n,0.8070833,2412.317294,None,0.8070833,,,Sep23Silent1,55,2022_Sep_23_1450,ProdSingRedoBetween,2021.2.3,59.94772559
,,,,151,0,151,0,,,,,,,,,,,,,,,,,,,,,,2414.66832,None,,,,,,,,,,,,,,,,,,right,75,152,silent,old,red,2413.662012,None,2413.662012,None,3,0.1503122,2413.662012,None,0.1503122,2413.83666,None,2414.351573,None,2414.351573,None,n,0.2928856,2414.351573,None,0.2928856,,,Sep23Silent1,55,2022_Sep_23_1450,ProdSingRedoBetween,2021.2.3,59.94772559
,,,,152,0,152,0,,,,,,,,,,,,,,,,,,,,,,2416.336782,None,,,,,,,,,,,,,,,,,,passage,10,153,silent,old,yellow,2415.17145,None,2415.17145,None,2,0.4089126,2415.17145,None,0.4089126,2415.606374,None,2416.120039,None,2416.120039,None,n,0.1883588,2416.120039,None,0.1883588,,,Sep23Silent1,55,2022_Sep_23_1450,ProdSingRedoBetween,2021.2.3,59.94772559
,,,,153,0,153,0,,,,,,,,,,,,,,,,,,,,,,2418.02318,None,,,,,,,,,,,,,,,,,,pancakes,12,154,silent,old,yellow,2416.840072,None,2416.840072,None,2,0.1083491,2416.840072,None,0.1083491,2416.972332,None,2417.488087,None,2417.488087,None,n,0.5082794,2417.488087,None,0.5082794,,,Sep23Silent1,55,2022_Sep_23_1450,ProdSingRedoBetween,2021.2.3,59.94772559
,,,,154,0,154,0,,,,,,,,,,,,,,,,,,,,,,2419.589845,None,,,,,,,,,,,,,,,,,,afternoon,74,155,silent,old,red,2418.543733,None,2418.543733,None,4,0.3566761,2418.543733,None,0.3566761,2418.925622,None,2419.449707,None,2419.449707,None,n,0.1147623,2419.449707,None,0.1147623,,,Sep23Silent1,55,2022_Sep_23_1450,ProdSingRedoBetween,2021.2.3,59.94772559
,,,,155,0,155,0,,,,,,,,,,,,,,,,,,,,,,2420.891322,None,,,,,,,,,,,,,,,,,,guide,122,156,silent,new,null,2420.09903,None,2420.09903,None,2,0.1773631,2420.09903,None,0.1773631,2420.307427,None,2420.811287,None,2420.811287,None,n,0.049031,2420.811287,None,0.049031,,,Sep23Silent1,55,2022_Sep_23_1450,ProdSingRedoBetween,2021.2.3,59.94772559
,,,,156,0,156,0,,,,,,,,,,,,,,,,,,,,,,2422.075836,None,,,,,,,,,,,,,,,,,,number,65,157,silent,old,red,2421.395937,None,2421.395937,None,4,0.072477,2421.395937,None,0.072477,2421.499208,None,2422.009251,None,2422.009251,None,n,0.0511651,2422.009251,None,0.0511651,,,Sep23Silent1,55,2022_Sep_23_1450,ProdSingRedoBetween,2021.2.3,59.94772559
,,,,157,0,157,0,,,,,,,,,,,,,,,,,,,,,,2423.577364,None,,,,,,,,,,,,,,,,,,dance,143,158,silent,new,null,2422.584303,None,2422.584303,None,2,0.3000997,2422.584303,None,0.3000997,2422.912441,None,2423.427131,None,2423.427131,None,n,0.1292509,2423.427131,None,0.1292509,,,Sep23Silent1,55,2022_Sep_23_1450,ProdSingRedoBetween,2021.2.3,59.94772559
,,,,158,0,158,0,,,,,,,,,,,,,,,,,,,,,,2425.545983,None,,,,,,,,,,,,,,,,,,salary,61,159,silent,old,red,2424.080024,None,2424.080024,None,4,0.2683083,2424.080024,None,0.2683083,2424.382234,None,2424.895364,None,2424.895364,None,n,0.6290893,2424.895364,None,0.6290893,,,Sep23Silent1,55,2022_Sep_23_1450,ProdSingRedoBetween,2021.2.3,59.94772559
,,,,159,0,159,0,,,,,,,,,,,,,,,,,,,,,,2427.531313,None,,,,,,,,,,,,,,,,,,trial,120,160,silent,new,null,2426.051893,None,2426.051893,None,2,0.0643984,2426.051893,None,0.0643984,2426.146885,None,2426.647239,None,2426.647239,None,f,0.8690754,2426.647239,None,0.8690754,,,Sep23Silent1,55,2022_Sep_23_1450,ProdSingRedoBetween,2021.2.3,59.94772559
,,,,160,0,160,0,,,,,,,,,,,,,,,,,,,,,,2429.850356,None,,,,,,,,,,,,,,,,,,general,130,161,silent,new,null,2428.034182,None,2428.034182,None,2,0.9380663,2428.034182,None,0.9380663,2429.000118,None,2429.500076,None,2429.500076,None,f,0.3282143,2429.500076,None,0.3282143,,,Sep23Silent1,55,2022_Sep_23_1450,ProdSingRedoBetween,2021.2.3,59.94772559
,,,,161,0,161,0,,,,,,,,,,,,,,,,,,,,,,2431.36854,None,,,,,,,,,,,,,,,,,,whole,88,162,silent,old,red,2430.357197,None,2430.357197,None,2,0.3192201,2430.357197,None,0.3192201,2430.708843,None,2431.221054,None,2431.221054,None,f,0.1192679,2431.221054,None,0.1192679,,,Sep23Silent1,55,2022_Sep_23_1450,ProdSingRedoBetween,2021.2.3,59.94772559
,,,,162,0,162,0,,,,,,,,,,,,,,,,,,,,,,2435.439126,None,,,,,,,,,,,,,,,,,,scene,66,163,silent,old,red,2431.869111,None,2431.869111,None,4,2.8713257,2431.869111,None,2.8713257,2434.755415,None,2435.263103,None,2435.263103,None,n,0.1572066,2435.263103,None,0.1572066,,,Sep23Silent1,55,2022_Sep_23_1450,ProdSingRedoBetween,2021.2.3,59.94772559
,,,,163,0,163,0,,,,,,,,,,,,,,,,,,,,,,2438.308788,None,,,,,,,,,,,,,,,,,,command,152,164,silent,new,null,2435.948449,None,2435.948449,None,4,0.4959439,2435.948449,None,0.4959439,2436.477795,None,2436.990904,None,2436.990904,None,n,1.3013835,2436.990904,None,1.3013835,,,Sep23Silent1,55,2022_Sep_23_1450,ProdSingRedoBetween,2021.2.3,59.94772559
,,,,164,0,164,0,,,,,,,,,,,,,,,,,,,,,,2440.327879,None,,,,,,,,,,,,,,,,,,fellow,176,165,silent,new,null,2438.822418,None,2438.822418,None,2,0.4299492,2438.822418,None,0.4299492,2439.28389,None,2439.799667,None,2439.799667,None,n,0.5089769,2439.799667,None,0.5089769,,,Sep23Silent1,55,2022_Sep_23_1450,ProdSingRedoBetween,2021.2.3,59.94772559
,,,,165,0,165,0,,,,,,,,,,,,,,,,,,,,,,2442.096708,None,,,,,,,,,,,,,,,,,,thing,135,166,silent,new,null,2440.82964,None,2440.82964,None,4,0.3028392,2440.82964,None,0.3028392,2441.164675,None,2441.684058,None,2441.684058,None,n,0.3842089,2441.684058,None,0.3842089,,,Sep23Silent1,55,2022_Sep_23_1450,ProdSingRedoBetween,2021.2.3,59.94772559
,,,,166,0,166,0,,,,,,,,,,,,,,,,,,,,,,2443.930718,None,,,,,,,,,,,,,,,,,,error,25,167,silent,old,yellow,2442.610166,None,2442.610166,None,2,0.3382003,2442.610166,None,0.3382003,2442.968373,None,2443.484255,None,2443.484255,None,n,0.4240667,2443.484255,None,0.4240667,,,Sep23Silent1,55,2022_Sep_23_1450,ProdSingRedoBetween,2021.2.3,59.94772559
,,,,167,0,167,0,,,,,,,,,,,,,,,,,,,,,,2445.834196,None,,,,,,,,,,,,,,,,,,employment,166,168,silent,new,null,2444.447509,None,2444.447509,None,4,0.4128328,2444.447509,None,0.4128328,2444.883259,None,2445.389114,None,2445.389114,None,n,0.4232107,2445.389114,None,0.4232107,,,Sep23Silent1,55,2022_Sep_23_1450,ProdSingRedoBetween,2021.2.3,59.94772559
,,,,168,0,168,0,,,,,,,,,,,,,,,,,,,,,,2447.434399,None,,,,,,,,,,,,,,,,,,subject,71,169,silent,old,red,2446.338885,None,2446.338885,None,4,0.25749,2446.338885,None,0.25749,2446.619744,None,2447.134226,None,2447.134226,None,n,0.2701623,2447.134226,None,0.2701623,,,Sep23Silent1,55,2022_Sep_23_1450,ProdSingRedoBetween,2021.2.3,59.94772559
,,,,169,0,169,0,,,,,,,,,,,,,,,,,,,,,,2448.869265,None,,,,,,,,,,,,,,,,,,interview,110,170,silent,new,null,2447.935166,None,2447.935166,None,4,0.2772152,2447.935166,None,0.2772152,2448.23768,None,2448.757954,None,2448.757954,None,n,0.0943196,2448.757954,None,0.0943196,,,Sep23Silent1,55,2022_Sep_23_1450,ProdSingRedoBetween,2021.2.3,59.94772559
,,,,170,0,170,0,,,,,,,,,,,,,,,,,,,,,,2450.320695,None,,,,,,,,,,,,,,,,,,marriage,72,171,silent,old,red,2449.37855,None,2449.37855,None,2,0.281667,2449.37855,None,0.281667,2449.692468,None,2450.205898,None,2450.205898,None,n,0.0863868,2450.205898,None,0.0863868,,,Sep23Silent1,55,2022_Sep_23_1450,ProdSingRedoBetween,2021.2.3,59.94772559
,,,,171,0,171,0,,,,,,,,,,,,,,,,,,,,,,2452.40609,None,,,,,,,,,,,,,,,,,,burden,99,172,silent,new,null,2450.831468,None,2450.831468,None,5,0.5407889,2450.831468,None,0.5407889,2451.388994,None,2451.889075,None,2451.889075,None,n,0.4912133,2451.889075,None,0.4912133,,,Sep23Silent1,55,2022_Sep_23_1450,ProdSingRedoBetween,2021.2.3,59.94772559
,,,,172,0,172,0,,,,,,,,,,,,,,,,,,,,,,2453.711578,None,,,,,,,,,,,,,,,,,,problem,128,173,silent,new,null,2452.908105,None,2452.908105,None,2,0.2082349,2452.908105,None,0.2082349,2453.143833,None,2453.660827,None,2453.660827,None,n,0.0236318,2453.660827,None,0.0236318,,,Sep23Silent1,55,2022_Sep_23_1450,ProdSingRedoBetween,2021.2.3,59.94772559
,,,,173,0,173,0,,,,,,,,,,,,,,,,,,,,,,2455.142163,None,,,,,,,,,,,,,,,,,,finance,179,174,silent,new,null,2454.237001,None,2454.237001,None,5,0.287395,2454.237001,None,0.287395,2454.545474,None,2455.058883,None,2455.058883,None,n,0.0573452,2455.058883,None,0.0573452,,,Sep23Silent1,55,2022_Sep_23_1450,ProdSingRedoBetween,2021.2.3,59.94772559
,,,,174,0,174,0,,,,,,,,,,,,,,,,,,,,,,2458.812258,None,,,,,,,,,,,,,,,,,,mayor,83,175,silent,old,red,2455.644776,None,2455.644776,None,2,0.271477,2455.644776,None,0.271477,2455.94865,None,2456.462573,None,2456.462573,None,f,2.3256339,2456.462573,None,2.3256339,,,Sep23Silent1,55,2022_Sep_23_1450,ProdSingRedoBetween,2021.2.3,59.94772559
,,,,175,0,175,0,,,,,,,,,,,,,,,,,,,,,,2460.230673,None,,,,,,,,,,,,,,,,,,close,68,176,silent,old,red,2459.31998,None,2459.31998,None,4,0.316349,2459.31998,None,0.316349,2459.663152,None,2460.169387,None,2460.169387,None,f,0.0348681,2460.169387,None,0.0348681,,,Sep23Silent1,55,2022_Sep_23_1450,ProdSingRedoBetween,2021.2.3,59.94772559
,,,,176,0,176,0,,,,,,,,,,,,,,,,,,,,,,2462.049068,None,,,,,,,,,,,,,,,,,,attack,76,177,silent,old,red,2460.73489,None,2460.73489,None,4,0.3254574,2460.73489,None,0.3254574,2461.08268,None,2461.585261,None,2461.585261,None,f,0.4349939,2461.585261,None,0.4349939,,,Sep23Silent1,55,2022_Sep_23_1450,ProdSingRedoBetween,2021.2.3,59.94772559
,,,,177,0,177,0,,,,,,,,,,,,,,,,,,,,,,2463.43851,None,,,,,,,,,,,,,,,,,,committee,64,178,silent,old,red,2462.555415,None,2462.555415,None,4,0.2328328,2462.555415,None,0.2328328,2462.816432,None,2463.320788,None,2463.320788,None,n,0.0836733,2463.320788,None,0.0836733,,,Sep23Silent1,55,2022_Sep_23_1450,ProdSingRedoBetween,2021.2.3,59.94772559
,,,,178,0,178,0,,,,,,,,,,,,,,,,,,,,,,2464.785142,None,,,,,,,,,,,,,,,,,,mankind,133,179,silent,new,null,2463.960269,None,2463.960269,None,4,0.1639099,2463.960269,None,0.1639099,2464.152176,None,2464.657166,None,2464.657166,None,f,0.1071648,2464.657166,None,0.1071648,,,Sep23Silent1,55,2022_Sep_23_1450,ProdSingRedoBetween,2021.2.3,59.94772559
,,,,179,0,179,0,,,,,,,,,,,,,,,,,,,,,,2469.122519,None,,,,,,,,,,,,,,,,,,provision,52,180,silent,old,blue,2465.290378,None,2465.290378,None,4,1.0339334,2465.290378,None,1.0339334,2466.354606,None,2466.874,None,2466.874,None,f,2.2261466,2466.874,None,2.2261466,,,Sep23Silent1,55,2022_Sep_23_1450,ProdSingRedoBetween,2021.2.3,59.94772559
,,,,,,,,,,,,,,,,,,,,,,,,,,,,,,,,,,,,,,,,,,,,,,,,,,,,,,,,,,,,,,,,,,,,,,,,,,2469.623676,None,,,,,,
