StudyLoop.thisRepN,StudyLoop.thisTrialN,StudyLoop.thisN,StudyLoop.thisIndex,TestLoop.thisRepN,TestLoop.thisTrialN,TestLoop.thisN,TestLoop.thisIndex,textCondition.started,textCondition.stopped,keyCondition.keys,keyCondition.rt,keyCondition.started,keyCondition.stopped,Condition,textWelcome.started,textWelcome.stopped,keyWelcome.keys,keyWelcome.rt,keyWelcome.started,keyWelcome.stopped,textAloud.started,textAloud.stopped,textSilent.started,textSilent.stopped,textSing.started,textSing.stopped,conditional_text.started,conditional_text.stopped,textBlank500.started,textBlank500.stopped,study_word,study_num,study_order,study_type,word_color,textStudy.started,textStudy.stopped,keyStudy.keys,keyStudy.started,keyStudy.stopped,textTestInstructions.started,textTestInstructions.stopped,key_resp_3.keys,key_resp_3.rt,key_resp_3.started,key_resp_3.stopped,test_word,test_num,test_order,test_condition,old_new_test,test_word_original_color,textConf.started,textConf.stopped,textConfScale.started,textConfScale.stopped,keyConf.keys,keyConf.rt,keyConf.started,keyConf.stopped,confidence response time,textTestBlank.started,textTestBlank.stopped,textRKN.started,textRKN.stopped,textRKNScale.started,textRKNScale.stopped,keyRKN.keys,keyRKN.rt,keyRKN.started,keyRKN.stopped,rkn response time,textEnd.started,textEnd.stopped,participant,session,date,expName,psychopyVersion,frameRate
,,,,,,,,10.4547472,None,a,433.0473768,10.4547472,None,,,,,,,,,,,,,,,,,,,,,,,,,,,,,,,,,,,,,,,,,,,,,,,,,,,,,,,,,,,,,,Sep6Silent1,1,2022_Sep_06_1126,ProdSingRedoBetween,2021.2.3,59.454446
,,,,,,,,,,,,,,SilentTest,443.5486418,None,space,7.0973031,443.5486418,None,,,,,,,,,,,,,,,,,,,,,,,,,,,,,,,,,,,,,,,,,,,,,,,,,,,,,,,Sep6Silent1,1,2022_Sep_06_1126,ProdSingRedoBetween,2021.2.3,59.454446
0,0,0,0,,,,,,,,,,,,,,,,,,443.5486418,None,443.5486418,None,443.5486418,None,443.5486418,None,453.1742153,None,sunset,19,1,silent,yellow,451.1740266,None,None,451.1740266,None,,,,,,,,,,,,,,,,,,,,,,,,,,,,,,,,,,,Sep6Silent1,1,2022_Sep_06_1126,ProdSingRedoBetween,2021.2.3,59.454446
1,0,1,0,,,,,,,,,,,,,,,,,,,,,,,,,,455.6765404,None,household,52,2,silent,blue,453.677309,None,None,453.677309,None,,,,,,,,,,,,,,,,,,,,,,,,,,,,,,,,,,,Sep6Silent1,1,2022_Sep_06_1126,ProdSingRedoBetween,2021.2.3,59.454446
2,0,2,0,,,,,,,,,,,,,,,,,,,,,,,,,,458.1792127,None,beginning,23,3,silent,yellow,456.1781611,None,None,456.1781611,None,,,,,,,,,,,,,,,,,,,,,,,,,,,,,,,,,,,Sep6Silent1,1,2022_Sep_06_1126,ProdSingRedoBetween,2021.2.3,59.454446
3,0,3,0,,,,,,,,,,,,,,,,,,,,,,,,,,460.6818337,None,minor,31,4,silent,blue,458.6800169,None,None,458.6800169,None,,,,,,,,,,,,,,,,,,,,,,,,,,,,,,,,,,,Sep6Silent1,1,2022_Sep_06_1126,ProdSingRedoBetween,2021.2.3,59.454446
4,0,4,0,,,,,,,,,,,,,,,,,,,,,,,,,,463.2010683,None,travel,53,5,silent,blue,461.1968334,None,None,461.1968334,None,,,,,,,,,,,,,,,,,,,,,,,,,,,,,,,,,,,Sep6Silent1,1,2022_Sep_06_1126,ProdSingRedoBetween,2021.2.3,59.454446
5,0,5,0,,,,,,,,,,,,,,,,,,,,,,,,,,465.7033337,None,article,59,6,silent,yellow,463.7015564,None,None,463.7015564,None,,,,,,,,,,,,,,,,,,,,,,,,,,,,,,,,,,,Sep6Silent1,1,2022_Sep_06_1126,ProdSingRedoBetween,2021.2.3,59.454446
6,0,6,0,,,,,,,,,,,,,,,,,,,,,,,,,,468.2059083,None,review,42,7,silent,blue,466.2062643,None,None,466.2062643,None,,,,,,,,,,,,,,,,,,,,,,,,,,,,,,,,,,,Sep6Silent1,1,2022_Sep_06_1126,ProdSingRedoBetween,2021.2.3,59.454446
7,0,7,0,,,,,,,,,,,,,,,,,,,,,,,,,,470.7082055,None,signal,74,8,silent,red,468.7085608,None,None,468.7085608,None,,,,,,,,,,,,,,,,,,,,,,,,,,,,,,,,,,,Sep6Silent1,1,2022_Sep_06_1126,ProdSingRedoBetween,2021.2.3,59.454446
8,0,8,0,,,,,,,,,,,,,,,,,,,,,,,,,,473.2109402,None,colonel,18,9,silent,yellow,471.2097429,None,None,471.2097429,None,,,,,,,,,,,,,,,,,,,,,,,,,,,,,,,,,,,Sep6Silent1,1,2022_Sep_06_1126,ProdSingRedoBetween,2021.2.3,59.454446
9,0,9,0,,,,,,,,,,,,,,,,,,,,,,,,,,475.7138293,None,curve,87,10,silent,red,473.7144266,None,None,473.7144266,None,,,,,,,,,,,,,,,,,,,,,,,,,,,,,,,,,,,Sep6Silent1,1,2022_Sep_06_1126,ProdSingRedoBetween,2021.2.3,59.454446
10,0,10,0,,,,,,,,,,,,,,,,,,,,,,,,,,478.2159624,None,balance,15,11,silent,yellow,476.2154498,None,None,476.2154498,None,,,,,,,,,,,,,,,,,,,,,,,,,,,,,,,,,,,Sep6Silent1,1,2022_Sep_06_1126,ProdSingRedoBetween,2021.2.3,59.454446
11,0,11,0,,,,,,,,,,,,,,,,,,,,,,,,,,480.7181363,None,state,25,12,silent,yellow,478.7189542,None,None,478.7189542,None,,,,,,,,,,,,,,,,,,,,,,,,,,,,,,,,,,,Sep6Silent1,1,2022_Sep_06_1126,ProdSingRedoBetween,2021.2.3,59.454446
12,0,12,0,,,,,,,,,,,,,,,,,,,,,,,,,,483.2214224,None,point,30,13,silent,blue,481.2202473,None,None,481.2202473,None,,,,,,,,,,,,,,,,,,,,,,,,,,,,,,,,,,,Sep6Silent1,1,2022_Sep_06_1126,ProdSingRedoBetween,2021.2.3,59.454446
13,0,13,0,,,,,,,,,,,,,,,,,,,,,,,,,,485.7231032,None,meeting,29,14,silent,blue,483.7215582,None,None,483.7215582,None,,,,,,,,,,,,,,,,,,,,,,,,,,,,,,,,,,,Sep6Silent1,1,2022_Sep_06_1126,ProdSingRedoBetween,2021.2.3,59.454446
14,0,14,0,,,,,,,,,,,,,,,,,,,,,,,,,,488.2257337,None,council,10,15,silent,yellow,486.2242237,None,None,486.2242237,None,,,,,,,,,,,,,,,,,,,,,,,,,,,,,,,,,,,Sep6Silent1,1,2022_Sep_06_1126,ProdSingRedoBetween,2021.2.3,59.454446
15,0,15,0,,,,,,,,,,,,,,,,,,,,,,,,,,490.7282356,None,number,33,16,silent,blue,488.7271832,None,None,488.7271832,None,,,,,,,,,,,,,,,,,,,,,,,,,,,,,,,,,,,Sep6Silent1,1,2022_Sep_06_1126,ProdSingRedoBetween,2021.2.3,59.454446
16,0,16,0,,,,,,,,,,,,,,,,,,,,,,,,,,493.2481199,None,mayor,36,17,silent,blue,491.2599035,None,None,491.2599035,None,,,,,,,,,,,,,,,,,,,,,,,,,,,,,,,,,,,Sep6Silent1,1,2022_Sep_06_1126,ProdSingRedoBetween,2021.2.3,59.454446
17,0,17,0,,,,,,,,,,,,,,,,,,,,,,,,,,495.7498894,None,community,75,18,silent,red,493.7488159,None,None,493.7488159,None,,,,,,,,,,,,,,,,,,,,,,,,,,,,,,,,,,,Sep6Silent1,1,2022_Sep_06_1126,ProdSingRedoBetween,2021.2.3,59.454446
18,0,18,0,,,,,,,,,,,,,,,,,,,,,,,,,,498.2525285,None,broad,70,19,silent,red,496.2516753,None,None,496.2516753,None,,,,,,,,,,,,,,,,,,,,,,,,,,,,,,,,,,,Sep6Silent1,1,2022_Sep_06_1126,ProdSingRedoBetween,2021.2.3,59.454446
19,0,19,0,,,,,,,,,,,,,,,,,,,,,,,,,,500.7549318,None,interior,81,20,silent,red,498.7543488,None,None,498.7543488,None,,,,,,,,,,,,,,,,,,,,,,,,,,,,,,,,,,,Sep6Silent1,1,2022_Sep_06_1126,ProdSingRedoBetween,2021.2.3,59.454446
20,0,20,0,,,,,,,,,,,,,,,,,,,,,,,,,,503.2574244,None,express,2,21,silent,yellow,501.2584388,None,None,501.2584388,None,,,,,,,,,,,,,,,,,,,,,,,,,,,,,,,,,,,Sep6Silent1,1,2022_Sep_06_1126,ProdSingRedoBetween,2021.2.3,59.454446
21,0,21,0,,,,,,,,,,,,,,,,,,,,,,,,,,505.7599142,None,blind,44,22,silent,blue,503.7589336,None,None,503.7589336,None,,,,,,,,,,,,,,,,,,,,,,,,,,,,,,,,,,,Sep6Silent1,1,2022_Sep_06_1126,ProdSingRedoBetween,2021.2.3,59.454446
22,0,22,0,,,,,,,,,,,,,,,,,,,,,,,,,,508.2627681,None,suggestion,20,23,silent,yellow,506.2616442,None,None,506.2616442,None,,,,,,,,,,,,,,,,,,,,,,,,,,,,,,,,,,,Sep6Silent1,1,2022_Sep_06_1126,ProdSingRedoBetween,2021.2.3,59.454446
23,0,23,0,,,,,,,,,,,,,,,,,,,,,,,,,,510.7651567,None,front,11,24,silent,yellow,508.7652347,None,None,508.7652347,None,,,,,,,,,,,,,,,,,,,,,,,,,,,,,,,,,,,Sep6Silent1,1,2022_Sep_06_1126,ProdSingRedoBetween,2021.2.3,59.454446
24,0,24,0,,,,,,,,,,,,,,,,,,,,,,,,,,513.2673568,None,addition,83,25,silent,red,511.2665666,None,None,511.2665666,None,,,,,,,,,,,,,,,,,,,,,,,,,,,,,,,,,,,Sep6Silent1,1,2022_Sep_06_1126,ProdSingRedoBetween,2021.2.3,59.454446
25,0,25,0,,,,,,,,,,,,,,,,,,,,,,,,,,515.7865704,None,husband,24,26,silent,yellow,513.7711189,None,None,513.7711189,None,,,,,,,,,,,,,,,,,,,,,,,,,,,,,,,,,,,Sep6Silent1,1,2022_Sep_06_1126,ProdSingRedoBetween,2021.2.3,59.454446
26,0,26,0,,,,,,,,,,,,,,,,,,,,,,,,,,518.2891141,None,growth,77,27,silent,red,516.2877389,None,None,516.2877389,None,,,,,,,,,,,,,,,,,,,,,,,,,,,,,,,,,,,Sep6Silent1,1,2022_Sep_06_1126,ProdSingRedoBetween,2021.2.3,59.454446
27,0,27,0,,,,,,,,,,,,,,,,,,,,,,,,,,520.7919982,None,tennis,17,28,silent,yellow,518.7924174,None,None,518.7924174,None,,,,,,,,,,,,,,,,,,,,,,,,,,,,,,,,,,,Sep6Silent1,1,2022_Sep_06_1126,ProdSingRedoBetween,2021.2.3,59.454446
28,0,28,0,,,,,,,,,,,,,,,,,,,,,,,,,,523.2950434,None,school,12,29,silent,yellow,521.294478,None,None,521.294478,None,,,,,,,,,,,,,,,,,,,,,,,,,,,,,,,,,,,Sep6Silent1,1,2022_Sep_06_1126,ProdSingRedoBetween,2021.2.3,59.454446
29,0,29,0,,,,,,,,,,,,,,,,,,,,,,,,,,525.7968782,None,damage,49,30,silent,blue,523.7961931,None,None,523.7961931,None,,,,,,,,,,,,,,,,,,,,,,,,,,,,,,,,,,,Sep6Silent1,1,2022_Sep_06_1126,ProdSingRedoBetween,2021.2.3,59.454446
30,0,30,0,,,,,,,,,,,,,,,,,,,,,,,,,,528.2997733,None,frank,51,31,silent,blue,526.2997785,None,None,526.2997785,None,,,,,,,,,,,,,,,,,,,,,,,,,,,,,,,,,,,Sep6Silent1,1,2022_Sep_06_1126,ProdSingRedoBetween,2021.2.3,59.454446
31,0,31,0,,,,,,,,,,,,,,,,,,,,,,,,,,530.8018772,None,escape,84,32,silent,red,528.8015836,None,None,528.8015836,None,,,,,,,,,,,,,,,,,,,,,,,,,,,,,,,,,,,Sep6Silent1,1,2022_Sep_06_1126,ProdSingRedoBetween,2021.2.3,59.454446
32,0,32,0,,,,,,,,,,,,,,,,,,,,,,,,,,533.3044682,None,alert,76,33,silent,red,531.30261,None,None,531.30261,None,,,,,,,,,,,,,,,,,,,,,,,,,,,,,,,,,,,Sep6Silent1,1,2022_Sep_06_1126,ProdSingRedoBetween,2021.2.3,59.454446
33,0,33,0,,,,,,,,,,,,,,,,,,,,,,,,,,535.8068896,None,estate,8,34,silent,yellow,533.8072074,None,None,533.8072074,None,,,,,,,,,,,,,,,,,,,,,,,,,,,,,,,,,,,Sep6Silent1,1,2022_Sep_06_1126,ProdSingRedoBetween,2021.2.3,59.454446
34,0,34,0,,,,,,,,,,,,,,,,,,,,,,,,,,538.3091465,None,present,66,35,silent,red,536.3099218,None,None,536.3099218,None,,,,,,,,,,,,,,,,,,,,,,,,,,,,,,,,,,,Sep6Silent1,1,2022_Sep_06_1126,ProdSingRedoBetween,2021.2.3,59.454446
35,0,35,0,,,,,,,,,,,,,,,,,,,,,,,,,,540.8116695,None,business,82,36,silent,red,538.8116973,None,None,538.8116973,None,,,,,,,,,,,,,,,,,,,,,,,,,,,,,,,,,,,Sep6Silent1,1,2022_Sep_06_1126,ProdSingRedoBetween,2021.2.3,59.454446
36,0,36,0,,,,,,,,,,,,,,,,,,,,,,,,,,543.3143806,None,count,88,37,silent,red,541.3128948,None,None,541.3128948,None,,,,,,,,,,,,,,,,,,,,,,,,,,,,,,,,,,,Sep6Silent1,1,2022_Sep_06_1126,ProdSingRedoBetween,2021.2.3,59.454446
37,0,37,0,,,,,,,,,,,,,,,,,,,,,,,,,,545.817752,None,medicine,72,38,silent,red,543.81771,None,None,543.81771,None,,,,,,,,,,,,,,,,,,,,,,,,,,,,,,,,,,,Sep6Silent1,1,2022_Sep_06_1126,ProdSingRedoBetween,2021.2.3,59.454446
38,0,38,0,,,,,,,,,,,,,,,,,,,,,,,,,,548.3360257,None,religion,55,39,silent,blue,546.3219556,None,None,546.3219556,None,,,,,,,,,,,,,,,,,,,,,,,,,,,,,,,,,,,Sep6Silent1,1,2022_Sep_06_1126,ProdSingRedoBetween,2021.2.3,59.454446
39,0,39,0,,,,,,,,,,,,,,,,,,,,,,,,,,550.8384087,None,industry,0,40,silent,yellow,548.8369426,None,None,548.8369426,None,,,,,,,,,,,,,,,,,,,,,,,,,,,,,,,,,,,Sep6Silent1,1,2022_Sep_06_1126,ProdSingRedoBetween,2021.2.3,59.454446
40,0,40,0,,,,,,,,,,,,,,,,,,,,,,,,,,553.3410664,None,search,80,41,silent,red,551.3421721,None,None,551.3421721,None,,,,,,,,,,,,,,,,,,,,,,,,,,,,,,,,,,,Sep6Silent1,1,2022_Sep_06_1126,ProdSingRedoBetween,2021.2.3,59.454446
41,0,41,0,,,,,,,,,,,,,,,,,,,,,,,,,,555.8434255,None,partner,79,42,silent,red,553.8440363,None,None,553.8440363,None,,,,,,,,,,,,,,,,,,,,,,,,,,,,,,,,,,,Sep6Silent1,1,2022_Sep_06_1126,ProdSingRedoBetween,2021.2.3,59.454446
42,0,42,0,,,,,,,,,,,,,,,,,,,,,,,,,,558.3458104,None,entrance,57,43,silent,blue,556.3466722,None,None,556.3466722,None,,,,,,,,,,,,,,,,,,,,,,,,,,,,,,,,,,,Sep6Silent1,1,2022_Sep_06_1126,ProdSingRedoBetween,2021.2.3,59.454446
43,0,43,0,,,,,,,,,,,,,,,,,,,,,,,,,,560.8652413,None,provision,41,44,silent,blue,558.8550929,None,None,558.8550929,None,,,,,,,,,,,,,,,,,,,,,,,,,,,,,,,,,,,Sep6Silent1,1,2022_Sep_06_1126,ProdSingRedoBetween,2021.2.3,59.454446
44,0,44,0,,,,,,,,,,,,,,,,,,,,,,,,,,563.3678853,None,light,21,45,silent,yellow,561.3658727,None,None,561.3658727,None,,,,,,,,,,,,,,,,,,,,,,,,,,,,,,,,,,,Sep6Silent1,1,2022_Sep_06_1126,ProdSingRedoBetween,2021.2.3,59.454446
45,0,45,0,,,,,,,,,,,,,,,,,,,,,,,,,,565.8703769,None,straight,89,46,silent,red,563.8712352,None,None,563.8712352,None,,,,,,,,,,,,,,,,,,,,,,,,,,,,,,,,,,,Sep6Silent1,1,2022_Sep_06_1126,ProdSingRedoBetween,2021.2.3,59.454446
46,0,46,0,,,,,,,,,,,,,,,,,,,,,,,,,,568.372813,None,marriage,43,47,silent,blue,566.3720713,None,None,566.3720713,None,,,,,,,,,,,,,,,,,,,,,,,,,,,,,,,,,,,Sep6Silent1,1,2022_Sep_06_1126,ProdSingRedoBetween,2021.2.3,59.454446
47,0,47,0,,,,,,,,,,,,,,,,,,,,,,,,,,570.8757282,None,color,14,48,silent,yellow,568.8740728,None,None,568.8740728,None,,,,,,,,,,,,,,,,,,,,,,,,,,,,,,,,,,,Sep6Silent1,1,2022_Sep_06_1126,ProdSingRedoBetween,2021.2.3,59.454446
48,0,48,0,,,,,,,,,,,,,,,,,,,,,,,,,,573.3780221,None,smell,73,49,silent,red,571.3775013,None,None,571.3775013,None,,,,,,,,,,,,,,,,,,,,,,,,,,,,,,,,,,,Sep6Silent1,1,2022_Sep_06_1126,ProdSingRedoBetween,2021.2.3,59.454446
49,0,49,0,,,,,,,,,,,,,,,,,,,,,,,,,,575.8803654,None,plane,69,50,silent,red,573.8794075,None,None,573.8794075,None,,,,,,,,,,,,,,,,,,,,,,,,,,,,,,,,,,,Sep6Silent1,1,2022_Sep_06_1126,ProdSingRedoBetween,2021.2.3,59.454446
50,0,50,0,,,,,,,,,,,,,,,,,,,,,,,,,,578.3828188,None,dispute,32,51,silent,blue,576.3833872,None,None,576.3833872,None,,,,,,,,,,,,,,,,,,,,,,,,,,,,,,,,,,,Sep6Silent1,1,2022_Sep_06_1126,ProdSingRedoBetween,2021.2.3,59.454446
51,0,51,0,,,,,,,,,,,,,,,,,,,,,,,,,,580.8852539,None,comfort,60,52,silent,red,578.8855237,None,None,578.8855237,None,,,,,,,,,,,,,,,,,,,,,,,,,,,,,,,,,,,Sep6Silent1,1,2022_Sep_06_1126,ProdSingRedoBetween,2021.2.3,59.454446
52,0,52,0,,,,,,,,,,,,,,,,,,,,,,,,,,583.3877679,None,cover,26,53,silent,yellow,581.3882614,None,None,581.3882614,None,,,,,,,,,,,,,,,,,,,,,,,,,,,,,,,,,,,Sep6Silent1,1,2022_Sep_06_1126,ProdSingRedoBetween,2021.2.3,59.454446
53,0,53,0,,,,,,,,,,,,,,,,,,,,,,,,,,585.8907166,None,second,61,54,silent,red,583.8910738,None,None,583.8910738,None,,,,,,,,,,,,,,,,,,,,,,,,,,,,,,,,,,,Sep6Silent1,1,2022_Sep_06_1126,ProdSingRedoBetween,2021.2.3,59.454446
54,0,54,0,,,,,,,,,,,,,,,,,,,,,,,,,,588.4096283,None,cousin,62,55,silent,red,586.405238,None,None,586.405238,None,,,,,,,,,,,,,,,,,,,,,,,,,,,,,,,,,,,Sep6Silent1,1,2022_Sep_06_1126,ProdSingRedoBetween,2021.2.3,59.454446
55,0,55,0,,,,,,,,,,,,,,,,,,,,,,,,,,590.911945,None,bureau,3,56,silent,yellow,588.9111451,None,None,588.9111451,None,,,,,,,,,,,,,,,,,,,,,,,,,,,,,,,,,,,Sep6Silent1,1,2022_Sep_06_1126,ProdSingRedoBetween,2021.2.3,59.454446
56,0,56,0,,,,,,,,,,,,,,,,,,,,,,,,,,593.4141064,None,quiet,38,57,silent,blue,591.4145813,None,None,591.4145813,None,,,,,,,,,,,,,,,,,,,,,,,,,,,,,,,,,,,Sep6Silent1,1,2022_Sep_06_1126,ProdSingRedoBetween,2021.2.3,59.454446
57,0,57,0,,,,,,,,,,,,,,,,,,,,,,,,,,595.9169986,None,hunger,63,58,silent,red,593.9156663,None,None,593.9156663,None,,,,,,,,,,,,,,,,,,,,,,,,,,,,,,,,,,,Sep6Silent1,1,2022_Sep_06_1126,ProdSingRedoBetween,2021.2.3,59.454446
58,0,58,0,,,,,,,,,,,,,,,,,,,,,,,,,,598.4196435,None,close,6,59,silent,yellow,596.4202973,None,None,596.4202973,None,,,,,,,,,,,,,,,,,,,,,,,,,,,,,,,,,,,Sep6Silent1,1,2022_Sep_06_1126,ProdSingRedoBetween,2021.2.3,59.454446
59,0,59,0,,,,,,,,,,,,,,,,,,,,,,,,,,600.9218984,None,republic,9,60,silent,yellow,598.9222301,None,None,598.9222301,None,,,,,,,,,,,,,,,,,,,,,,,,,,,,,,,,,,,Sep6Silent1,1,2022_Sep_06_1126,ProdSingRedoBetween,2021.2.3,59.454446
60,0,60,0,,,,,,,,,,,,,,,,,,,,,,,,,,603.4244289,None,south,35,61,silent,blue,601.4245512,None,None,601.4245512,None,,,,,,,,,,,,,,,,,,,,,,,,,,,,,,,,,,,Sep6Silent1,1,2022_Sep_06_1126,ProdSingRedoBetween,2021.2.3,59.454446
61,0,61,0,,,,,,,,,,,,,,,,,,,,,,,,,,605.9438499,None,fashion,68,62,silent,red,603.9322621,None,None,603.9322621,None,,,,,,,,,,,,,,,,,,,,,,,,,,,,,,,,,,,Sep6Silent1,1,2022_Sep_06_1126,ProdSingRedoBetween,2021.2.3,59.454446
62,0,62,0,,,,,,,,,,,,,,,,,,,,,,,,,,608.4469097,None,region,50,63,silent,blue,606.4450202,None,None,606.4450202,None,,,,,,,,,,,,,,,,,,,,,,,,,,,,,,,,,,,Sep6Silent1,1,2022_Sep_06_1126,ProdSingRedoBetween,2021.2.3,59.454446
63,0,63,0,,,,,,,,,,,,,,,,,,,,,,,,,,610.9485471,None,pretty,37,64,silent,blue,608.9494556,None,None,608.9494556,None,,,,,,,,,,,,,,,,,,,,,,,,,,,,,,,,,,,Sep6Silent1,1,2022_Sep_06_1126,ProdSingRedoBetween,2021.2.3,59.454446
64,0,64,0,,,,,,,,,,,,,,,,,,,,,,,,,,613.4512276,None,stranger,22,65,silent,yellow,611.4507241,None,None,611.4507241,None,,,,,,,,,,,,,,,,,,,,,,,,,,,,,,,,,,,Sep6Silent1,1,2022_Sep_06_1126,ProdSingRedoBetween,2021.2.3,59.454446
65,0,65,0,,,,,,,,,,,,,,,,,,,,,,,,,,615.9536904,None,permit,48,66,silent,blue,613.9525573,None,None,613.9525573,None,,,,,,,,,,,,,,,,,,,,,,,,,,,,,,,,,,,Sep6Silent1,1,2022_Sep_06_1126,ProdSingRedoBetween,2021.2.3,59.454446
66,0,66,0,,,,,,,,,,,,,,,,,,,,,,,,,,618.4558566,None,thing,34,67,silent,blue,616.4549531,None,None,616.4549531,None,,,,,,,,,,,,,,,,,,,,,,,,,,,,,,,,,,,Sep6Silent1,1,2022_Sep_06_1126,ProdSingRedoBetween,2021.2.3,59.454446
67,0,67,0,,,,,,,,,,,,,,,,,,,,,,,,,,620.9586309,None,sound,40,68,silent,blue,618.9585382,None,None,618.9585382,None,,,,,,,,,,,,,,,,,,,,,,,,,,,,,,,,,,,Sep6Silent1,1,2022_Sep_06_1126,ProdSingRedoBetween,2021.2.3,59.454446
68,0,68,0,,,,,,,,,,,,,,,,,,,,,,,,,,623.4609591,None,budget,13,69,silent,yellow,621.4602558,None,None,621.4602558,None,,,,,,,,,,,,,,,,,,,,,,,,,,,,,,,,,,,Sep6Silent1,1,2022_Sep_06_1126,ProdSingRedoBetween,2021.2.3,59.454446
69,0,69,0,,,,,,,,,,,,,,,,,,,,,,,,,,625.9635787,None,resistance,27,70,silent,yellow,623.9632753,None,None,623.9632753,None,,,,,,,,,,,,,,,,,,,,,,,,,,,,,,,,,,,Sep6Silent1,1,2022_Sep_06_1126,ProdSingRedoBetween,2021.2.3,59.454446
70,0,70,0,,,,,,,,,,,,,,,,,,,,,,,,,,628.4659173,None,range,58,71,silent,blue,626.4654555,None,None,626.4654555,None,,,,,,,,,,,,,,,,,,,,,,,,,,,,,,,,,,,Sep6Silent1,1,2022_Sep_06_1126,ProdSingRedoBetween,2021.2.3,59.454446
71,0,71,0,,,,,,,,,,,,,,,,,,,,,,,,,,630.9684905,None,concern,56,72,silent,blue,628.9676006,None,None,628.9676006,None,,,,,,,,,,,,,,,,,,,,,,,,,,,,,,,,,,,Sep6Silent1,1,2022_Sep_06_1126,ProdSingRedoBetween,2021.2.3,59.454446
72,0,72,0,,,,,,,,,,,,,,,,,,,,,,,,,,633.4876396,None,cross,1,73,silent,yellow,631.4800022,None,None,631.4800022,None,,,,,,,,,,,,,,,,,,,,,,,,,,,,,,,,,,,Sep6Silent1,1,2022_Sep_06_1126,ProdSingRedoBetween,2021.2.3,59.454446
73,0,73,0,,,,,,,,,,,,,,,,,,,,,,,,,,635.9901877,None,level,39,74,silent,blue,633.990109,None,None,633.990109,None,,,,,,,,,,,,,,,,,,,,,,,,,,,,,,,,,,,Sep6Silent1,1,2022_Sep_06_1126,ProdSingRedoBetween,2021.2.3,59.454446
74,0,74,0,,,,,,,,,,,,,,,,,,,,,,,,,,638.4928851,None,guide,54,75,silent,blue,636.4914816,None,None,636.4914816,None,,,,,,,,,,,,,,,,,,,,,,,,,,,,,,,,,,,Sep6Silent1,1,2022_Sep_06_1126,ProdSingRedoBetween,2021.2.3,59.454446
75,0,75,0,,,,,,,,,,,,,,,,,,,,,,,,,,641.0120429,None,employment,45,76,silent,blue,639.0017599,None,None,639.0017599,None,,,,,,,,,,,,,,,,,,,,,,,,,,,,,,,,,,,Sep6Silent1,1,2022_Sep_06_1126,ProdSingRedoBetween,2021.2.3,59.454446
76,0,76,0,,,,,,,,,,,,,,,,,,,,,,,,,,643.514197,None,graduate,16,77,silent,yellow,641.5142963,None,None,641.5142963,None,,,,,,,,,,,,,,,,,,,,,,,,,,,,,,,,,,,Sep6Silent1,1,2022_Sep_06_1126,ProdSingRedoBetween,2021.2.3,59.454446
77,0,77,0,,,,,,,,,,,,,,,,,,,,,,,,,,646.0171328,None,recall,7,78,silent,yellow,644.015921,None,None,644.015921,None,,,,,,,,,,,,,,,,,,,,,,,,,,,,,,,,,,,Sep6Silent1,1,2022_Sep_06_1126,ProdSingRedoBetween,2021.2.3,59.454446
78,0,78,0,,,,,,,,,,,,,,,,,,,,,,,,,,648.536059,None,angle,78,79,silent,red,646.5263126,None,None,646.5263126,None,,,,,,,,,,,,,,,,,,,,,,,,,,,,,,,,,,,Sep6Silent1,1,2022_Sep_06_1126,ProdSingRedoBetween,2021.2.3,59.454446
79,0,79,0,,,,,,,,,,,,,,,,,,,,,,,,,,651.0383633,None,native,46,80,silent,blue,649.0377275,None,None,649.0377275,None,,,,,,,,,,,,,,,,,,,,,,,,,,,,,,,,,,,Sep6Silent1,1,2022_Sep_06_1126,ProdSingRedoBetween,2021.2.3,59.454446
80,0,80,0,,,,,,,,,,,,,,,,,,,,,,,,,,653.5412314,None,vision,71,81,silent,red,651.5411069,None,None,651.5411069,None,,,,,,,,,,,,,,,,,,,,,,,,,,,,,,,,,,,Sep6Silent1,1,2022_Sep_06_1126,ProdSingRedoBetween,2021.2.3,59.454446
81,0,81,0,,,,,,,,,,,,,,,,,,,,,,,,,,656.0436608,None,music,64,82,silent,red,654.0442555,None,None,654.0442555,None,,,,,,,,,,,,,,,,,,,,,,,,,,,,,,,,,,,Sep6Silent1,1,2022_Sep_06_1126,ProdSingRedoBetween,2021.2.3,59.454446
82,0,82,0,,,,,,,,,,,,,,,,,,,,,,,,,,658.5628865,None,science,65,83,silent,red,656.5523212,None,None,656.5523212,None,,,,,,,,,,,,,,,,,,,,,,,,,,,,,,,,,,,Sep6Silent1,1,2022_Sep_06_1126,ProdSingRedoBetween,2021.2.3,59.454446
83,0,83,0,,,,,,,,,,,,,,,,,,,,,,,,,,661.0653236,None,force,4,84,silent,yellow,659.0646933,None,None,659.0646933,None,,,,,,,,,,,,,,,,,,,,,,,,,,,,,,,,,,,Sep6Silent1,1,2022_Sep_06_1126,ProdSingRedoBetween,2021.2.3,59.454446
84,0,84,0,,,,,,,,,,,,,,,,,,,,,,,,,,663.5679445,None,shock,5,85,silent,yellow,661.5686598,None,None,661.5686598,None,,,,,,,,,,,,,,,,,,,,,,,,,,,,,,,,,,,Sep6Silent1,1,2022_Sep_06_1126,ProdSingRedoBetween,2021.2.3,59.454446
85,0,85,0,,,,,,,,,,,,,,,,,,,,,,,,,,666.0699172,None,commercial,47,86,silent,blue,664.0689571,None,None,664.0689571,None,,,,,,,,,,,,,,,,,,,,,,,,,,,,,,,,,,,Sep6Silent1,1,2022_Sep_06_1126,ProdSingRedoBetween,2021.2.3,59.454446
86,0,86,0,,,,,,,,,,,,,,,,,,,,,,,,,,668.573657,None,right,67,87,silent,red,666.5709439,None,None,666.5709439,None,,,,,,,,,,,,,,,,,,,,,,,,,,,,,,,,,,,Sep6Silent1,1,2022_Sep_06_1126,ProdSingRedoBetween,2021.2.3,59.454446
87,0,87,0,,,,,,,,,,,,,,,,,,,,,,,,,,671.0753612,None,stand,86,88,silent,red,669.0755248,None,None,669.0755248,None,,,,,,,,,,,,,,,,,,,,,,,,,,,,,,,,,,,Sep6Silent1,1,2022_Sep_06_1126,ProdSingRedoBetween,2021.2.3,59.454446
88,0,88,0,,,,,,,,,,,,,,,,,,,,,,,,,,673.5778592,None,member,85,89,silent,red,671.5763615,None,None,671.5763615,None,,,,,,,,,,,,,,,,,,,,,,,,,,,,,,,,,,,Sep6Silent1,1,2022_Sep_06_1126,ProdSingRedoBetween,2021.2.3,59.454446
89,0,89,0,,,,,,,,,,,,,,,,,,,,,,,,,,676.0801547,None,report,28,90,silent,yellow,674.0807361,None,None,674.0807361,None,,,,,,,,,,,,,,,,,,,,,,,,,,,,,,,,,,,Sep6Silent1,1,2022_Sep_06_1126,ProdSingRedoBetween,2021.2.3,59.454446
,,,,,,,,,,,,,,,,,,,,,,,,,,,,,,,,,,,,,,,,,676.5806476,None,k,49.4094937,676.5806476,None,,,,,,,,,,,,,,,,,,,,,,,,,,,,,Sep6Silent1,1,2022_Sep_06_1126,ProdSingRedoBetween,2021.2.3,59.454446
,,,,0,0,0,0,,,,,,,,,,,,,,,,,,,,,,739.5948104,None,,,,,,,,,,,,,,,,,tough,150,1,silent,new,null,726.5172016,None,726.5172016,None,2,7.6889267,726.5172016,None,7.6889267,734.2236287,None,734.7396803,None,734.7396803,None,n,4.8263643,734.7396803,None,4.8263643,,,Sep6Silent1,1,2022_Sep_06_1126,ProdSingRedoBetween,2021.2.3,59.454446
,,,,1,0,1,0,,,,,,,,,,,,,,,,,,,,,,748.1540264,None,,,,,,,,,,,,,,,,,second,61,2,silent,old,red,740.0971955,None,740.0971955,None,6,5.59694,740.0971955,None,5.59694,745.7190237,None,746.2340758,None,746.2340758,None,r,1.8920346,746.2340758,None,1.8920346,,,Sep6Silent1,1,2022_Sep_06_1126,ProdSingRedoBetween,2021.2.3,59.454446
,,,,2,0,2,0,,,,,,,,,,,,,,,,,,,,,,755.6437811,None,,,,,,,,,,,,,,,,,incident,98,3,silent,new,null,748.6559171,None,748.6559171,None,2,5.0062415,748.6559171,None,5.0062415,753.6928048,None,754.1929221,None,754.1929221,None,n,1.4212733,754.1929221,None,1.4212733,,,Sep6Silent1,1,2022_Sep_06_1126,ProdSingRedoBetween,2021.2.3,59.454446
,,,,3,0,3,0,,,,,,,,,,,,,,,,,,,,,,760.2823117,None,,,,,,,,,,,,,,,,,permit,48,4,silent,old,blue,756.1471063,None,756.1471063,None,6,1.827036,756.1471063,None,1.827036,757.9977512,None,758.5129343,None,758.5129343,None,r,1.7494667,758.5129343,None,1.7494667,,,Sep6Silent1,1,2022_Sep_06_1126,ProdSingRedoBetween,2021.2.3,59.454446
,,,,4,0,4,0,,,,,,,,,,,,,,,,,,,,,,766.0541296,None,,,,,,,,,,,,,,,,,light,21,5,silent,old,yellow,760.7829794,None,760.7829794,None,6,3.75905,760.7829794,None,3.75905,764.5710565,None,765.0860605,None,765.0860605,None,r,0.9441483,765.0860605,None,0.9441483,,,Sep6Silent1,1,2022_Sep_06_1126,ProdSingRedoBetween,2021.2.3,59.454446
,,,,5,0,5,0,,,,,,,,,,,,,,,,,,,,,,772.4275596,None,,,,,,,,,,,,,,,,,force,4,6,silent,old,yellow,766.5559342,None,766.5559342,None,6,4.3221643,766.5559342,None,4.3221643,770.9145099,None,771.4258535,None,771.4258535,None,r,0.9722193,771.4258535,None,0.9722193,,,Sep6Silent1,1,2022_Sep_06_1126,ProdSingRedoBetween,2021.2.3,59.454446
,,,,6,0,6,0,,,,,,,,,,,,,,,,,,,,,,777.8829669,None,,,,,,,,,,,,,,,,,candidate,143,7,silent,new,null,772.9297777,None,772.9297777,None,1,3.3883955,772.9297777,None,3.3883955,776.3488915,None,776.8645501,None,776.8645501,None,n,0.9895423,776.8645501,None,0.9895423,,,Sep6Silent1,1,2022_Sep_06_1126,ProdSingRedoBetween,2021.2.3,59.454446
,,,,7,0,7,0,,,,,,,,,,,,,,,,,,,,,,781.4197808,None,,,,,,,,,,,,,,,,,congress,135,8,silent,new,null,778.3846862,None,778.3846862,None,6,1.877504,778.3846862,None,1.877504,780.2864861,None,780.8020613,None,780.8020613,None,r,0.5880107,780.8020613,None,0.5880107,,,Sep6Silent1,1,2022_Sep_06_1126,ProdSingRedoBetween,2021.2.3,59.454446
,,,,8,0,8,0,,,,,,,,,,,,,,,,,,,,,,788.5433977,None,,,,,,,,,,,,,,,,,property,173,9,silent,new,null,781.9304878,None,781.9304878,None,5,5.0516486,781.9304878,None,5.0516486,787.0104407,None,787.5257119,None,787.5257119,None,f,0.9924939,787.5257119,None,0.9924939,,,Sep6Silent1,1,2022_Sep_06_1126,ProdSingRedoBetween,2021.2.3,59.454446
,,,,9,0,9,0,,,,,,,,,,,,,,,,,,,,,,795.3336681,None,,,,,,,,,,,,,,,,,block,168,10,silent,new,null,789.0469969,None,789.0469969,None,4,5.1834767,789.0469969,None,5.1834767,794.258911,None,794.7656156,None,794.7656156,None,f,0.5445662,794.7656156,None,0.5445662,,,Sep6Silent1,1,2022_Sep_06_1126,ProdSingRedoBetween,2021.2.3,59.454446
,,,,10,0,10,0,,,,,,,,,,,,,,,,,,,,,,800.9903697,None,,,,,,,,,,,,,,,,,question,120,11,silent,new,null,795.8362935,None,795.8362935,None,1,3.3698278,795.8362935,None,3.3698278,799.2398747,None,799.7547313,None,799.7547313,None,r,1.2034111,799.7547313,None,1.2034111,,,Sep6Silent1,1,2022_Sep_06_1126,ProdSingRedoBetween,2021.2.3,59.454446
,,,,11,0,11,0,,,,,,,,,,,,,,,,,,,,,,805.928478,None,,,,,,,,,,,,,,,,,grade,156,12,silent,new,null,801.4993153,None,801.4993153,None,3,2.8348178,801.4993153,None,2.8348178,804.3605698,None,804.8759644,None,804.8759644,None,f,1.0343329,804.8759644,None,1.0343329,,,Sep6Silent1,1,2022_Sep_06_1126,ProdSingRedoBetween,2021.2.3,59.454446
,,,,12,0,12,0,,,,,,,,,,,,,,,,,,,,,,812.3836982,None,,,,,,,,,,,,,,,,,finance,145,13,silent,new,null,806.4500496,None,806.4500496,None,3,4.8201868,806.4500496,None,4.8201868,811.3046595,None,811.8159356,None,811.8159356,None,f,0.5422267,811.8159356,None,0.5422267,,,Sep6Silent1,1,2022_Sep_06_1126,ProdSingRedoBetween,2021.2.3,59.454446
,,,,13,0,13,0,,,,,,,,,,,,,,,,,,,,,,816.3876565,None,,,,,,,,,,,,,,,,,stranger,22,14,silent,old,yellow,812.8866698,None,812.8866698,None,6,2.4075428,812.8866698,None,2.4075428,815.3219113,None,815.8368608,None,815.8368608,None,r,0.5292619,815.8368608,None,0.5292619,,,Sep6Silent1,1,2022_Sep_06_1126,ProdSingRedoBetween,2021.2.3,59.454446
,,,,14,0,14,0,,,,,,,,,,,,,,,,,,,,,,821.7294656,None,,,,,,,,,,,,,,,,,graduate,16,15,silent,old,yellow,816.8902483,None,816.8902483,None,6,3.8518581,816.8902483,None,3.8518581,820.7603786,None,821.2761155,None,821.2761155,None,r,0.4339951,821.2761155,None,0.4339951,,,Sep6Silent1,1,2022_Sep_06_1126,ProdSingRedoBetween,2021.2.3,59.454446
,,,,15,0,15,0,,,,,,,,,,,,,,,,,,,,,,827.8832747,None,,,,,,,,,,,,,,,,,sound,40,16,silent,old,blue,822.2480689,None,822.2480689,None,2,3.9983478,822.2480689,None,3.9983478,826.2668828,None,826.7816402,None,826.7816402,None,f,1.0725027,826.7816402,None,1.0725027,,,Sep6Silent1,1,2022_Sep_06_1126,ProdSingRedoBetween,2021.2.3,59.454446
,,,,16,0,16,0,,,,,,,,,,,,,,,,,,,,,,832.7037778,None,,,,,,,,,,,,,,,,,stand,86,17,silent,old,red,828.3855804,None,828.3855804,None,1,2.5885317,828.3855804,None,2.5885317,831.0043494,None,831.5191978,None,831.5191978,None,n,1.1589575,831.5191978,None,1.1589575,,,Sep6Silent1,1,2022_Sep_06_1126,ProdSingRedoBetween,2021.2.3,59.454446
,,,,17,0,17,0,,,,,,,,,,,,,,,,,,,,,,838.0096278,None,,,,,,,,,,,,,,,,,revolution,106,18,silent,new,null,833.2070081,None,833.2070081,None,3,3.6711543,833.2070081,None,3.6711543,836.909849,None,837.4251432,None,837.4251432,None,f,0.5570045,837.4251432,None,0.5570045,,,Sep6Silent1,1,2022_Sep_06_1126,ProdSingRedoBetween,2021.2.3,59.454446
,,,,18,0,18,0,,,,,,,,,,,,,,,,,,,,,,843.6494955,None,,,,,,,,,,,,,,,,,recall,7,19,silent,old,yellow,838.5136163,None,838.5136163,None,1,3.5165351,838.5136163,None,3.5165351,842.0540609,None,842.5638051,None,842.5638051,None,n,1.0583363,842.5638051,None,1.0583363,,,Sep6Silent1,1,2022_Sep_06_1126,ProdSingRedoBetween,2021.2.3,59.454446
,,,,19,0,19,0,,,,,,,,,,,,,,,,,,,,,,848.9875472,None,,,,,,,,,,,,,,,,,bicycle,107,20,silent,new,null,844.1514744,None,844.1514744,None,1,3.686724,844.1514744,None,3.686724,847.87077,None,848.3861068,None,848.3861068,None,n,0.5720513,848.3861068,None,0.5720513,,,Sep6Silent1,1,2022_Sep_06_1126,ProdSingRedoBetween,2021.2.3,59.454446
,,,,20,0,20,0,,,,,,,,,,,,,,,,,,,,,,853.7933556,None,,,,,,,,,,,,,,,,,religion,55,21,silent,old,blue,849.4886429,None,849.4886429,None,6,1.8294797,849.4886429,None,1.8294797,851.3470061,None,851.8571189,None,851.8571189,None,r,1.9094346,851.8571189,None,1.9094346,,,Sep6Silent1,1,2022_Sep_06_1126,ProdSingRedoBetween,2021.2.3,59.454446
,,,,21,0,21,0,,,,,,,,,,,,,,,,,,,,,,858.5475645,None,,,,,,,,,,,,,,,,,pancakes,129,22,silent,new,null,854.3034439,None,854.3034439,None,1,2.6389207,854.3034439,None,2.6389207,856.9647067,None,857.4807112,None,857.4807112,None,n,1.0457324,857.4807112,None,1.0457324,,,Sep6Silent1,1,2022_Sep_06_1126,ProdSingRedoBetween,2021.2.3,59.454446
,,,,22,0,22,0,,,,,,,,,,,,,,,,,,,,,,863.4677643,None,,,,,,,,,,,,,,,,,answer,137,23,silent,new,null,859.049502,None,859.049502,None,1,3.1811597,859.049502,None,3.1811597,862.2526127,None,862.7667643,None,862.7667643,None,n,0.671432,862.7667643,None,0.671432,,,Sep6Silent1,1,2022_Sep_06_1126,ProdSingRedoBetween,2021.2.3,59.454446
,,,,23,0,23,0,,,,,,,,,,,,,,,,,,,,,,867.0218334,None,,,,,,,,,,,,,,,,,republic,9,24,silent,old,yellow,863.970966,None,863.970966,None,6,1.8912309,863.970966,None,1.8912309,865.8892962,None,866.4038593,None,866.4038593,None,r,0.5863126,866.4038593,None,0.5863126,,,Sep6Silent1,1,2022_Sep_06_1126,ProdSingRedoBetween,2021.2.3,59.454446
,,,,24,0,24,0,,,,,,,,,,,,,,,,,,,,,,875.3135339,None,,,,,,,,,,,,,,,,,close,6,25,silent,old,yellow,867.5248849,None,867.5248849,None,2,6.681317,867.5248849,None,6.681317,874.2310034,None,874.7467527,None,874.7467527,None,f,0.5476592,874.7467527,None,0.5476592,,,Sep6Silent1,1,2022_Sep_06_1126,ProdSingRedoBetween,2021.2.3,59.454446
,,,,25,0,25,0,,,,,,,,,,,,,,,,,,,,,,879.551862,None,,,,,,,,,,,,,,,,,touch,167,26,silent,new,null,875.8200878,None,875.8200878,None,1,1.8981689,875.8200878,None,1.8981689,877.7503905,None,878.2655503,None,878.2655503,None,n,1.2606455,878.2655503,None,1.2606455,,,Sep6Silent1,1,2022_Sep_06_1126,ProdSingRedoBetween,2021.2.3,59.454446
,,,,26,0,26,0,,,,,,,,,,,,,,,,,,,,,,883.6216893,None,,,,,,,,,,,,,,,,,mechanical,147,27,silent,new,null,880.0536717,None,880.0536717,None,1,2.2165002,880.0536717,None,2.2165002,882.2926581,None,882.8035424,None,882.8035424,None,n,0.7946746,882.8035424,None,0.7946746,,,Sep6Silent1,1,2022_Sep_06_1126,ProdSingRedoBetween,2021.2.3,59.454446
,,,,27,0,27,0,,,,,,,,,,,,,,,,,,,,,,888.0107483,None,,,,,,,,,,,,,,,,,science,65,28,silent,old,red,884.1248115,None,884.1248115,None,4,2.8253761,884.1248115,None,2.8253761,886.9768499,None,887.4920512,None,887.4920512,None,f,0.4901327,887.4920512,None,0.4901327,,,Sep6Silent1,1,2022_Sep_06_1126,ProdSingRedoBetween,2021.2.3,59.454446
,,,,28,0,28,0,,,,,,,,,,,,,,,,,,,,,,892.5637912,None,,,,,,,,,,,,,,,,,personnel,153,29,silent,new,null,888.5286788,None,888.5286788,None,1,2.3656777,888.5286788,None,2.3656777,890.9159174,None,891.4290643,None,891.4290643,None,n,1.105174,891.4290643,None,1.105174,,,Sep6Silent1,1,2022_Sep_06_1126,ProdSingRedoBetween,2021.2.3,59.454446
,,,,29,0,29,0,,,,,,,,,,,,,,,,,,,,,,895.8675619,None,,,,,,,,,,,,,,,,,bureau,3,30,silent,old,yellow,893.0667126,None,893.0667126,None,6,1.707535,893.0667126,None,1.707535,894.8009628,None,895.3167635,None,895.3167635,None,r,0.5214455,895.3167635,None,0.5214455,,,Sep6Silent1,1,2022_Sep_06_1126,ProdSingRedoBetween,2021.2.3,59.454446
,,,,30,0,30,0,,,,,,,,,,,,,,,,,,,,,,899.1386329,None,,,,,,,,,,,,,,,,,community,75,31,silent,old,red,896.3832184,None,896.3832184,None,6,1.6949728,896.3832184,None,1.6949728,898.1049634,None,898.6199732,None,898.6199732,None,r,0.4902074,898.6199732,None,0.4902074,,,Sep6Silent1,1,2022_Sep_06_1126,ProdSingRedoBetween,2021.2.3,59.454446
,,,,31,0,31,0,,,,,,,,,,,,,,,,,,,,,,903.0078592,None,,,,,,,,,,,,,,,,,count,88,32,silent,old,red,899.654634,None,899.654634,None,6,2.2715596,899.654634,None,2.2715596,901.9582507,None,902.4738274,None,902.4738274,None,r,0.5164893,902.4738274,None,0.5164893,,,Sep6Silent1,1,2022_Sep_06_1126,ProdSingRedoBetween,2021.2.3,59.454446
,,,,32,0,32,0,,,,,,,,,,,,,,,,,,,,,,906.3782339,None,,,,,,,,,,,,,,,,,hunger,63,33,silent,old,red,903.5104842,None,903.5104842,None,6,2.0077399,903.5104842,None,2.0077399,905.5451963,None,906.060816,None,906.060816,None,r,0.2896011,906.060816,None,0.2896011,,,Sep6Silent1,1,2022_Sep_06_1126,ProdSingRedoBetween,2021.2.3,59.454446
,,,,33,0,33,0,,,,,,,,,,,,,,,,,,,,,,909.7642359,None,,,,,,,,,,,,,,,,,commercial,47,34,silent,old,blue,906.8803969,None,906.8803969,None,6,2.0538356,906.8803969,None,2.0538356,908.965266,None,909.4808488,None,909.4808488,None,r,0.2533742,909.4808488,None,0.2533742,,,Sep6Silent1,1,2022_Sep_06_1126,ProdSingRedoBetween,2021.2.3,59.454446
,,,,34,0,34,0,,,,,,,,,,,,,,,,,,,,,,913.8359215,None,,,,,,,,,,,,,,,,,build,96,35,silent,new,null,910.2670389,None,910.2670389,None,5,2.63516,910.2670389,None,2.63516,912.9191395,None,913.4347936,None,913.4347936,None,f,0.3714458,913.4347936,None,0.3714458,,,Sep6Silent1,1,2022_Sep_06_1126,ProdSingRedoBetween,2021.2.3,59.454446
,,,,35,0,35,0,,,,,,,,,,,,,,,,,,,,,,918.5900433,None,,,,,,,,,,,,,,,,,disease,121,36,silent,new,null,914.3384479,None,914.3384479,None,4,3.291764,914.3384479,None,3.291764,917.6579866,None,918.1731716,None,918.1731716,None,f,0.3930382,918.1731716,None,0.3930382,,,Sep6Silent1,1,2022_Sep_06_1126,ProdSingRedoBetween,2021.2.3,59.454446
,,,,36,0,36,0,,,,,,,,,,,,,,,,,,,,,,922.1272974,None,,,,,,,,,,,,,,,,,point,30,37,silent,old,blue,919.0931126,None,919.0931126,None,6,1.9771018,919.0931126,None,1.9771018,921.0949583,None,921.6095647,None,921.6095647,None,f,0.5006167,921.6095647,None,0.5006167,,,Sep6Silent1,1,2022_Sep_06_1126,ProdSingRedoBetween,2021.2.3,59.454446
,,,,37,0,37,0,,,,,,,,,,,,,,,,,,,,,,927.0494746,None,,,,,,,,,,,,,,,,,estate,8,38,silent,old,yellow,922.6296949,None,922.6296949,None,6,3.432571,922.6296949,None,3.432571,926.0833057,None,926.5984034,None,926.5984034,None,r,0.4319536,926.5984034,None,0.4319536,,,Sep6Silent1,1,2022_Sep_06_1126,ProdSingRedoBetween,2021.2.3,59.454446
,,,,38,0,38,0,,,,,,,,,,,,,,,,,,,,,,932.1037295,None,,,,,,,,,,,,,,,,,raise,148,39,silent,new,null,927.551855,None,927.551855,None,3,3.5346033,927.551855,None,3.5346033,931.1238149,None,931.6355491,None,931.6355491,None,f,0.4427289,931.6355491,None,0.4427289,,,Sep6Silent1,1,2022_Sep_06_1126,ProdSingRedoBetween,2021.2.3,59.454446
,,,,39,0,39,0,,,,,,,,,,,,,,,,,,,,,,938.2595938,None,,,,,,,,,,,,,,,,,vision,71,40,silent,old,red,932.606605,None,932.606605,None,4,4.2635426,932.606605,None,4.2635426,936.8943046,None,937.4089139,None,937.4089139,None,f,0.8292299,937.4089139,None,0.8292299,,,Sep6Silent1,1,2022_Sep_06_1126,ProdSingRedoBetween,2021.2.3,59.454446
,,,,40,0,40,0,,,,,,,,,,,,,,,,,,,,,,943.514956,None,,,,,,,,,,,,,,,,,narrow,169,41,silent,new,null,938.7628172,None,938.7628172,None,6,3.8273539,938.7628172,None,3.8273539,942.6194316,None,943.13263,None,943.13263,None,r,0.3535874,943.13263,None,0.3535874,,,Sep6Silent1,1,2022_Sep_06_1126,ProdSingRedoBetween,2021.2.3,59.454446
,,,,41,0,41,0,,,,,,,,,,,,,,,,,,,,,,947.6195049,None,,,,,,,,,,,,,,,,,budget,13,42,silent,old,yellow,944.0177348,None,944.0177348,None,5,2.4685079,944.0177348,None,2.4685079,946.5194103,None,947.0350417,None,947.0350417,None,f,0.5552137,947.0350417,None,0.5552137,,,Sep6Silent1,1,2022_Sep_06_1126,ProdSingRedoBetween,2021.2.3,59.454446
,,,,42,0,42,0,,,,,,,,,,,,,,,,,,,,,,951.5561415,None,,,,,,,,,,,,,,,,,addition,83,43,silent,old,red,948.1218385,None,948.1218385,None,6,2.4043742,948.1218385,None,2.4043742,950.5568175,None,951.071546,None,951.071546,None,r,0.4625615,951.071546,None,0.4625615,,,Sep6Silent1,1,2022_Sep_06_1126,ProdSingRedoBetween,2021.2.3,59.454446
,,,,43,0,43,0,,,,,,,,,,,,,,,,,,,,,,959.8319159,None,,,,,,,,,,,,,,,,,right,67,44,silent,old,red,952.0584539,None,952.0584539,None,5,6.6680192,952.0584539,None,6.6680192,958.7484429,None,959.2642227,None,959.2642227,None,f,0.5420258,959.2642227,None,0.5420258,,,Sep6Silent1,1,2022_Sep_06_1126,ProdSingRedoBetween,2021.2.3,59.454446
,,,,44,0,44,0,,,,,,,,,,,,,,,,,,,,,,965.5698545,None,,,,,,,,,,,,,,,,,universal,154,45,silent,new,null,960.3469856,None,960.3469856,None,5,4.0671624,960.3469856,None,4.0671624,964.4389603,None,964.9545729,None,964.9545729,None,f,0.58761,964.9545729,None,0.58761,,,Sep6Silent1,1,2022_Sep_06_1126,ProdSingRedoBetween,2021.2.3,59.454446
,,,,45,0,45,0,,,,,,,,,,,,,,,,,,,,,,970.6757022,None,,,,,,,,,,,,,,,,,watch,91,46,silent,new,null,966.0732626,None,966.0732626,None,1,3.1728957,966.0732626,None,3.1728957,969.2761389,None,969.7910883,None,969.7910883,None,n,0.8630621,969.7910883,None,0.8630621,,,Sep6Silent1,1,2022_Sep_06_1126,ProdSingRedoBetween,2021.2.3,59.454446
,,,,46,0,46,0,,,,,,,,,,,,,,,,,,,,,,976.7326023,None,,,,,,,,,,,,,,,,,benefit,139,47,silent,new,null,971.178283,None,971.178283,None,6,4.8603121,971.178283,None,4.8603121,976.0660567,None,976.5812185,None,976.5812185,None,r,0.1289491,976.5812185,None,0.1289491,,,Sep6Silent1,1,2022_Sep_06_1126,ProdSingRedoBetween,2021.2.3,59.454446
,,,,47,0,47,0,,,,,,,,,,,,,,,,,,,,,,979.7177889,None,,,,,,,,,,,,,,,,,growth,77,48,silent,old,red,977.2506969,None,977.2506969,None,6,1.571469,977.2506969,None,1.571469,978.852737,None,979.3812112,None,979.3812112,None,r,0.3050527,979.3812112,None,0.3050527,,,Sep6Silent1,1,2022_Sep_06_1126,ProdSingRedoBetween,2021.2.3,59.454446
,,,,48,0,48,0,,,,,,,,,,,,,,,,,,,,,,984.4564572,None,,,,,,,,,,,,,,,,,position,138,49,silent,new,null,980.2208382,None,980.2208382,None,6,3.329355,980.2208382,None,3.329355,983.5734992,None,984.0888616,None,984.0888616,None,r,0.3496418,984.0888616,None,0.3496418,,,Sep6Silent1,1,2022_Sep_06_1126,ProdSingRedoBetween,2021.2.3,59.454446
,,,,49,0,49,0,,,,,,,,,,,,,,,,,,,,,,988.6097766,None,,,,,,,,,,,,,,,,,review,42,50,silent,old,blue,984.9589469,None,984.9589469,None,6,2.943305,984.9589469,None,2.943305,987.9279546,None,988.4431197,None,988.4431197,None,r,0.1476176,988.4431197,None,0.1476176,,,Sep6Silent1,1,2022_Sep_06_1126,ProdSingRedoBetween,2021.2.3,59.454446
,,,,50,0,50,0,,,,,,,,,,,,,,,,,,,,,,993.1649618,None,,,,,,,,,,,,,,,,,dispute,32,51,silent,old,blue,989.1133517,None,989.1133517,None,5,3.1888193,989.1133517,None,3.1888193,992.3321459,None,992.8476878,None,992.8476878,None,f,0.2865716,992.8476878,None,0.2865716,,,Sep6Silent1,1,2022_Sep_06_1126,ProdSingRedoBetween,2021.2.3,59.454446
,,,,51,0,51,0,,,,,,,,,,,,,,,,,,,,,,999.2376307,None,,,,,,,,,,,,,,,,,gesture,116,52,silent,new,null,993.6673297,None,993.6673297,None,1,4.4908548,993.6673297,None,4.4908548,998.1875773,None,998.7029692,None,998.7029692,None,n,0.5113041,998.7029692,None,0.5113041,,,Sep6Silent1,1,2022_Sep_06_1126,ProdSingRedoBetween,2021.2.3,59.454446
,,,,52,0,52,0,,,,,,,,,,,,,,,,,,,,,,1002.958054,None,,,,,,,,,,,,,,,,,style,179,53,silent,new,null,999.744344,None,999.744344,None,6,2.0457952,999.744344,None,2.0457952,1001.814226,None,1002.325878,None,1002.325878,None,r,0.6004113,1002.325878,None,0.6004113,,,Sep6Silent1,1,2022_Sep_06_1126,ProdSingRedoBetween,2021.2.3,59.454446
,,,,53,0,53,0,,,,,,,,,,,,,,,,,,,,,,1009.649697,None,,,,,,,,,,,,,,,,,concern,56,54,silent,old,blue,1003.46003,None,1003.46003,None,1,4.8503974,1003.46003,None,4.8503974,1008.331038,None,1008.847376,None,1008.847376,None,n,0.77514,1008.847376,None,0.77514,,,Sep6Silent1,1,2022_Sep_06_1126,ProdSingRedoBetween,2021.2.3,59.454446
,,,,54,0,54,0,,,,,,,,,,,,,,,,,,,,,,1015.955099,None,,,,,,,,,,,,,,,,,employment,45,55,silent,old,blue,1010.166844,None,1010.166844,None,5,4.7594401,1010.166844,None,4.7594401,1014.95474,None,1015.470094,None,1015.470094,None,f,0.4643548,1015.470094,None,0.4643548,,,Sep6Silent1,1,2022_Sep_06_1126,ProdSingRedoBetween,2021.2.3,59.454446
,,,,55,0,55,0,,,,,,,,,,,,,,,,,,,,,,1021.694264,None,,,,,,,,,,,,,,,,,trial,142,56,silent,new,null,1016.456959,None,1016.456959,None,6,4.2292827,1016.456959,None,4.2292827,1020.710335,None,1021.230197,None,1021.230197,None,r,0.4401097,1021.230197,None,0.4401097,,,Sep6Silent1,1,2022_Sep_06_1126,ProdSingRedoBetween,2021.2.3,59.454446
,,,,56,0,56,0,,,,,,,,,,,,,,,,,,,,,,1026.397706,None,,,,,,,,,,,,,,,,,beginning,23,57,silent,old,yellow,1022.211805,None,1022.211805,None,6,2.0104951,1022.211805,None,2.0104951,1024.251011,None,1024.762875,None,1024.762875,None,r,1.611377,1024.762875,None,1.611377,,,Sep6Silent1,1,2022_Sep_06_1126,ProdSingRedoBetween,2021.2.3,59.454446
,,,,57,0,57,0,,,,,,,,,,,,,,,,,,,,,,1031.938213,None,,,,,,,,,,,,,,,,,finish,157,58,silent,new,null,1026.914254,None,1026.914254,None,4,4.0201517,1026.914254,None,4.0201517,1030.953566,None,1031.454621,None,1031.454621,None,f,0.4637788,1031.454621,None,0.4637788,,,Sep6Silent1,1,2022_Sep_06_1126,ProdSingRedoBetween,2021.2.3,59.454446
,,,,58,0,58,0,,,,,,,,,,,,,,,,,,,,,,1036.409301,None,,,,,,,,,,,,,,,,,number,33,59,silent,old,blue,1032.454537,None,1032.454537,None,5,2.8476606,1032.454537,None,2.8476606,1035.325289,None,1035.840119,None,1035.840119,None,f,0.5422048,1035.840119,None,0.5422048,,,Sep6Silent1,1,2022_Sep_06_1126,ProdSingRedoBetween,2021.2.3,59.454446
,,,,59,0,59,0,,,,,,,,,,,,,,,,,,,,,,1040.183355,None,,,,,,,,,,,,,,,,,frank,51,60,silent,old,blue,1036.926226,None,1036.926226,None,1,2.3200577,1036.926226,None,2.3200577,1039.279625,None,1039.799461,None,1039.799461,None,n,0.350749,1039.799461,None,0.350749,,,Sep6Silent1,1,2022_Sep_06_1126,ProdSingRedoBetween,2021.2.3,59.454446
,,,,60,0,60,0,,,,,,,,,,,,,,,,,,,,,,1045.28311,None,,,,,,,,,,,,,,,,,medicine,72,61,silent,old,red,1040.70418,None,1040.70418,None,3,3.6620907,1040.70418,None,3.6620907,1044.383692,None,1044.899083,None,1044.899083,None,f,0.3632812,1044.899083,None,0.3632812,,,Sep6Silent1,1,2022_Sep_06_1126,ProdSingRedoBetween,2021.2.3,59.454446
,,,,61,0,61,0,,,,,,,,,,,,,,,,,,,,,,1048.770116,None,,,,,,,,,,,,,,,,,title,160,62,silent,new,null,1045.786292,None,1045.786292,None,3,2.0359788,1045.786292,None,2.0359788,1047.854211,None,1048.370349,None,1048.370349,None,f,0.3719186,1048.370349,None,0.3719186,,,Sep6Silent1,1,2022_Sep_06_1126,ProdSingRedoBetween,2021.2.3,59.454446
,,,,62,0,62,0,,,,,,,,,,,,,,,,,,,,,,1052.358466,None,,,,,,,,,,,,,,,,,school,12,63,silent,old,yellow,1049.272921,None,1049.272921,None,6,2.3892792,1049.272921,None,2.3892792,1051.691234,None,1052.206945,None,1052.206945,None,r,0.1273317,1052.206945,None,0.1273317,,,Sep6Silent1,1,2022_Sep_06_1126,ProdSingRedoBetween,2021.2.3,59.454446
,,,,63,0,63,0,,,,,,,,,,,,,,,,,,,,,,1055.410808,None,,,,,,,,,,,,,,,,,suggestion,20,64,silent,old,yellow,1052.859896,None,1052.859896,None,6,1.6743017,1052.859896,None,1.6743017,1054.561014,None,1055.075722,None,1055.075722,None,r,0.3148302,1055.075722,None,0.3148302,,,Sep6Silent1,1,2022_Sep_06_1126,ProdSingRedoBetween,2021.2.3,59.454446
,,,,64,0,64,0,,,,,,,,,,,,,,,,,,,,,,1059.565654,None,,,,,,,,,,,,,,,,,citizen,130,65,silent,new,null,1055.924805,None,1055.924805,None,5,2.8414834,1055.924805,None,2.8414834,1058.798568,None,1059.314662,None,1059.314662,None,f,0.2277068,1059.314662,None,0.2277068,,,Sep6Silent1,1,2022_Sep_06_1126,ProdSingRedoBetween,2021.2.3,59.454446
,,,,65,0,65,0,,,,,,,,,,,,,,,,,,,,,,1063.385231,None,,,,,,,,,,,,,,,,,cover,26,66,silent,old,yellow,1060.083012,None,1060.083012,None,1,2.4513469,1060.083012,None,2.4513469,1062.553554,None,1063.067195,None,1063.067195,None,n,0.2911838,1063.067195,None,0.2911838,,,Sep6Silent1,1,2022_Sep_06_1126,ProdSingRedoBetween,2021.2.3,59.454446
,,,,66,0,66,0,,,,,,,,,,,,,,,,,,,,,,1067.839514,None,,,,,,,,,,,,,,,,,command,175,67,silent,new,null,1063.898882,None,1063.898882,None,5,3.0753664,1063.898882,None,3.0753664,1067.00644,None,1067.521871,None,1067.521871,None,f,0.2924218,1067.521871,None,0.2924218,,,Sep6Silent1,1,2022_Sep_06_1126,ProdSingRedoBetween,2021.2.3,59.454446
,,,,67,0,67,0,,,,,,,,,,,,,,,,,,,,,,1072.627028,None,,,,,,,,,,,,,,,,,institute,164,68,silent,new,null,1068.341717,None,1068.341717,None,1,3.3205869,1068.341717,None,3.3205869,1071.694673,None,1072.210119,None,1072.210119,None,n,0.3881903,1072.210119,None,0.3881903,,,Sep6Silent1,1,2022_Sep_06_1126,ProdSingRedoBetween,2021.2.3,59.454446
,,,,68,0,68,0,,,,,,,,,,,,,,,,,,,,,,1075.881451,None,,,,,,,,,,,,,,,,,damage,49,69,silent,old,blue,1073.135628,None,1073.135628,None,6,1.84665,1073.135628,None,1.84665,1075.014177,None,1075.518713,None,1075.518713,None,r,0.3437162,1075.518713,None,0.3437162,,,Sep6Silent1,1,2022_Sep_06_1126,ProdSingRedoBetween,2021.2.3,59.454446
,,,,69,0,69,0,,,,,,,,,,,,,,,,,,,,,,1083.989169,None,,,,,,,,,,,,,,,,,straight,89,70,silent,old,red,1076.383605,None,1076.383605,None,3,5.8066127,1076.383605,None,5.8066127,1082.221401,None,1082.721661,None,1082.721661,None,f,1.244693,1082.721661,None,1.244693,,,Sep6Silent1,1,2022_Sep_06_1126,ProdSingRedoBetween,2021.2.3,59.454446
,,,,70,0,70,0,,,,,,,,,,,,,,,,,,,,,,1088.843855,None,,,,,,,,,,,,,,,,,problem,102,71,silent,new,null,1084.491325,None,1084.491325,None,2,3.5950193,1084.491325,None,3.5950193,1088.111617,None,1088.62674,None,1088.62674,None,f,0.1955081,1088.62674,None,0.1955081,,,Sep6Silent1,1,2022_Sep_06_1126,ProdSingRedoBetween,2021.2.3,59.454446
,,,,71,0,71,0,,,,,,,,,,,,,,,,,,,,,,1093.632278,None,,,,,,,,,,,,,,,,,object,101,72,silent,new,null,1089.347477,None,1089.347477,None,2,3.6187207,1089.347477,None,3.6187207,1093.002166,None,1093.51406,None,1093.51406,None,f,0.1002018,1093.51406,None,0.1002018,,,Sep6Silent1,1,2022_Sep_06_1126,ProdSingRedoBetween,2021.2.3,59.454446
,,,,72,0,72,0,,,,,,,,,,,,,,,,,,,,,,1096.969292,None,,,,,,,,,,,,,,,,,strain,132,73,silent,new,null,1094.134751,None,1094.134751,None,1,1.8637435,1094.134751,None,1.8637435,1096.019123,None,1096.534652,None,1096.534652,None,n,0.4076484,1096.534652,None,0.4076484,,,Sep6Silent1,1,2022_Sep_06_1126,ProdSingRedoBetween,2021.2.3,59.454446
,,,,73,0,73,0,,,,,,,,,,,,,,,,,,,,,,1100.72196,None,,,,,,,,,,,,,,,,,region,50,74,silent,old,blue,1097.470389,None,1097.470389,None,6,2.1518954,1097.470389,None,2.1518954,1099.639235,None,1100.15402,None,1100.15402,None,r,0.5402034,1100.15402,None,0.5402034,,,Sep6Silent1,1,2022_Sep_06_1126,ProdSingRedoBetween,2021.2.3,59.454446
,,,,74,0,74,0,,,,,,,,,,,,,,,,,,,,,,1103.526672,None,,,,,,,,,,,,,,,,,household,52,75,silent,old,blue,1101.225106,None,1101.225106,None,6,1.4454253,1101.225106,None,1.4454253,1102.694266,None,1103.211684,None,1103.211684,None,r,0.2906151,1103.211684,None,0.2906151,,,Sep6Silent1,1,2022_Sep_06_1126,ProdSingRedoBetween,2021.2.3,59.454446
,,,,75,0,75,0,,,,,,,,,,,,,,,,,,,,,,1106.260804,None,,,,,,,,,,,,,,,,,marriage,43,76,silent,old,blue,1104.044152,None,1104.044152,None,6,1.610183,1104.044152,None,1.610183,1105.678212,None,1106.176549,None,1106.176549,None,r,0.061768,1106.176549,None,0.061768,,,Sep6Silent1,1,2022_Sep_06_1126,ProdSingRedoBetween,2021.2.3,59.454446
,,,,76,0,76,0,,,,,,,,,,,,,,,,,,,,,,1109.515233,None,,,,,,,,,,,,,,,,,blind,44,77,silent,old,blue,1106.763067,None,1106.763067,None,6,2.1152265,1106.763067,None,2.1152265,1108.899082,None,1109.413486,None,1109.413486,None,r,0.0810013,1109.413486,None,0.0810013,,,Sep6Silent1,1,2022_Sep_06_1126,ProdSingRedoBetween,2021.2.3,59.454446
,,,,77,0,77,0,,,,,,,,,,,,,,,,,,,,,,1114.236036,None,,,,,,,,,,,,,,,,,volume,178,78,silent,new,null,1110.017244,None,1110.017244,None,1,2.9410741,1110.017244,None,2.9410741,1112.985833,None,1113.500696,None,1113.500696,None,n,0.7056537,1113.500696,None,0.7056537,,,Sep6Silent1,1,2022_Sep_06_1126,ProdSingRedoBetween,2021.2.3,59.454446
,,,,78,0,78,0,,,,,,,,,,,,,,,,,,,,,,1117.672238,None,,,,,,,,,,,,,,,,,quiet,38,79,silent,old,blue,1114.746735,None,1114.746735,None,3,2.0915226,1114.746735,None,2.0915226,1116.858112,None,1117.3718,None,1117.3718,None,f,0.2745577,1117.3718,None,0.2745577,,,Sep6Silent1,1,2022_Sep_06_1126,ProdSingRedoBetween,2021.2.3,59.454446
,,,,79,0,79,0,,,,,,,,,,,,,,,,,,,,,,1124.829707,None,,,,,,,,,,,,,,,,,throw,122,80,silent,new,null,1118.174711,None,1118.174711,None,2,5.8715554,1118.174711,None,5.8715554,1124.063896,None,1124.578933,None,1124.578933,None,f,0.2194275,1124.578933,None,0.2194275,,,Sep6Silent1,1,2022_Sep_06_1126,ProdSingRedoBetween,2021.2.3,59.454446
,,,,80,0,80,0,,,,,,,,,,,,,,,,,,,,,,1127.733888,None,,,,,,,,,,,,,,,,,curve,87,81,silent,old,red,1125.332502,None,1125.332502,None,6,1.7057535,1125.332502,None,1.7057535,1127.066847,None,1127.582471,None,1127.582471,None,r,0.1278681,1127.582471,None,0.1278681,,,Sep6Silent1,1,2022_Sep_06_1126,ProdSingRedoBetween,2021.2.3,59.454446
,,,,81,0,81,0,,,,,,,,,,,,,,,,,,,,,,1131.804642,None,,,,,,,,,,,,,,,,,meeting,29,82,silent,old,blue,1128.241976,None,1128.241976,None,3,2.8924801,1128.241976,None,2.8924801,1131.153976,None,1131.669707,None,1131.669707,None,f,0.1130141,1131.669707,None,0.1130141,,,Sep6Silent1,1,2022_Sep_06_1126,ProdSingRedoBetween,2021.2.3,59.454446
,,,,82,0,82,0,,,,,,,,,,,,,,,,,,,,,,1135.740439,None,,,,,,,,,,,,,,,,,ground,103,83,silent,new,null,1132.3209,None,1132.3209,None,1,2.7254523,1132.3209,None,2.7254523,1135.07408,None,1135.575651,None,1135.575651,None,n,0.1426882,1135.575651,None,0.1426882,,,Sep6Silent1,1,2022_Sep_06_1126,ProdSingRedoBetween,2021.2.3,59.454446
,,,,83,0,83,0,,,,,,,,,,,,,,,,,,,,,,1140.1478,None,,,,,,,,,,,,,,,,,people,176,84,silent,new,null,1136.243095,None,1136.243095,None,6,2.4432253,1136.243095,None,2.4432253,1138.712457,None,1139.229438,None,1139.229438,None,r,0.8969042,1139.229438,None,0.8969042,,,Sep6Silent1,1,2022_Sep_06_1126,ProdSingRedoBetween,2021.2.3,59.454446
,,,,84,0,84,0,,,,,,,,,,,,,,,,,,,,,,1144.166131,None,,,,,,,,,,,,,,,,,country,126,85,silent,new,null,1140.663754,None,1140.663754,None,3,2.6785877,1140.663754,None,2.6785877,1143.366939,None,1143.881575,None,1143.881575,None,f,0.2607525,1143.881575,None,0.2607525,,,Sep6Silent1,1,2022_Sep_06_1126,ProdSingRedoBetween,2021.2.3,59.454446
,,,,85,0,85,0,,,,,,,,,,,,,,,,,,,,,,1147.953465,None,,,,,,,,,,,,,,,,,mankind,141,86,silent,new,null,1144.667404,None,1144.667404,None,1,1.8909355,1144.667404,None,1.8909355,1146.586782,None,1147.101891,None,1147.101891,None,n,0.832592,1147.101891,None,0.832592,,,Sep6Silent1,1,2022_Sep_06_1126,ProdSingRedoBetween,2021.2.3,59.454446
,,,,86,0,86,0,,,,,,,,,,,,,,,,,,,,,,1152.757944,None,,,,,,,,,,,,,,,,,partner,79,87,silent,old,red,1148.455243,None,1148.455243,None,5,3.5110489,1148.455243,None,3.5110489,1152.000559,None,1152.506585,None,1152.506585,None,f,0.2197363,1152.506585,None,0.2197363,,,Sep6Silent1,1,2022_Sep_06_1126,ProdSingRedoBetween,2021.2.3,59.454446
,,,,87,0,87,0,,,,,,,,,,,,,,,,,,,,,,1156.295497,None,,,,,,,,,,,,,,,,,break,112,88,silent,new,null,1153.260587,None,1153.260587,None,1,2.1139226,1153.260587,None,2.1139226,1155.395942,None,1155.910107,None,1155.910107,None,n,0.3602356,1155.910107,None,0.3602356,,,Sep6Silent1,1,2022_Sep_06_1126,ProdSingRedoBetween,2021.2.3,59.454446
,,,,88,0,88,0,,,,,,,,,,,,,,,,,,,,,,1162.450244,None,,,,,,,,,,,,,,,,,article,59,89,silent,old,yellow,1156.796532,None,1156.796532,None,1,1.7140078,1156.796532,None,1.7140078,1158.530987,None,1159.046268,None,1159.046268,None,n,3.3843267,1159.046268,None,3.3843267,,,Sep6Silent1,1,2022_Sep_06_1126,ProdSingRedoBetween,2021.2.3,59.454446
,,,,89,0,89,0,,,,,,,,,,,,,,,,,,,,,,1165.169486,None,,,,,,,,,,,,,,,,,husband,24,90,silent,old,yellow,1162.953638,None,1162.953638,None,6,1.5166456,1162.953638,None,1.5166456,1164.504838,None,1165.019008,None,1165.019008,None,r,0.1315239,1165.019008,None,0.1315239,,,Sep6Silent1,1,2022_Sep_06_1126,ProdSingRedoBetween,2021.2.3,59.454446
,,,,90,0,90,0,,,,,,,,,,,,,,,,,,,,,,1169.49231,None,,,,,,,,,,,,,,,,,rapid,97,91,silent,new,null,1165.67288,None,1165.67288,None,1,3.0694477,1165.67288,None,3.0694477,1168.774971,None,1169.290785,None,1169.290785,None,n,0.1715287,1169.290785,None,0.1715287,,,Sep6Silent1,1,2022_Sep_06_1126,ProdSingRedoBetween,2021.2.3,59.454446
,,,,91,0,91,0,,,,,,,,,,,,,,,,,,,,,,1175.266045,None,,,,,,,,,,,,,,,,,shock,5,92,silent,old,yellow,1170.009709,None,1170.009709,None,6,3.3007982,1170.009709,None,3.3007982,1173.331699,None,1173.845983,None,1173.845983,None,r,1.4004085,1173.845983,None,1.4004085,,,Sep6Silent1,1,2022_Sep_06_1126,ProdSingRedoBetween,2021.2.3,59.454446
,,,,92,0,92,0,,,,,,,,,,,,,,,,,,,,,,1179.884114,None,,,,,,,,,,,,,,,,,season,127,93,silent,new,null,1175.784483,None,1175.784483,None,6,3.0938102,1175.784483,None,3.0938102,1178.901506,None,1179.402996,None,1179.402996,None,r,0.4513461,1179.402996,None,0.4513461,,,Sep6Silent1,1,2022_Sep_06_1126,ProdSingRedoBetween,2021.2.3,59.454446
,,,,93,0,93,0,,,,,,,,,,,,,,,,,,,,,,1184.189522,None,,,,,,,,,,,,,,,,,trail,163,94,silent,new,null,1180.386931,None,1180.386931,None,1,2.8593896,1180.386931,None,2.8593896,1183.272589,None,1183.787952,None,1183.787952,None,n,0.3703881,1183.787952,None,0.3703881,,,Sep6Silent1,1,2022_Sep_06_1126,ProdSingRedoBetween,2021.2.3,59.454446
,,,,94,0,94,0,,,,,,,,,,,,,,,,,,,,,,1189.527373,None,,,,,,,,,,,,,,,,,present,66,95,silent,old,red,1184.691514,None,1184.691514,None,6,3.9467588,1184.691514,None,3.9467588,1188.661217,None,1189.177091,None,1189.177091,None,r,0.3333145,1189.177091,None,0.3333145,,,Sep6Silent1,1,2022_Sep_06_1126,ProdSingRedoBetween,2021.2.3,59.454446
,,,,95,0,95,0,,,,,,,,,,,,,,,,,,,,,,1193.047598,None,,,,,,,,,,,,,,,,,council,10,96,silent,old,yellow,1190.041623,None,1190.041623,None,6,2.0127858,1190.041623,None,2.0127858,1192.081525,None,1192.597117,None,1192.597117,None,r,0.4252689,1192.597117,None,0.4252689,,,Sep6Silent1,1,2022_Sep_06_1126,ProdSingRedoBetween,2021.2.3,59.454446
,,,,96,0,96,0,,,,,,,,,,,,,,,,,,,,,,1197.218029,None,,,,,,,,,,,,,,,,,running,134,97,silent,new,null,1193.549963,None,1193.549963,None,1,2.6645514,1193.549963,None,2.6645514,1196.235661,None,1196.751203,None,1196.751203,None,n,0.4390579,1196.751203,None,0.4390579,,,Sep6Silent1,1,2022_Sep_06_1126,ProdSingRedoBetween,2021.2.3,59.454446
,,,,97,0,97,0,,,,,,,,,,,,,,,,,,,,,,1201.507219,None,,,,,,,,,,,,,,,,,industry,0,98,silent,old,yellow,1197.72166,None,1197.72166,None,6,2.9566741,1197.72166,None,2.9566741,1200.714766,None,1201.222701,None,1201.222701,None,r,0.2638277,1201.222701,None,0.2638277,,,Sep6Silent1,1,2022_Sep_06_1126,ProdSingRedoBetween,2021.2.3,59.454446
,,,,98,0,98,0,,,,,,,,,,,,,,,,,,,,,,1205.275967,None,,,,,,,,,,,,,,,,,couch,108,99,silent,new,null,1202.011007,None,1202.011007,None,1,2.0913561,1202.011007,None,2.0913561,1204.129054,None,1204.641984,None,1204.641984,None,n,0.6043447,1204.641984,None,0.6043447,,,Sep6Silent1,1,2022_Sep_06_1126,ProdSingRedoBetween,2021.2.3,59.454446
,,,,99,0,99,0,,,,,,,,,,,,,,,,,,,,,,1209.348678,None,,,,,,,,,,,,,,,,,comfort,60,100,silent,old,red,1205.779554,None,1205.779554,None,1,2.786803,1205.779554,None,2.786803,1208.597841,None,1209.113746,None,1209.113746,None,n,0.2045353,1209.113746,None,0.2045353,,,Sep6Silent1,1,2022_Sep_06_1126,ProdSingRedoBetween,2021.2.3,59.454446
,,,,100,0,100,0,,,,,,,,,,,,,,,,,,,,,,1213.51893,None,,,,,,,,,,,,,,,,,plane,69,101,silent,old,red,1209.865745,None,1209.865745,None,1,2.5647905,1209.865745,None,2.5647905,1212.451612,None,1212.966814,None,1212.966814,None,n,0.5355366,1212.966814,None,0.5355366,,,Sep6Silent1,1,2022_Sep_06_1126,ProdSingRedoBetween,2021.2.3,59.454446
,,,,101,0,101,0,,,,,,,,,,,,,,,,,,,,,,1218.973739,None,,,,,,,,,,,,,,,,,quarter,124,102,silent,new,null,1214.021256,None,1214.021256,None,1,4.0171979,1214.021256,None,4.0171979,1218.062555,None,1218.573519,None,1218.573519,None,n,0.368821,1218.573519,None,0.368821,,,Sep6Silent1,1,2022_Sep_06_1126,ProdSingRedoBetween,2021.2.3,59.454446
,,,,102,0,102,0,,,,,,,,,,,,,,,,,,,,,,1223.728136,None,,,,,,,,,,,,,,,,,attack,104,103,silent,new,null,1219.476408,None,1219.476408,None,6,3.5619579,1219.476408,None,3.5619579,1223.06276,None,1223.577933,None,1223.577933,None,r,0.1244186,1223.577933,None,0.1244186,,,Sep6Silent1,1,2022_Sep_06_1126,ProdSingRedoBetween,2021.2.3,59.454446
,,,,103,0,103,0,,,,,,,,,,,,,,,,,,,,,,1229.133811,None,,,,,,,,,,,,,,,,,provision,41,104,silent,old,blue,1224.233059,None,1224.233059,None,1,2.4052323,1224.233059,None,2.4052323,1226.672918,None,1227.182606,None,1227.182606,None,n,1.9197318,1227.182606,None,1.9197318,,,Sep6Silent1,1,2022_Sep_06_1126,ProdSingRedoBetween,2021.2.3,59.454446
,,,,104,0,104,0,,,,,,,,,,,,,,,,,,,,,,1233.171843,None,,,,,,,,,,,,,,,,,degree,123,105,silent,new,null,1229.636588,None,1229.636588,None,3,2.5377878,1229.636588,None,2.5377878,1232.20453,None,1232.705279,None,1232.705279,None,f,0.4370132,1232.705279,None,0.4370132,,,Sep6Silent1,1,2022_Sep_06_1126,ProdSingRedoBetween,2021.2.3,59.454446
,,,,105,0,105,0,,,,,,,,,,,,,,,,,,,,,,1242.997079,None,,,,,,,,,,,,,,,,,dream,100,106,silent,new,null,1233.67368,None,1233.67368,None,1,3.396618,1233.67368,None,3.396618,1237.092817,None,1237.609591,None,1237.609591,None,n,5.3647693,1237.609591,None,5.3647693,,,Sep6Silent1,1,2022_Sep_06_1126,ProdSingRedoBetween,2021.2.3,59.454446
,,,,106,0,106,0,,,,,,,,,,,,,,,,,,,,,,1247.302642,None,,,,,,,,,,,,,,,,,carry,117,107,silent,new,null,1243.499839,None,1243.499839,None,1,3.0105209,1243.499839,None,3.0105209,1246.536083,None,1247.051817,None,1247.051817,None,n,0.2185307,1247.051817,None,0.2185307,,,Sep6Silent1,1,2022_Sep_06_1126,ProdSingRedoBetween,2021.2.3,59.454446
,,,,107,0,107,0,,,,,,,,,,,,,,,,,,,,,,1253.075262,None,,,,,,,,,,,,,,,,,range,58,108,silent,old,blue,1247.803987,None,1247.803987,None,2,4.4104578,1247.803987,None,4.4104578,1252.241536,None,1252.757156,None,1252.757156,None,f,0.297541,1252.757156,None,0.297541,,,Sep6Silent1,1,2022_Sep_06_1126,ProdSingRedoBetween,2021.2.3,59.454446
,,,,108,0,108,0,,,,,,,,,,,,,,,,,,,,,,1257.212017,None,,,,,,,,,,,,,,,,,session,151,109,silent,new,null,1253.577032,None,1253.577032,None,4,2.5892661,1253.577032,None,2.5892661,1256.196256,None,1256.712655,None,1256.712655,None,f,0.4776389,1256.712655,None,0.4776389,,,Sep6Silent1,1,2022_Sep_06_1126,ProdSingRedoBetween,2021.2.3,59.454446
,,,,109,0,109,0,,,,,,,,,,,,,,,,,,,,,,1260.936058,None,,,,,,,,,,,,,,,,,surprise,162,110,silent,new,null,1257.714548,None,1257.714548,None,3,2.2359176,1257.714548,None,2.2359176,1259.982635,None,1260.498387,None,1260.498387,None,f,0.4038973,1260.498387,None,0.4038973,,,Sep6Silent1,1,2022_Sep_06_1126,ProdSingRedoBetween,2021.2.3,59.454446
,,,,110,0,110,0,,,,,,,,,,,,,,,,,,,,,,1264.035239,None,,,,,,,,,,,,,,,,,cross,1,111,silent,old,yellow,1261.450276,None,1261.450276,None,1,1.5560051,1261.450276,None,1.5560051,1263.035874,None,1263.550764,None,1263.550764,None,n,0.4555286,1263.550764,None,0.4555286,,,Sep6Silent1,1,2022_Sep_06_1126,ProdSingRedoBetween,2021.2.3,59.454446
,,,,111,0,111,0,,,,,,,,,,,,,,,,,,,,,,1268.573285,None,,,,,,,,,,,,,,,,,search,80,112,silent,old,red,1264.538887,None,1264.538887,None,3,3.1874055,1264.538887,None,3.1874055,1267.757195,None,1268.272777,None,1268.272777,None,f,0.2775984,1268.272777,None,0.2775984,,,Sep6Silent1,1,2022_Sep_06_1126,ProdSingRedoBetween,2021.2.3,59.454446
,,,,112,0,112,0,,,,,,,,,,,,,,,,,,,,,,1273.095896,None,,,,,,,,,,,,,,,,,broad,70,113,silent,old,red,1269.075234,None,1269.075234,None,6,3.3070309,1269.075234,None,3.3070309,1272.412419,None,1272.927063,None,1272.927063,None,r,0.1353567,1272.927063,None,0.1353567,,,Sep6Silent1,1,2022_Sep_06_1126,ProdSingRedoBetween,2021.2.3,59.454446
,,,,113,0,113,0,,,,,,,,,,,,,,,,,,,,,,1277.298931,None,,,,,,,,,,,,,,,,,fellow,161,114,silent,new,null,1273.613771,None,1273.613771,None,2,2.8565727,1273.613771,None,2.8565727,1276.499704,None,1277.014202,None,1277.014202,None,f,0.2561523,1277.014202,None,0.2561523,,,Sep6Silent1,1,2022_Sep_06_1126,ProdSingRedoBetween,2021.2.3,59.454446
,,,,114,0,114,0,,,,,,,,,,,,,,,,,,,,,,1281.269192,None,,,,,,,,,,,,,,,,,profession,171,115,silent,new,null,1277.801135,None,1277.801135,None,2,2.7092038,1277.801135,None,2.7092038,1280.537157,None,1281.052207,None,1281.052207,None,f,0.1941628,1281.052207,None,0.1941628,,,Sep6Silent1,1,2022_Sep_06_1126,ProdSingRedoBetween,2021.2.3,59.454446
,,,,115,0,115,0,,,,,,,,,,,,,,,,,,,,,,1287.309802,None,,,,,,,,,,,,,,,,,beauty,115,116,silent,new,null,1281.771918,None,1281.771918,None,2,4.7624718,1281.771918,None,4.7624718,1286.561134,None,1287.079151,None,1287.079151,None,f,0.2071416,1287.079151,None,0.2071416,,,Sep6Silent1,1,2022_Sep_06_1126,ProdSingRedoBetween,2021.2.3,59.454446
,,,,116,0,116,0,,,,,,,,,,,,,,,,,,,,,,1295.934798,None,,,,,,,,,,,,,,,,,bright,128,117,silent,new,null,1287.813631,None,1287.813631,None,5,6.4009424,1287.813631,None,6.4009424,1294.23385,None,1294.748417,None,1294.748417,None,f,1.1699749,1294.748417,None,1.1699749,,,Sep6Silent1,1,2022_Sep_06_1126,ProdSingRedoBetween,2021.2.3,59.454446
,,,,117,0,117,0,,,,,,,,,,,,,,,,,,,,,,1299.671783,None,,,,,,,,,,,,,,,,,breath,174,118,silent,new,null,1296.43589,None,1296.43589,None,1,2.4666156,1296.43589,None,2.4666156,1298.93391,None,1299.437201,None,1299.437201,None,n,0.2173277,1299.437201,None,0.2173277,,,Sep6Silent1,1,2022_Sep_06_1126,ProdSingRedoBetween,2021.2.3,59.454446
,,,,118,0,118,0,,,,,,,,,,,,,,,,,,,,,,1302.973652,None,,,,,,,,,,,,,,,,,thing,34,119,silent,old,blue,1300.174297,None,1300.174297,None,1,1.59201,1300.174297,None,1.59201,1301.793344,None,1302.306326,None,1302.306326,None,n,0.6360351,1302.306326,None,0.6360351,,,Sep6Silent1,1,2022_Sep_06_1126,ProdSingRedoBetween,2021.2.3,59.454446
,,,,119,0,119,0,,,,,,,,,,,,,,,,,,,,,,1307.428222,None,,,,,,,,,,,,,,,,,member,85,120,silent,old,red,1303.476596,None,1303.476596,None,4,3.1538096,1303.476596,None,3.1538096,1306.663151,None,1307.177511,None,1307.177511,None,f,0.2209146,1307.177511,None,0.2209146,,,Sep6Silent1,1,2022_Sep_06_1126,ProdSingRedoBetween,2021.2.3,59.454446
,,,,120,0,120,0,,,,,,,,,,,,,,,,,,,,,,1310.365885,None,,,,,,,,,,,,,,,,,state,25,121,silent,old,yellow,1307.931685,None,1307.931685,None,6,1.6826742,1307.931685,None,1.6826742,1309.632557,None,1310.148064,None,1310.148064,None,r,0.1942926,1310.148064,None,0.1942926,,,Sep6Silent1,1,2022_Sep_06_1126,ProdSingRedoBetween,2021.2.3,59.454446
,,,,121,0,121,0,,,,,,,,,,,,,,,,,,,,,,1313.585709,None,,,,,,,,,,,,,,,,,length,119,122,silent,new,null,1310.878851,None,1310.878851,None,1,1.8635462,1310.878851,None,1.8635462,1312.768932,None,1313.274212,None,1313.274212,None,n,0.2841404,1313.274212,None,0.2841404,,,Sep6Silent1,1,2022_Sep_06_1126,ProdSingRedoBetween,2021.2.3,59.454446
,,,,122,0,122,0,,,,,,,,,,,,,,,,,,,,,,1317.337948,None,,,,,,,,,,,,,,,,,alert,76,123,silent,old,red,1314.091608,None,1314.091608,None,6,1.6988378,1314.091608,None,1.6988378,1315.834008,None,1316.336595,None,1316.336595,None,r,0.973714,1316.336595,None,0.973714,,,Sep6Silent1,1,2022_Sep_06_1126,ProdSingRedoBetween,2021.2.3,59.454446
,,,,123,0,123,0,,,,,,,,,,,,,,,,,,,,,,1320.50875,None,,,,,,,,,,,,,,,,,level,39,124,silent,old,blue,1317.841378,None,1317.841378,None,5,1.8609632,1317.841378,None,1.8609632,1319.728337,None,1320.240792,None,1320.240792,None,f,0.2376935,1320.240792,None,0.2376935,,,Sep6Silent1,1,2022_Sep_06_1126,ProdSingRedoBetween,2021.2.3,59.454446
,,,,124,0,124,0,,,,,,,,,,,,,,,,,,,,,,1323.578194,None,,,,,,,,,,,,,,,,,quantity,149,125,silent,new,null,1321.0117,None,1321.0117,None,1,1.5467569,1321.0117,None,1.5467569,1322.579441,None,1323.0943,None,1323.0943,None,n,0.4642981,1323.0943,None,0.4642981,,,Sep6Silent1,1,2022_Sep_06_1126,ProdSingRedoBetween,2021.2.3,59.454446
,,,,125,0,125,0,,,,,,,,,,,,,,,,,,,,,,1326.91549,None,,,,,,,,,,,,,,,,,balance,15,126,silent,old,yellow,1324.081244,None,1324.081244,None,6,1.9732055,1324.081244,None,1.9732055,1326.082135,None,1326.597957,None,1326.597957,None,r,0.2884294,1326.597957,None,0.2884294,,,Sep6Silent1,1,2022_Sep_06_1126,ProdSingRedoBetween,2021.2.3,59.454446
,,,,126,0,126,0,,,,,,,,,,,,,,,,,,,,,,1329.968177,None,,,,,,,,,,,,,,,,,mayor,36,127,silent,old,blue,1327.417445,None,1327.417445,None,6,1.6449083,1327.417445,None,1.6449083,1329.085507,None,1329.603856,None,1329.603856,None,r,0.3466087,1329.603856,None,0.3466087,,,Sep6Silent1,1,2022_Sep_06_1126,ProdSingRedoBetween,2021.2.3,59.454446
,,,,127,0,127,0,,,,,,,,,,,,,,,,,,,,,,1333.038694,None,,,,,,,,,,,,,,,,,travel,53,128,silent,old,blue,1330.471206,None,1330.471206,None,5,1.6711603,1330.471206,None,1.6711603,1332.171376,None,1332.686946,None,1332.686946,None,f,0.3194598,1332.686946,None,0.3194598,,,Sep6Silent1,1,2022_Sep_06_1126,ProdSingRedoBetween,2021.2.3,59.454446
,,,,128,0,128,0,,,,,,,,,,,,,,,,,,,,,,1342.748265,None,,,,,,,,,,,,,,,,,contract,170,129,silent,new,null,1333.555754,None,1333.555754,None,6,8.3871437,1333.555754,None,8.3871437,1341.965212,None,1342.480191,None,1342.480191,None,r,0.2466828,1342.480191,None,0.2466828,,,Sep6Silent1,1,2022_Sep_06_1126,ProdSingRedoBetween,2021.2.3,59.454446
,,,,129,0,129,0,,,,,,,,,,,,,,,,,,,,,,1348.002974,None,,,,,,,,,,,,,,,,,store,118,130,silent,new,null,1343.250119,None,1343.250119,None,6,3.9162634,1343.250119,None,3.9162634,1347.186646,None,1347.702162,None,1347.702162,None,r,0.2722226,1347.702162,None,0.2722226,,,Sep6Silent1,1,2022_Sep_06_1126,ProdSingRedoBetween,2021.2.3,59.454446
,,,,130,0,130,0,,,,,,,,,,,,,,,,,,,,,,1352.608792,None,,,,,,,,,,,,,,,,,prime,90,131,silent,new,null,1348.505395,None,1348.505395,None,1,3.2210659,1348.505395,None,3.2210659,1351.757471,None,1352.2731,None,1352.2731,None,n,0.31723,1352.2731,None,0.31723,,,Sep6Silent1,1,2022_Sep_06_1126,ProdSingRedoBetween,2021.2.3,59.454446
,,,,131,0,131,0,,,,,,,,,,,,,,,,,,,,,,1356.494316,None,,,,,,,,,,,,,,,,,native,46,132,silent,old,blue,1353.126155,None,1353.126155,None,5,2.5682661,1353.126155,None,2.5682661,1355.711925,None,1356.22749,None,1356.22749,None,f,0.2509442,1356.22749,None,0.2509442,,,Sep6Silent1,1,2022_Sep_06_1126,ProdSingRedoBetween,2021.2.3,59.454446
,,,,132,0,132,0,,,,,,,,,,,,,,,,,,,,,,1361.58339,None,,,,,,,,,,,,,,,,,opening,144,133,silent,new,null,1356.997181,None,1356.997181,None,3,3.6654188,1356.997181,None,3.6654188,1360.683728,None,1361.199486,None,1361.199486,None,f,0.3589204,1361.199486,None,0.3589204,,,Sep6Silent1,1,2022_Sep_06_1126,ProdSingRedoBetween,2021.2.3,59.454446
,,,,133,0,133,0,,,,,,,,,,,,,,,,,,,,,,1365.070113,None,,,,,,,,,,,,,,,,,cousin,62,134,silent,old,red,1362.099607,None,1362.099607,None,6,2.0830017,1362.099607,None,2.0830017,1364.203621,None,1364.719019,None,1364.719019,None,r,0.3193747,1364.719019,None,0.3193747,,,Sep6Silent1,1,2022_Sep_06_1126,ProdSingRedoBetween,2021.2.3,59.454446
,,,,134,0,134,0,,,,,,,,,,,,,,,,,,,,,,1372.027673,None,,,,,,,,,,,,,,,,,novel,133,135,silent,new,null,1365.57562,None,1365.57562,None,4,5.6387149,1365.57562,None,5.6387149,1371.244036,None,1371.758892,None,1371.758892,None,f,0.2395155,1371.758892,None,0.2395155,,,Sep6Silent1,1,2022_Sep_06_1126,ProdSingRedoBetween,2021.2.3,59.454446
,,,,135,0,135,0,,,,,,,,,,,,,,,,,,,,,,1379.419139,None,,,,,,,,,,,,,,,,,smell,73,136,silent,old,red,1372.545567,None,1372.545567,None,3,6.0530364,1372.545567,None,6.0530364,1378.618204,None,1379.133824,None,1379.133824,None,f,0.2566199,1379.133824,None,0.2566199,,,Sep6Silent1,1,2022_Sep_06_1126,ProdSingRedoBetween,2021.2.3,59.454446
,,,,136,0,136,0,,,,,,,,,,,,,,,,,,,,,,1383.388157,None,,,,,,,,,,,,,,,,,business,82,137,silent,old,red,1379.937447,None,1379.937447,None,3,2.4769922,1379.937447,None,2.4769922,1382.438448,None,1382.954137,None,1382.954137,None,f,0.4122292,1382.954137,None,0.4122292,,,Sep6Silent1,1,2022_Sep_06_1126,ProdSingRedoBetween,2021.2.3,59.454446
,,,,137,0,137,0,,,,,,,,,,,,,,,,,,,,,,1387.525176,None,,,,,,,,,,,,,,,,,distance,109,138,silent,new,null,1383.891158,None,1383.891158,None,6,2.3552078,1383.891158,None,2.3552078,1386.275891,None,1386.790691,None,1386.790691,None,r,0.7118548,1386.790691,None,0.7118548,,,Sep6Silent1,1,2022_Sep_06_1126,ProdSingRedoBetween,2021.2.3,59.454446
,,,,138,0,138,0,,,,,,,,,,,,,,,,,,,,,,1393.282736,None,,,,,,,,,,,,,,,,,emergency,152,139,silent,new,null,1388.028467,None,1388.028467,None,2,3.9379088,1388.028467,None,3.9379088,1392.00437,None,1392.513249,None,1392.513249,None,f,0.7492369,1392.513249,None,0.7492369,,,Sep6Silent1,1,2022_Sep_06_1126,ProdSingRedoBetween,2021.2.3,59.454446
,,,,139,0,139,0,,,,,,,,,,,,,,,,,,,,,,1396.902393,None,,,,,,,,,,,,,,,,,guest,155,140,silent,new,null,1393.799998,None,1393.799998,None,4,2.166597,1393.799998,None,2.166597,1395.986222,None,1396.500662,None,1396.500662,None,f,0.3777808,1396.500662,None,0.3777808,,,Sep6Silent1,1,2022_Sep_06_1126,ProdSingRedoBetween,2021.2.3,59.454446
,,,,140,0,140,0,,,,,,,,,,,,,,,,,,,,,,1401.055997,None,,,,,,,,,,,,,,,,,color,14,141,silent,old,yellow,1397.404175,None,1397.404175,None,6,2.9622846,1397.404175,None,2.9622846,1400.389602,None,1400.904548,None,1400.904548,None,r,0.1337955,1400.904548,None,0.1337955,,,Sep6Silent1,1,2022_Sep_06_1126,ProdSingRedoBetween,2021.2.3,59.454446
,,,,141,0,141,0,,,,,,,,,,,,,,,,,,,,,,1404.610051,None,,,,,,,,,,,,,,,,,music,64,142,silent,old,red,1401.558232,None,1401.558232,None,1,2.128224,1401.558232,None,2.128224,1403.710343,None,1404.225291,None,1404.225291,None,n,0.3653559,1404.225291,None,0.3653559,,,Sep6Silent1,1,2022_Sep_06_1126,ProdSingRedoBetween,2021.2.3,59.454446
,,,,142,0,142,0,,,,,,,,,,,,,,,,,,,,,,1407.746826,None,,,,,,,,,,,,,,,,,childhood,166,143,silent,new,null,1405.111684,None,1405.111684,None,6,1.8067949,1405.111684,None,1.8067949,1406.945666,None,1407.446171,None,1407.446171,None,r,0.2804967,1407.446171,None,0.2804967,,,Sep6Silent1,1,2022_Sep_06_1126,ProdSingRedoBetween,2021.2.3,59.454446
,,,,143,0,143,0,,,,,,,,,,,,,,,,,,,,,,1412.901871,None,,,,,,,,,,,,,,,,,reading,131,144,silent,new,null,1408.264142,None,1408.264142,None,4,3.8303514,1408.264142,None,3.8303514,1412.118716,None,1412.63319,None,1412.63319,None,f,0.245267,1412.63319,None,0.245267,,,Sep6Silent1,1,2022_Sep_06_1126,ProdSingRedoBetween,2021.2.3,59.454446
,,,,144,0,144,0,,,,,,,,,,,,,,,,,,,,,,1416.504149,None,,,,,,,,,,,,,,,,,research,95,145,silent,new,null,1413.404037,None,1413.404037,None,4,2.3465827,1413.404037,None,2.3465827,1415.772028,None,1416.287585,None,1416.287585,None,f,0.1989999,1416.287585,None,0.1989999,,,Sep6Silent1,1,2022_Sep_06_1126,ProdSingRedoBetween,2021.2.3,59.454446
,,,,145,0,145,0,,,,,,,,,,,,,,,,,,,,,,1421.143698,None,,,,,,,,,,,,,,,,,express,2,146,silent,old,yellow,1417.006962,None,1417.006962,None,1,2.9514604,1417.006962,None,2.9514604,1419.976065,None,1420.492576,None,1420.492576,None,n,0.6180396,1420.492576,None,0.6180396,,,Sep6Silent1,1,2022_Sep_06_1126,ProdSingRedoBetween,2021.2.3,59.454446
,,,,146,0,146,0,,,,,,,,,,,,,,,,,,,,,,1425.198004,None,,,,,,,,,,,,,,,,,guide,54,147,silent,old,blue,1421.659215,None,1421.659215,None,2,2.195242,1421.659215,None,2.195242,1423.879809,None,1424.394955,None,1424.394955,None,f,0.7796133,1424.394955,None,0.7796133,,,Sep6Silent1,1,2022_Sep_06_1126,ProdSingRedoBetween,2021.2.3,59.454446
,,,,147,0,147,0,,,,,,,,,,,,,,,,,,,,,,1429.334248,None,,,,,,,,,,,,,,,,,angle,78,148,silent,old,red,1425.727352,None,1425.727352,None,5,2.7511334,1425.727352,None,2.7511334,1428.501016,None,1429.018274,None,1429.018274,None,f,0.3001669,1429.018274,None,0.3001669,,,Sep6Silent1,1,2022_Sep_06_1126,ProdSingRedoBetween,2021.2.3,59.454446
,,,,148,0,148,0,,,,,,,,,,,,,,,,,,,,,,1433.322777,None,,,,,,,,,,,,,,,,,piece,94,149,silent,new,null,1429.838326,None,1429.838326,None,1,2.6081173,1429.838326,None,2.6081173,1432.472063,None,1432.989484,None,1432.989484,None,n,0.3050037,1432.989484,None,0.3050037,,,Sep6Silent1,1,2022_Sep_06_1126,ProdSingRedoBetween,2021.2.3,59.454446
,,,,149,0,149,0,,,,,,,,,,,,,,,,,,,,,,1443.398143,None,,,,,,,,,,,,,,,,,theme,177,150,silent,new,null,1433.832868,None,1433.832868,None,1,8.7415655,1433.832868,None,8.7415655,1442.598354,None,1443.113683,None,1443.113683,None,n,0.2527793,1443.113683,None,0.2527793,,,Sep6Silent1,1,2022_Sep_06_1126,ProdSingRedoBetween,2021.2.3,59.454446
,,,,150,0,150,0,,,,,,,,,,,,,,,,,,,,,,1447.920121,None,,,,,,,,,,,,,,,,,speech,136,151,silent,new,null,1443.908606,None,1443.908606,None,3,3.1938299,1443.908606,None,3.1938299,1447.119542,None,1447.635273,None,1447.635273,None,f,0.259211,1447.635273,None,0.259211,,,Sep6Silent1,1,2022_Sep_06_1126,ProdSingRedoBetween,2021.2.3,59.454446
,,,,151,0,151,0,,,,,,,,,,,,,,,,,,,,,,1451.810126,None,,,,,,,,,,,,,,,,,company,99,152,silent,new,null,1448.427901,None,1448.427901,None,6,2.5625445,1448.427901,None,2.5625445,1451.024197,None,1451.541712,None,1451.541712,None,r,0.248676,1451.541712,None,0.248676,,,Sep6Silent1,1,2022_Sep_06_1126,ProdSingRedoBetween,2021.2.3,59.454446
,,,,152,0,152,0,,,,,,,,,,,,,,,,,,,,,,1459.547819,None,,,,,,,,,,,,,,,,,drink,140,153,silent,new,null,1452.336954,None,1452.336954,None,2,6.3814469,1452.336954,None,6.3814469,1458.747652,None,1459.262993,None,1459.262993,None,f,0.2639815,1459.262993,None,0.2639815,,,Sep6Silent1,1,2022_Sep_06_1126,ProdSingRedoBetween,2021.2.3,59.454446
,,,,153,0,153,0,,,,,,,,,,,,,,,,,,,,,,1462.483701,None,,,,,,,,,,,,,,,,,pretty,37,154,silent,old,blue,1460.050899,None,1460.050899,None,6,1.635638,1460.050899,None,1.635638,1461.71832,None,1462.2333,None,1462.2333,None,r,0.2290725,1462.2333,None,0.2290725,,,Sep6Silent1,1,2022_Sep_06_1126,ProdSingRedoBetween,2021.2.3,59.454446
,,,,154,0,154,0,,,,,,,,,,,,,,,,,,,,,,1465.087299,None,,,,,,,,,,,,,,,,,sunset,19,155,silent,old,yellow,1462.986396,None,1462.986396,None,6,1.3962808,1462.986396,None,1.3962808,1464.403648,None,1464.919382,None,1464.919382,None,r,0.1511085,1464.919382,None,0.1511085,,,Sep6Silent1,1,2022_Sep_06_1126,ProdSingRedoBetween,2021.2.3,59.454446
,,,,155,0,155,0,,,,,,,,,,,,,,,,,,,,,,1469.373403,None,,,,,,,,,,,,,,,,,south,35,156,silent,old,blue,1465.604543,None,1465.604543,None,6,3.0899196,1465.604543,None,3.0899196,1468.726139,None,1469.242259,None,1469.242259,None,r,0.1082194,1469.242259,None,0.1082194,,,Sep6Silent1,1,2022_Sep_06_1126,ProdSingRedoBetween,2021.2.3,59.454446
,,,,156,0,156,0,,,,,,,,,,,,,,,,,,,,,,1473.52992,None,,,,,,,,,,,,,,,,,foundation,114,157,silent,new,null,1469.878779,None,1469.878779,None,3,2.7917656,1469.878779,None,2.7917656,1472.704597,None,1473.214573,None,1473.214573,None,f,0.2878917,1473.214573,None,0.2878917,,,Sep6Silent1,1,2022_Sep_06_1126,ProdSingRedoBetween,2021.2.3,59.454446
,,,,157,0,157,0,,,,,,,,,,,,,,,,,,,,,,1478.14992,None,,,,,,,,,,,,,,,,,capital,110,158,silent,new,null,1474.046632,None,1474.046632,None,6,3.2798418,1474.046632,None,3.2798418,1477.35149,None,1477.865147,None,1477.865147,None,r,0.2613038,1477.865147,None,0.2613038,,,Sep6Silent1,1,2022_Sep_06_1126,ProdSingRedoBetween,2021.2.3,59.454446
,,,,158,0,158,0,,,,,,,,,,,,,,,,,,,,,,1482.354976,None,,,,,,,,,,,,,,,,,portion,125,159,silent,new,null,1478.65386,None,1478.65386,None,1,2.7289903,1478.65386,None,2.7289903,1481.409152,None,1481.920308,None,1481.920308,None,n,0.4061396,1481.920308,None,0.4061396,,,Sep6Silent1,1,2022_Sep_06_1126,ProdSingRedoBetween,2021.2.3,59.454446
,,,,159,0,159,0,,,,,,,,,,,,,,,,,,,,,,1488.009416,None,,,,,,,,,,,,,,,,,report,28,160,silent,old,yellow,1482.872843,None,1482.872843,None,5,4.3016776,1482.872843,None,4.3016776,1487.194321,None,1487.708581,None,1487.708581,None,f,0.273962,1487.708581,None,0.273962,,,Sep6Silent1,1,2022_Sep_06_1126,ProdSingRedoBetween,2021.2.3,59.454446
,,,,160,0,160,0,,,,,,,,,,,,,,,,,,,,,,1492.397897,None,,,,,,,,,,,,,,,,,fashion,68,161,silent,old,red,1488.511892,None,1488.511892,None,6,3.1345789,1488.511892,None,3.1345789,1491.66448,None,1492.180036,None,1492.180036,None,r,0.1944629,1492.180036,None,0.1944629,,,Sep6Silent1,1,2022_Sep_06_1126,ProdSingRedoBetween,2021.2.3,59.454446
,,,,161,0,161,0,,,,,,,,,,,,,,,,,,,,,,1497.135224,None,,,,,,,,,,,,,,,,,afternoon,146,162,silent,new,null,1492.899771,None,1492.899771,None,3,3.3787363,1492.899771,None,3.3787363,1496.305283,None,1496.817401,None,1496.817401,None,f,0.2931186,1496.817401,None,0.2931186,,,Sep6Silent1,1,2022_Sep_06_1126,ProdSingRedoBetween,2021.2.3,59.454446
,,,,162,0,162,0,,,,,,,,,,,,,,,,,,,,,,1500.138357,None,,,,,,,,,,,,,,,,,escape,84,163,silent,old,red,1497.637769,None,1497.637769,None,6,1.6326991,1497.637769,None,1.6326991,1499.290016,None,1499.803739,None,1499.803739,None,r,0.3067021,1499.803739,None,0.3067021,,,Sep6Silent1,1,2022_Sep_06_1126,ProdSingRedoBetween,2021.2.3,59.454446
,,,,163,0,163,0,,,,,,,,,,,,,,,,,,,,,,1503.474338,None,,,,,,,,,,,,,,,,,scale,113,164,silent,new,null,1500.641286,None,1500.641286,None,5,1.9173676,1500.641286,None,1.9173676,1502.592818,None,1503.106863,None,1503.106863,None,f,0.3395664,1503.106863,None,0.3395664,,,Sep6Silent1,1,2022_Sep_06_1126,ProdSingRedoBetween,2021.2.3,59.454446
,,,,164,0,164,0,,,,,,,,,,,,,,,,,,,,,,1509.38023,None,,,,,,,,,,,,,,,,,patient,105,165,silent,new,null,1503.977,None,1503.977,None,1,4.5574671,1503.977,None,4.5574671,1508.565222,None,1509.079654,None,1509.079654,None,n,0.2708894,1509.079654,None,0.2708894,,,Sep6Silent1,1,2022_Sep_06_1126,ProdSingRedoBetween,2021.2.3,59.454446
,,,,165,0,165,0,,,,,,,,,,,,,,,,,,,,,,1512.468473,None,,,,,,,,,,,,,,,,,colonel,18,166,silent,old,yellow,1509.882741,None,1509.882741,None,6,1.6597258,1509.882741,None,1.6597258,1511.574041,None,1512.083432,None,1512.083432,None,r,0.3549606,1512.083432,None,0.3549606,,,Sep6Silent1,1,2022_Sep_06_1126,ProdSingRedoBetween,2021.2.3,59.454446
,,,,166,0,166,0,,,,,,,,,,,,,,,,,,,,,,1517.622972,None,,,,,,,,,,,,,,,,,passage,159,167,silent,new,null,1512.990656,None,1512.990656,None,1,3.7601139,1512.990656,None,3.7601139,1516.773628,None,1517.29268,None,1517.29268,None,n,0.3137553,1517.29268,None,0.3137553,,,Sep6Silent1,1,2022_Sep_06_1126,ProdSingRedoBetween,2021.2.3,59.454446
,,,,167,0,167,0,,,,,,,,,,,,,,,,,,,,,,1520.542781,None,,,,,,,,,,,,,,,,,signal,74,168,silent,old,red,1518.124937,None,1518.124937,None,6,1.6095494,1518.124937,None,1.6095494,1519.75951,None,1520.259142,None,1520.259142,None,r,0.2513371,1520.259142,None,0.2513371,,,Sep6Silent1,1,2022_Sep_06_1126,ProdSingRedoBetween,2021.2.3,59.454446
,,,,168,0,168,0,,,,,,,,,,,,,,,,,,,,,,1525.813751,None,,,,,,,,,,,,,,,,,platform,93,169,silent,new,null,1521.060583,None,1521.060583,None,4,3.8821853,1521.060583,None,3.8821853,1524.964804,None,1525.479746,None,1525.479746,None,f,0.3027508,1525.479746,None,0.3027508,,,Sep6Silent1,1,2022_Sep_06_1126,ProdSingRedoBetween,2021.2.3,59.454446
,,,,169,0,169,0,,,,,,,,,,,,,,,,,,,,,,1529.233739,None,,,,,,,,,,,,,,,,,broke,92,170,silent,new,null,1526.316446,None,1526.316446,None,1,1.8180595,1526.316446,None,1.8180595,1528.167407,None,1528.682673,None,1528.682673,None,n,0.5320276,1528.682673,None,0.5320276,,,Sep6Silent1,1,2022_Sep_06_1126,ProdSingRedoBetween,2021.2.3,59.454446
,,,,170,0,170,0,,,,,,,,,,,,,,,,,,,,,,1533.321959,None,,,,,,,,,,,,,,,,,interior,81,171,silent,old,red,1529.735292,None,1529.735292,None,6,2.719213,1529.735292,None,2.719213,1532.471743,None,1532.987474,None,1532.987474,None,r,0.3150657,1532.987474,None,0.3150657,,,Sep6Silent1,1,2022_Sep_06_1126,ProdSingRedoBetween,2021.2.3,59.454446
,,,,171,0,171,0,,,,,,,,,,,,,,,,,,,,,,1537.408844,None,,,,,,,,,,,,,,,,,front,11,172,silent,old,yellow,1533.824007,None,1533.824007,None,1,2.7025,1533.824007,None,2.7025,1536.560267,None,1537.074424,None,1537.074424,None,n,0.3082034,1537.074424,None,0.3082034,,,Sep6Silent1,1,2022_Sep_06_1126,ProdSingRedoBetween,2021.2.3,59.454446
,,,,172,0,172,0,,,,,,,,,,,,,,,,,,,,,,1541.26515,None,,,,,,,,,,,,,,,,,entrance,57,173,silent,old,blue,1537.912113,None,1537.912113,None,4,2.3584269,1537.912113,None,2.3584269,1540.29909,None,1540.811462,None,1540.811462,None,f,0.419247,1540.811462,None,0.419247,,,Sep6Silent1,1,2022_Sep_06_1126,ProdSingRedoBetween,2021.2.3,59.454446
,,,,173,0,173,0,,,,,,,,,,,,,,,,,,,,,,1544.181861,None,,,,,,,,,,,,,,,,,minor,31,174,silent,old,blue,1541.781403,None,1541.781403,None,6,1.6090754,1541.781403,None,1.6090754,1543.415605,None,1543.93186,None,1543.93186,None,r,0.2346496,1543.93186,None,0.2346496,,,Sep6Silent1,1,2022_Sep_06_1126,ProdSingRedoBetween,2021.2.3,59.454446
,,,,174,0,174,0,,,,,,,,,,,,,,,,,,,,,,1548.602769,None,,,,,,,,,,,,,,,,,trend,111,175,silent,new,null,1544.696101,None,1544.696101,None,6,3.1344449,1544.696101,None,3.1344449,1547.854642,None,1548.368571,None,1548.368571,None,r,0.2058807,1548.368571,None,0.2058807,,,Sep6Silent1,1,2022_Sep_06_1126,ProdSingRedoBetween,2021.2.3,59.454446
,,,,175,0,175,0,,,,,,,,,,,,,,,,,,,,,,1552.723999,None,,,,,,,,,,,,,,,,,whole,172,176,silent,new,null,1549.106039,None,1549.106039,None,3,2.6128034,1549.106039,None,2.6128034,1551.741442,None,1552.255971,None,1552.255971,None,f,0.4384599,1552.255971,None,0.4384599,,,Sep6Silent1,1,2022_Sep_06_1126,ProdSingRedoBetween,2021.2.3,59.454446
,,,,176,0,176,0,,,,,,,,,,,,,,,,,,,,,,1557.063302,None,,,,,,,,,,,,,,,,,pressure,158,177,silent,new,null,1553.226917,None,1553.226917,None,3,2.9876202,1553.226917,None,2.9876202,1556.245005,None,1556.745348,None,1556.745348,None,f,0.293194,1556.745348,None,0.293194,,,Sep6Silent1,1,2022_Sep_06_1126,ProdSingRedoBetween,2021.2.3,59.454446
,,,,177,0,177,0,,,,,,,,,,,,,,,,,,,,,,1561.398995,None,,,,,,,,,,,,,,,,,tragedy,165,178,silent,new,null,1557.581919,None,1557.581919,None,6,3.0967369,1557.581919,None,3.0967369,1560.700119,None,1561.215176,None,1561.215176,None,r,0.1674314,1561.215176,None,0.1674314,,,Sep6Silent1,1,2022_Sep_06_1126,ProdSingRedoBetween,2021.2.3,59.454446
,,,,178,0,178,0,,,,,,,,,,,,,,,,,,,,,,1566.171876,None,,,,,,,,,,,,,,,,,resistance,27,179,silent,old,yellow,1561.901891,None,1561.901891,None,1,3.1286122,1561.901891,None,3.1286122,1565.054951,None,1565.569506,None,1565.569506,None,n,0.5729872,1565.569506,None,0.5729872,,,Sep6Silent1,1,2022_Sep_06_1126,ProdSingRedoBetween,2021.2.3,59.454446
,,,,179,0,179,0,,,,,,,,,,,,,,,,,,,,,,1570.442128,None,,,,,,,,,,,,,,,,,tennis,17,180,silent,old,yellow,1566.689918,None,1566.689918,None,5,2.9005719,1566.689918,None,2.9005719,1569.608865,None,1570.124664,None,1570.124664,None,f,0.2979548,1570.124664,None,0.2979548,,,Sep6Silent1,1,2022_Sep_06_1126,ProdSingRedoBetween,2021.2.3,59.454446
,,,,,,,,,,,,,,,,,,,,,,,,,,,,,,,,,,,,,,,,,,,,,,,,,,,,,,,,,,,,,,,,,,,,,,,,,1570.9429,None,,,,,,
