StudyLoop.thisRepN,StudyLoop.thisTrialN,StudyLoop.thisN,StudyLoop.thisIndex,TestLoop.thisRepN,TestLoop.thisTrialN,TestLoop.thisN,TestLoop.thisIndex,textCondition.started,textCondition.stopped,keyCondition.keys,keyCondition.rt,keyCondition.started,keyCondition.stopped,Condition,textWelcome.started,textWelcome.stopped,keyWelcome.keys,keyWelcome.rt,keyWelcome.started,keyWelcome.stopped,textAloud.started,textAloud.stopped,textSilent.started,textSilent.stopped,textSing.started,textSing.stopped,conditional_text.started,conditional_text.stopped,textBlank500.started,textBlank500.stopped,study_word,study_num,study_order,study_type,word_color,textStudy.started,textStudy.stopped,keyStudy.keys,keyStudy.started,keyStudy.stopped,textTestInstructions.started,textTestInstructions.stopped,key_resp_3.keys,key_resp_3.rt,key_resp_3.started,key_resp_3.stopped,test_word,test_num,test_order,test_condition,old_new_test,test_word_original_color,textConf.started,textConf.stopped,textConfScale.started,textConfScale.stopped,keyConf.keys,keyConf.rt,keyConf.started,keyConf.stopped,confidence response time,textTestBlank.started,textTestBlank.stopped,textRKN.started,textRKN.stopped,textRKNScale.started,textRKNScale.stopped,keyRKN.keys,keyRKN.rt,keyRKN.started,keyRKN.stopped,rkn response time,textEnd.started,textEnd.stopped,participant,session,date,expName,psychopyVersion,frameRate,
,,,,,,,,22.071285999991233,None,a,154.1705296,22.071285999991233,None,,,,,,,,,,,,,,,,,,,,,,,,,,,,,,,,,,,,,,,,,,,,,,,,,,,,,,,,,,,,,,Silent01,001,2022_Jun_23_1000,ProdSingRedoBetween,2021.2.3,59.81841522186862,
,,,,,,,,,,,,,,SilentTest,176.30440599999565,None,space,50.62475919999997,176.30440599999565,None,,,,,,,,,,,,,,,,,,,,,,,,,,,,,,,,,,,,,,,,,,,,,,,,,,,,,,,Silent01,001,2022_Jun_23_1000,ProdSingRedoBetween,2021.2.3,59.81841522186862,
0,0,0,0,,,,,,,,,,,,,,,,,,176.30440599999565,None,176.30440599999565,None,176.30440599999565,None,176.30440599999565,None,229.46072920000006,None,health,50,1,silent,blue,227.45241369999712,None,None,227.45241369999712,None,,,,,,,,,,,,,,,,,,,,,,,,,,,,,,,,,,,Silent01,001,2022_Jun_23_1000,ProdSingRedoBetween,2021.2.3,59.81841522186862,
1,0,1,0,,,,,,,,,,,,,,,,,,,,,,,,,,231.96344609999505,None,carry,12,2,silent,yellow,229.96136139999726,None,None,229.96136139999726,None,,,,,,,,,,,,,,,,,,,,,,,,,,,,,,,,,,,Silent01,001,2022_Jun_23_1000,ProdSingRedoBetween,2021.2.3,59.81841522186862,
2,0,2,0,,,,,,,,,,,,,,,,,,,,,,,,,,234.48275399999693,None,corner,48,3,silent,blue,232.47297919999983,None,None,232.47297919999983,None,,,,,,,,,,,,,,,,,,,,,,,,,,,,,,,,,,,Silent01,001,2022_Jun_23_1000,ProdSingRedoBetween,2021.2.3,59.81841522186862,
3,0,3,0,,,,,,,,,,,,,,,,,,,,,,,,,,237.00189909999608,None,throw,75,4,silent,red,234.99074529999052,None,None,234.99074529999052,None,,,,,,,,,,,,,,,,,,,,,,,,,,,,,,,,,,,Silent01,001,2022_Jun_23_1000,ProdSingRedoBetween,2021.2.3,59.81841522186862,
4,0,4,0,,,,,,,,,,,,,,,,,,,,,,,,,,239.52107109999633,None,goose,62,5,silent,red,237.51026099998853,None,None,237.51026099998853,None,,,,,,,,,,,,,,,,,,,,,,,,,,,,,,,,,,,Silent01,001,2022_Jun_23_1000,ProdSingRedoBetween,2021.2.3,59.81841522186862,
5,0,5,0,,,,,,,,,,,,,,,,,,,,,,,,,,242.04018279998854,None,light,49,6,silent,blue,240.0273664999986,None,None,240.0273664999986,None,,,,,,,,,,,,,,,,,,,,,,,,,,,,,,,,,,,Silent01,001,2022_Jun_23_1000,ProdSingRedoBetween,2021.2.3,59.81841522186862,
6,0,6,0,,,,,,,,,,,,,,,,,,,,,,,,,,244.5594412999926,None,under,13,7,silent,yellow,242.54795359999116,None,None,242.54795359999116,None,,,,,,,,,,,,,,,,,,,,,,,,,,,,,,,,,,,Silent01,001,2022_Jun_23_1000,ProdSingRedoBetween,2021.2.3,59.81841522186862,
7,0,7,0,,,,,,,,,,,,,,,,,,,,,,,,,,247.07864939999126,None,century,87,8,silent,red,245.07136889999674,None,None,245.07136889999674,None,,,,,,,,,,,,,,,,,,,,,,,,,,,,,,,,,,,Silent01,001,2022_Jun_23_1000,ProdSingRedoBetween,2021.2.3,59.81841522186862,
8,0,8,0,,,,,,,,,,,,,,,,,,,,,,,,,,249.5977961999888,None,whole,31,9,silent,blue,247.58741369999188,None,None,247.58741369999188,None,,,,,,,,,,,,,,,,,,,,,,,,,,,,,,,,,,,Silent01,001,2022_Jun_23_1000,ProdSingRedoBetween,2021.2.3,59.81841522186862,
9,0,9,0,,,,,,,,,,,,,,,,,,,,,,,,,,252.11657049998757,None,prime,44,10,silent,blue,250.10840239998652,None,None,250.10840239998652,None,,,,,,,,,,,,,,,,,,,,,,,,,,,,,,,,,,,Silent01,001,2022_Jun_23_1000,ProdSingRedoBetween,2021.2.3,59.81841522186862,
10,0,10,0,,,,,,,,,,,,,,,,,,,,,,,,,,254.6360898999992,None,direction,33,11,silent,blue,252.62094439999782,None,None,252.62094439999782,None,,,,,,,,,,,,,,,,,,,,,,,,,,,,,,,,,,,Silent01,001,2022_Jun_23_1000,ProdSingRedoBetween,2021.2.3,59.81841522186862,
11,0,11,0,,,,,,,,,,,,,,,,,,,,,,,,,,257.15536489999795,None,command,41,12,silent,blue,255.14364809999825,None,None,255.14364809999825,None,,,,,,,,,,,,,,,,,,,,,,,,,,,,,,,,,,,Silent01,001,2022_Jun_23_1000,ProdSingRedoBetween,2021.2.3,59.81841522186862,
12,0,12,0,,,,,,,,,,,,,,,,,,,,,,,,,,259.6745191999944,None,congress,8,13,silent,yellow,257.6654090999946,None,None,257.6654090999946,None,,,,,,,,,,,,,,,,,,,,,,,,,,,,,,,,,,,Silent01,001,2022_Jun_23_1000,ProdSingRedoBetween,2021.2.3,59.81841522186862,
13,0,13,0,,,,,,,,,,,,,,,,,,,,,,,,,,262.1935969999904,None,waste,64,14,silent,red,260.18692889998783,None,None,260.18692889998783,None,,,,,,,,,,,,,,,,,,,,,,,,,,,,,,,,,,,Silent01,001,2022_Jun_23_1000,ProdSingRedoBetween,2021.2.3,59.81841522186862,
14,0,14,0,,,,,,,,,,,,,,,,,,,,,,,,,,264.712735299996,None,music,77,15,silent,red,262.70384839999315,None,None,262.70384839999315,None,,,,,,,,,,,,,,,,,,,,,,,,,,,,,,,,,,,Silent01,001,2022_Jun_23_1000,ProdSingRedoBetween,2021.2.3,59.81841522186862,
15,0,15,0,,,,,,,,,,,,,,,,,,,,,,,,,,267.232068399986,None,material,19,16,silent,yellow,265.2236130999954,None,None,265.2236130999954,None,,,,,,,,,,,,,,,,,,,,,,,,,,,,,,,,,,,Silent01,001,2022_Jun_23_1000,ProdSingRedoBetween,2021.2.3,59.81841522186862,
16,0,16,0,,,,,,,,,,,,,,,,,,,,,,,,,,269.7512890999933,None,concern,38,17,silent,blue,267.7410807999986,None,None,267.7410807999986,None,,,,,,,,,,,,,,,,,,,,,,,,,,,,,,,,,,,Silent01,001,2022_Jun_23_1000,ProdSingRedoBetween,2021.2.3,59.81841522186862,
17,0,17,0,,,,,,,,,,,,,,,,,,,,,,,,,,272.27034730000014,None,payment,45,18,silent,blue,270.2634446999873,None,None,270.2634446999873,None,,,,,,,,,,,,,,,,,,,,,,,,,,,,,,,,,,,Silent01,001,2022_Jun_23_1000,ProdSingRedoBetween,2021.2.3,59.81841522186862,
18,0,18,0,,,,,,,,,,,,,,,,,,,,,,,,,,274.78958889999194,None,opening,82,19,silent,red,272.7813274999935,None,None,272.7813274999935,None,,,,,,,,,,,,,,,,,,,,,,,,,,,,,,,,,,,Silent01,001,2022_Jun_23_1000,ProdSingRedoBetween,2021.2.3,59.81841522186862,
19,0,19,0,,,,,,,,,,,,,,,,,,,,,,,,,,277.3087514999934,None,collection,23,20,silent,yellow,275.2975785999879,None,None,275.2975785999879,None,,,,,,,,,,,,,,,,,,,,,,,,,,,,,,,,,,,Silent01,001,2022_Jun_23_1000,ProdSingRedoBetween,2021.2.3,59.81841522186862,
20,0,20,0,,,,,,,,,,,,,,,,,,,,,,,,,,279.8286623999884,None,raise,61,21,silent,red,277.8197138999967,None,None,277.8197138999967,None,,,,,,,,,,,,,,,,,,,,,,,,,,,,,,,,,,,Silent01,001,2022_Jun_23_1000,ProdSingRedoBetween,2021.2.3,59.81841522186862,
21,0,21,0,,,,,,,,,,,,,,,,,,,,,,,,,,282.3467715999868,None,native,42,22,silent,blue,280.34690919998684,None,None,280.34690919998684,None,,,,,,,,,,,,,,,,,,,,,,,,,,,,,,,,,,,Silent01,001,2022_Jun_23_1000,ProdSingRedoBetween,2021.2.3,59.81841522186862,
22,0,22,0,,,,,,,,,,,,,,,,,,,,,,,,,,284.8662936999899,None,agency,20,23,silent,yellow,282.85900279998896,None,None,282.85900279998896,None,,,,,,,,,,,,,,,,,,,,,,,,,,,,,,,,,,,Silent01,001,2022_Jun_23_1000,ProdSingRedoBetween,2021.2.3,59.81841522186862,
23,0,23,0,,,,,,,,,,,,,,,,,,,,,,,,,,287.3855562999961,None,escape,72,24,silent,red,285.3804112999933,None,None,285.3804112999933,None,,,,,,,,,,,,,,,,,,,,,,,,,,,,,,,,,,,Silent01,001,2022_Jun_23_1000,ProdSingRedoBetween,2021.2.3,59.81841522186862,
24,0,24,0,,,,,,,,,,,,,,,,,,,,,,,,,,289.90468529998907,None,number,15,25,silent,yellow,287.89691219999804,None,None,287.89691219999804,None,,,,,,,,,,,,,,,,,,,,,,,,,,,,,,,,,,,Silent01,001,2022_Jun_23_1000,ProdSingRedoBetween,2021.2.3,59.81841522186862,
25,0,25,0,,,,,,,,,,,,,,,,,,,,,,,,,,292.4235872999998,None,edition,3,26,silent,yellow,290.41263329998765,None,None,290.41263329998765,None,,,,,,,,,,,,,,,,,,,,,,,,,,,,,,,,,,,Silent01,001,2022_Jun_23_1000,ProdSingRedoBetween,2021.2.3,59.81841522186862,
26,0,26,0,,,,,,,,,,,,,,,,,,,,,,,,,,294.9427200999926,None,listen,34,27,silent,blue,292.93008519998693,None,None,292.93008519998693,None,,,,,,,,,,,,,,,,,,,,,,,,,,,,,,,,,,,Silent01,001,2022_Jun_23_1000,ProdSingRedoBetween,2021.2.3,59.81841522186862,
27,0,27,0,,,,,,,,,,,,,,,,,,,,,,,,,,297.4455387999915,None,master,36,28,silent,blue,295.44324829999823,None,None,295.44324829999823,None,,,,,,,,,,,,,,,,,,,,,,,,,,,,,,,,,,,Silent01,001,2022_Jun_23_1000,ProdSingRedoBetween,2021.2.3,59.81841522186862,
28,0,28,0,,,,,,,,,,,,,,,,,,,,,,,,,,299.96449629998824,None,symbol,9,29,silent,yellow,297.95653259998653,None,None,297.95653259998653,None,,,,,,,,,,,,,,,,,,,,,,,,,,,,,,,,,,,Silent01,001,2022_Jun_23_1000,ProdSingRedoBetween,2021.2.3,59.81841522186862,
29,0,29,0,,,,,,,,,,,,,,,,,,,,,,,,,,302.4837220999907,None,primary,60,30,silent,red,300.47550849999243,None,None,300.47550849999243,None,,,,,,,,,,,,,,,,,,,,,,,,,,,,,,,,,,,Silent01,001,2022_Jun_23_1000,ProdSingRedoBetween,2021.2.3,59.81841522186862,
30,0,30,0,,,,,,,,,,,,,,,,,,,,,,,,,,305.00299259999883,None,suspect,84,31,silent,red,302.99476659999345,None,None,302.99476659999345,None,,,,,,,,,,,,,,,,,,,,,,,,,,,,,,,,,,,Silent01,001,2022_Jun_23_1000,ProdSingRedoBetween,2021.2.3,59.81841522186862,
31,0,31,0,,,,,,,,,,,,,,,,,,,,,,,,,,307.52222079999046,None,report,18,32,silent,yellow,305.5142286999908,None,None,305.5142286999908,None,,,,,,,,,,,,,,,,,,,,,,,,,,,,,,,,,,,Silent01,001,2022_Jun_23_1000,ProdSingRedoBetween,2021.2.3,59.81841522186862,
32,0,32,0,,,,,,,,,,,,,,,,,,,,,,,,,,310.041401399998,None,track,6,33,silent,yellow,308.0346991999977,None,None,308.0346991999977,None,,,,,,,,,,,,,,,,,,,,,,,,,,,,,,,,,,,Silent01,001,2022_Jun_23_1000,ProdSingRedoBetween,2021.2.3,59.81841522186862,
33,0,33,0,,,,,,,,,,,,,,,,,,,,,,,,,,312.5605993999925,None,contract,14,34,silent,yellow,310.55090779998864,None,None,310.55090779998864,None,,,,,,,,,,,,,,,,,,,,,,,,,,,,,,,,,,,Silent01,001,2022_Jun_23_1000,ProdSingRedoBetween,2021.2.3,59.81841522186862,
34,0,34,0,,,,,,,,,,,,,,,,,,,,,,,,,,315.0800687999872,None,evidence,35,35,silent,blue,313.0722841999959,None,None,313.0722841999959,None,,,,,,,,,,,,,,,,,,,,,,,,,,,,,,,,,,,Silent01,001,2022_Jun_23_1000,ProdSingRedoBetween,2021.2.3,59.81841522186862,
35,0,35,0,,,,,,,,,,,,,,,,,,,,,,,,,,317.59893939999165,None,people,66,36,silent,red,315.5902283999894,None,None,315.5902283999894,None,,,,,,,,,,,,,,,,,,,,,,,,,,,,,,,,,,,Silent01,001,2022_Jun_23_1000,ProdSingRedoBetween,2021.2.3,59.81841522186862,
36,0,36,0,,,,,,,,,,,,,,,,,,,,,,,,,,320.1190334999992,None,business,78,37,silent,red,318.1130231999996,None,None,318.1130231999996,None,,,,,,,,,,,,,,,,,,,,,,,,,,,,,,,,,,,Silent01,001,2022_Jun_23_1000,ProdSingRedoBetween,2021.2.3,59.81841522186862,
37,0,37,0,,,,,,,,,,,,,,,,,,,,,,,,,,322.63724179999554,None,growth,28,38,silent,yellow,320.63010509999003,None,None,320.63010509999003,None,,,,,,,,,,,,,,,,,,,,,,,,,,,,,,,,,,,Silent01,001,2022_Jun_23_1000,ProdSingRedoBetween,2021.2.3,59.81841522186862,
38,0,38,0,,,,,,,,,,,,,,,,,,,,,,,,,,325.1563843999902,None,front,40,39,silent,blue,323.14585609998903,None,None,323.14585609998903,None,,,,,,,,,,,,,,,,,,,,,,,,,,,,,,,,,,,Silent01,001,2022_Jun_23_1000,ProdSingRedoBetween,2021.2.3,59.81841522186862,
39,0,39,0,,,,,,,,,,,,,,,,,,,,,,,,,,327.67567399999825,None,block,25,40,silent,yellow,325.6685823999869,None,None,325.6685823999869,None,,,,,,,,,,,,,,,,,,,,,,,,,,,,,,,,,,,Silent01,001,2022_Jun_23_1000,ProdSingRedoBetween,2021.2.3,59.81841522186862,
40,0,40,0,,,,,,,,,,,,,,,,,,,,,,,,,,330.19485619998886,None,author,17,41,silent,yellow,328.1857047999947,None,None,328.1857047999947,None,,,,,,,,,,,,,,,,,,,,,,,,,,,,,,,,,,,Silent01,001,2022_Jun_23_1000,ProdSingRedoBetween,2021.2.3,59.81841522186862,
41,0,41,0,,,,,,,,,,,,,,,,,,,,,,,,,,332.7140156999958,None,majority,70,42,silent,red,330.71492719999515,None,None,330.71492719999515,None,,,,,,,,,,,,,,,,,,,,,,,,,,,,,,,,,,,Silent01,001,2022_Jun_23_1000,ProdSingRedoBetween,2021.2.3,59.81841522186862,
42,0,42,0,,,,,,,,,,,,,,,,,,,,,,,,,,335.23325139998633,None,religion,24,43,silent,yellow,333.2238815999881,None,None,333.2238815999881,None,,,,,,,,,,,,,,,,,,,,,,,,,,,,,,,,,,,Silent01,001,2022_Jun_23_1000,ProdSingRedoBetween,2021.2.3,59.81841522186862,
43,0,43,0,,,,,,,,,,,,,,,,,,,,,,,,,,337.7524418999965,None,drink,83,44,silent,red,335.7445363999868,None,None,335.7445363999868,None,,,,,,,,,,,,,,,,,,,,,,,,,,,,,,,,,,,Silent01,001,2022_Jun_23_1000,ProdSingRedoBetween,2021.2.3,59.81841522186862,
44,0,44,0,,,,,,,,,,,,,,,,,,,,,,,,,,340.2715921999916,None,search,86,45,silent,red,338.2622209999972,None,None,338.2622209999972,None,,,,,,,,,,,,,,,,,,,,,,,,,,,,,,,,,,,Silent01,001,2022_Jun_23_1000,ProdSingRedoBetween,2021.2.3,59.81841522186862,
45,0,45,0,,,,,,,,,,,,,,,,,,,,,,,,,,342.7907875999954,None,group,58,46,silent,blue,340.7846292999893,None,None,340.7846292999893,None,,,,,,,,,,,,,,,,,,,,,,,,,,,,,,,,,,,Silent01,001,2022_Jun_23_1000,ProdSingRedoBetween,2021.2.3,59.81841522186862,
46,0,46,0,,,,,,,,,,,,,,,,,,,,,,,,,,345.30984739999985,None,trash,56,47,silent,blue,343.3011710999999,None,None,343.3011710999999,None,,,,,,,,,,,,,,,,,,,,,,,,,,,,,,,,,,,Silent01,001,2022_Jun_23_1000,ProdSingRedoBetween,2021.2.3,59.81841522186862,
47,0,47,0,,,,,,,,,,,,,,,,,,,,,,,,,,347.8123987999861,None,trend,80,48,silent,red,345.81023119999736,None,None,345.81023119999736,None,,,,,,,,,,,,,,,,,,,,,,,,,,,,,,,,,,,Silent01,001,2022_Jun_23_1000,ProdSingRedoBetween,2021.2.3,59.81841522186862,
48,0,48,0,,,,,,,,,,,,,,,,,,,,,,,,,,350.3315983999928,None,judge,79,49,silent,red,348.32511319998594,None,None,348.32511319998594,None,,,,,,,,,,,,,,,,,,,,,,,,,,,,,,,,,,,Silent01,001,2022_Jun_23_1000,ProdSingRedoBetween,2021.2.3,59.81841522186862,
49,0,49,0,,,,,,,,,,,,,,,,,,,,,,,,,,352.85073569999076,None,comedy,69,50,silent,red,350.8432380999875,None,None,350.8432380999875,None,,,,,,,,,,,,,,,,,,,,,,,,,,,,,,,,,,,Silent01,001,2022_Jun_23_1000,ProdSingRedoBetween,2021.2.3,59.81841522186862,
50,0,50,0,,,,,,,,,,,,,,,,,,,,,,,,,,355.37035189999733,None,engineer,0,51,silent,yellow,353.3590613999986,None,None,353.3590613999986,None,,,,,,,,,,,,,,,,,,,,,,,,,,,,,,,,,,,Silent01,001,2022_Jun_23_1000,ProdSingRedoBetween,2021.2.3,59.81841522186862,
51,0,51,0,,,,,,,,,,,,,,,,,,,,,,,,,,357.8721996999957,None,motion,29,52,silent,blue,355.87010679999366,None,None,355.87010679999366,None,,,,,,,,,,,,,,,,,,,,,,,,,,,,,,,,,,,Silent01,001,2022_Jun_23_1000,ProdSingRedoBetween,2021.2.3,59.81841522186862,
52,0,52,0,,,,,,,,,,,,,,,,,,,,,,,,,,360.37717179999163,None,range,47,53,silent,blue,358.37281869999424,None,None,358.37281869999424,None,,,,,,,,,,,,,,,,,,,,,,,,,,,,,,,,,,,Silent01,001,2022_Jun_23_1000,ProdSingRedoBetween,2021.2.3,59.81841522186862,
53,0,53,0,,,,,,,,,,,,,,,,,,,,,,,,,,362.9107951999904,None,portion,1,54,silent,yellow,360.9023496999871,None,None,360.9023496999871,None,,,,,,,,,,,,,,,,,,,,,,,,,,,,,,,,,,,Silent01,001,2022_Jun_23_1000,ProdSingRedoBetween,2021.2.3,59.81841522186862,
54,0,54,0,,,,,,,,,,,,,,,,,,,,,,,,,,365.4299198999943,None,benefit,73,55,silent,red,363.41989239999384,None,None,363.41989239999384,None,,,,,,,,,,,,,,,,,,,,,,,,,,,,,,,,,,,Silent01,001,2022_Jun_23_1000,ProdSingRedoBetween,2021.2.3,59.81841522186862,
55,0,55,0,,,,,,,,,,,,,,,,,,,,,,,,,,367.94954529999814,None,afternoon,39,56,silent,blue,365.9419925999973,None,None,365.9419925999973,None,,,,,,,,,,,,,,,,,,,,,,,,,,,,,,,,,,,Silent01,001,2022_Jun_23_1000,ProdSingRedoBetween,2021.2.3,59.81841522186862,
56,0,56,0,,,,,,,,,,,,,,,,,,,,,,,,,,370.46886759999325,None,crime,88,57,silent,red,368.4571603999939,None,None,368.4571603999939,None,,,,,,,,,,,,,,,,,,,,,,,,,,,,,,,,,,,Silent01,001,2022_Jun_23_1000,ProdSingRedoBetween,2021.2.3,59.81841522186862,
57,0,57,0,,,,,,,,,,,,,,,,,,,,,,,,,,372.9874635999877,None,order,2,58,silent,yellow,370.9764051999955,None,None,370.9764051999955,None,,,,,,,,,,,,,,,,,,,,,,,,,,,,,,,,,,,Silent01,001,2022_Jun_23_1000,ProdSingRedoBetween,2021.2.3,59.81841522186862,
58,0,58,0,,,,,,,,,,,,,,,,,,,,,,,,,,375.5066036999924,None,store,54,59,silent,blue,373.49909439998737,None,None,373.49909439998737,None,,,,,,,,,,,,,,,,,,,,,,,,,,,,,,,,,,,Silent01,001,2022_Jun_23_1000,ProdSingRedoBetween,2021.2.3,59.81841522186862,
59,0,59,0,,,,,,,,,,,,,,,,,,,,,,,,,,378.02561699999205,None,thing,5,60,silent,yellow,376.0158623999887,None,None,376.0158623999887,None,,,,,,,,,,,,,,,,,,,,,,,,,,,,,,,,,,,Silent01,001,2022_Jun_23_1000,ProdSingRedoBetween,2021.2.3,59.81841522186862,
60,0,60,0,,,,,,,,,,,,,,,,,,,,,,,,,,380.54500199999893,None,division,67,61,silent,red,378.53933539999707,None,None,378.53933539999707,None,,,,,,,,,,,,,,,,,,,,,,,,,,,,,,,,,,,Silent01,001,2022_Jun_23_1000,ProdSingRedoBetween,2021.2.3,59.81841522186862,
61,0,61,0,,,,,,,,,,,,,,,,,,,,,,,,,,383.06426179999835,None,speech,89,62,silent,red,381.055452399989,None,None,381.055452399989,None,,,,,,,,,,,,,,,,,,,,,,,,,,,,,,,,,,,Silent01,001,2022_Jun_23_1000,ProdSingRedoBetween,2021.2.3,59.81841522186862,
62,0,62,0,,,,,,,,,,,,,,,,,,,,,,,,,,385.5834457999881,None,guard,37,63,silent,blue,383.5739138999925,None,None,383.5739138999925,None,,,,,,,,,,,,,,,,,,,,,,,,,,,,,,,,,,,Silent01,001,2022_Jun_23_1000,ProdSingRedoBetween,2021.2.3,59.81841522186862,
63,0,63,0,,,,,,,,,,,,,,,,,,,,,,,,,,388.10254249999707,None,travel,57,64,silent,blue,386.09509519999847,None,None,386.09509519999847,None,,,,,,,,,,,,,,,,,,,,,,,,,,,,,,,,,,,Silent01,001,2022_Jun_23_1000,ProdSingRedoBetween,2021.2.3,59.81841522186862,
64,0,64,0,,,,,,,,,,,,,,,,,,,,,,,,,,390.62178879999556,None,oxygen,74,65,silent,red,388.61375789999147,None,None,388.61375789999147,None,,,,,,,,,,,,,,,,,,,,,,,,,,,,,,,,,,,Silent01,001,2022_Jun_23_1000,ProdSingRedoBetween,2021.2.3,59.81841522186862,
65,0,65,0,,,,,,,,,,,,,,,,,,,,,,,,,,393.14088909998827,None,pressure,10,66,silent,yellow,391.13169449999987,None,None,391.13169449999987,None,,,,,,,,,,,,,,,,,,,,,,,,,,,,,,,,,,,Silent01,001,2022_Jun_23_1000,ProdSingRedoBetween,2021.2.3,59.81841522186862,
66,0,66,0,,,,,,,,,,,,,,,,,,,,,,,,,,395.66002689999004,None,month,59,67,silent,yellow,393.65141869999934,None,None,393.65141869999934,None,,,,,,,,,,,,,,,,,,,,,,,,,,,,,,,,,,,Silent01,001,2022_Jun_23_1000,ProdSingRedoBetween,2021.2.3,59.81841522186862,
67,0,67,0,,,,,,,,,,,,,,,,,,,,,,,,,,398.1792706999986,None,rural,30,68,silent,blue,396.1670984999946,None,None,396.1670984999946,None,,,,,,,,,,,,,,,,,,,,,,,,,,,,,,,,,,,Silent01,001,2022_Jun_23_1000,ProdSingRedoBetween,2021.2.3,59.81841522186862,
68,0,68,0,,,,,,,,,,,,,,,,,,,,,,,,,,400.69842889999563,None,pattern,52,69,silent,blue,398.69153599999845,None,None,398.69153599999845,None,,,,,,,,,,,,,,,,,,,,,,,,,,,,,,,,,,,Silent01,001,2022_Jun_23_1000,ProdSingRedoBetween,2021.2.3,59.81841522186862,
69,0,69,0,,,,,,,,,,,,,,,,,,,,,,,,,,403.2176809999946,None,smell,51,70,silent,blue,401.2146348999959,None,None,401.2146348999959,None,,,,,,,,,,,,,,,,,,,,,,,,,,,,,,,,,,,Silent01,001,2022_Jun_23_1000,ProdSingRedoBetween,2021.2.3,59.81841522186862,
70,0,70,0,,,,,,,,,,,,,,,,,,,,,,,,,,405.7372353999963,None,resistance,32,71,silent,blue,403.7314970999869,None,None,403.7314970999869,None,,,,,,,,,,,,,,,,,,,,,,,,,,,,,,,,,,,Silent01,001,2022_Jun_23_1000,ProdSingRedoBetween,2021.2.3,59.81841522186862,
71,0,71,0,,,,,,,,,,,,,,,,,,,,,,,,,,408.2560330999986,None,meeting,21,72,silent,yellow,406.2464290999924,None,None,406.2464290999924,None,,,,,,,,,,,,,,,,,,,,,,,,,,,,,,,,,,,Silent01,001,2022_Jun_23_1000,ProdSingRedoBetween,2021.2.3,59.81841522186862,
72,0,72,0,,,,,,,,,,,,,,,,,,,,,,,,,,410.77525209999294,None,executive,65,73,silent,red,408.7710132999928,None,None,408.7710132999928,None,,,,,,,,,,,,,,,,,,,,,,,,,,,,,,,,,,,Silent01,001,2022_Jun_23_1000,ProdSingRedoBetween,2021.2.3,59.81841522186862,
73,0,73,0,,,,,,,,,,,,,,,,,,,,,,,,,,413.2944499999867,None,substance,55,74,silent,blue,411.2884092999884,None,None,411.2884092999884,None,,,,,,,,,,,,,,,,,,,,,,,,,,,,,,,,,,,Silent01,001,2022_Jun_23_1000,ProdSingRedoBetween,2021.2.3,59.81841522186862,
74,0,74,0,,,,,,,,,,,,,,,,,,,,,,,,,,415.81359999999404,None,subject,26,75,silent,yellow,413.8092956999899,None,None,413.8092956999899,None,,,,,,,,,,,,,,,,,,,,,,,,,,,,,,,,,,,Silent01,001,2022_Jun_23_1000,ProdSingRedoBetween,2021.2.3,59.81841522186862,
75,0,75,0,,,,,,,,,,,,,,,,,,,,,,,,,,418.3328515999892,None,nature,43,76,silent,blue,416.3201020999986,None,None,416.3201020999986,None,,,,,,,,,,,,,,,,,,,,,,,,,,,,,,,,,,,Silent01,001,2022_Jun_23_1000,ProdSingRedoBetween,2021.2.3,59.81841522186862,
76,0,76,0,,,,,,,,,,,,,,,,,,,,,,,,,,420.8516971999925,None,marriage,11,77,silent,yellow,418.84309939999366,None,None,418.84309939999366,None,,,,,,,,,,,,,,,,,,,,,,,,,,,,,,,,,,,Silent01,001,2022_Jun_23_1000,ProdSingRedoBetween,2021.2.3,59.81841522186862,
77,0,77,0,,,,,,,,,,,,,,,,,,,,,,,,,,423.35508689998824,None,turkey,81,78,silent,red,421.3521569999866,None,None,421.3521569999866,None,,,,,,,,,,,,,,,,,,,,,,,,,,,,,,,,,,,Silent01,001,2022_Jun_23_1000,ProdSingRedoBetween,2021.2.3,59.81841522186862,
78,0,78,0,,,,,,,,,,,,,,,,,,,,,,,,,,425.87342779999017,None,beginning,22,79,silent,yellow,423.8647060999938,None,None,423.8647060999938,None,,,,,,,,,,,,,,,,,,,,,,,,,,,,,,,,,,,Silent01,001,2022_Jun_23_1000,ProdSingRedoBetween,2021.2.3,59.81841522186862,
79,0,79,0,,,,,,,,,,,,,,,,,,,,,,,,,,428.3783565999911,None,government,53,80,silent,blue,426.37668909999775,None,None,426.37668909999775,None,,,,,,,,,,,,,,,,,,,,,,,,,,,,,,,,,,,Silent01,001,2022_Jun_23_1000,ProdSingRedoBetween,2021.2.3,59.81841522186862,
80,0,80,0,,,,,,,,,,,,,,,,,,,,,,,,,,430.9119553999917,None,taste,27,81,silent,yellow,428.903533699995,None,None,428.903533699995,None,,,,,,,,,,,,,,,,,,,,,,,,,,,,,,,,,,,Silent01,001,2022_Jun_23_1000,ProdSingRedoBetween,2021.2.3,59.81841522186862,
81,0,81,0,,,,,,,,,,,,,,,,,,,,,,,,,,433.43112189999374,None,cousin,71,82,silent,red,431.4234398999979,None,None,431.4234398999979,None,,,,,,,,,,,,,,,,,,,,,,,,,,,,,,,,,,,Silent01,001,2022_Jun_23_1000,ProdSingRedoBetween,2021.2.3,59.81841522186862,
82,0,82,0,,,,,,,,,,,,,,,,,,,,,,,,,,435.9502758999879,None,period,85,83,silent,red,433.9436530999956,None,None,433.9436530999956,None,,,,,,,,,,,,,,,,,,,,,,,,,,,,,,,,,,,Silent01,001,2022_Jun_23_1000,ProdSingRedoBetween,2021.2.3,59.81841522186862,
83,0,83,0,,,,,,,,,,,,,,,,,,,,,,,,,,438.46955019999587,None,debate,46,84,silent,blue,436.4593271999911,None,None,436.4593271999911,None,,,,,,,,,,,,,,,,,,,,,,,,,,,,,,,,,,,Silent01,001,2022_Jun_23_1000,ProdSingRedoBetween,2021.2.3,59.81841522186862,
84,0,84,0,,,,,,,,,,,,,,,,,,,,,,,,,,440.98841489999904,None,hearing,68,85,silent,red,438.9786533999868,None,None,438.9786533999868,None,,,,,,,,,,,,,,,,,,,,,,,,,,,,,,,,,,,Silent01,001,2022_Jun_23_1000,ProdSingRedoBetween,2021.2.3,59.81841522186862,
85,0,85,0,,,,,,,,,,,,,,,,,,,,,,,,,,443.5078783999925,None,universal,63,86,silent,red,441.506696299999,None,None,441.506696299999,None,,,,,,,,,,,,,,,,,,,,,,,,,,,,,,,,,,,Silent01,001,2022_Jun_23_1000,ProdSingRedoBetween,2021.2.3,59.81841522186862,
86,0,86,0,,,,,,,,,,,,,,,,,,,,,,,,,,446.0104566999944,None,individual,76,87,silent,red,444.0109846999985,None,None,444.0109846999985,None,,,,,,,,,,,,,,,,,,,,,,,,,,,,,,,,,,,Silent01,001,2022_Jun_23_1000,ProdSingRedoBetween,2021.2.3,59.81841522186862,
87,0,87,0,,,,,,,,,,,,,,,,,,,,,,,,,,448.5295434999862,None,frank,7,88,silent,yellow,446.5247631999955,None,None,446.5247631999955,None,,,,,,,,,,,,,,,,,,,,,,,,,,,,,,,,,,,Silent01,001,2022_Jun_23_1000,ProdSingRedoBetween,2021.2.3,59.81841522186862,
88,0,88,0,,,,,,,,,,,,,,,,,,,,,,,,,,451.048684399997,None,detective,16,89,silent,yellow,449.03992129999097,None,None,449.03992129999097,None,,,,,,,,,,,,,,,,,,,,,,,,,,,,,,,,,,,Silent01,001,2022_Jun_23_1000,ProdSingRedoBetween,2021.2.3,59.81841522186862,
89,0,89,0,,,,,,,,,,,,,,,,,,,,,,,,,,453.56798939999135,None,private,4,90,silent,yellow,451.5642949999892,None,None,451.5642949999892,None,,,,,,,,,,,,,,,,,,,,,,,,,,,,,,,,,,,Silent01,001,2022_Jun_23_1000,ProdSingRedoBetween,2021.2.3,59.81841522186862,
,,,,,,,,,,,,,,,,,,,,,,,,,,,,,,,,,,,,,,,,,454.0686055999977,None,k,84.39643540000543,454.0686055999977,None,,,,,,,,,,,,,,,,,,,,,,,,,,,,,Silent01,001,2022_Jun_23_1000,ProdSingRedoBetween,2021.2.3,59.81841522186862,
,,,,0,0,0,0,,,,,,,,,,,,,,,,,,,,,,563.1870482999948,None,,,,,,,,,,,,,,,,,instrument,110,1,silent,new,null,539.0089171999862,None,539.0089171999862,None,2,15.98390429999563,539.0089171999862,None,15.98390429999563,555.0326103999978,None,555.5489439999947,None,555.5489439999947,None,n,7.60389589999977,555.5489439999947,None,7.60389589999977,,,Silent01,001,2022_Jun_23_1000,ProdSingRedoBetween,2021.2.3,59.81841522186862,
,,,,1,0,1,0,,,,,,,,,,,,,,,,,,,,,,572.6100273999909,None,,,,,,,,,,,,,,,,,service,96,2,silent,new,null,563.7138959999866,None,563.7138959999866,None,3,6.030897399992682,563.7138959999866,None,6.030897399992682,569.7878339999879,None,570.2939725999895,None,570.2939725999895,None,n,2.282812899997225,570.2939725999895,None,2.282812899997225,,,Silent01,001,2022_Jun_23_1000,ProdSingRedoBetween,2021.2.3,59.81841522186862,
,,,,2,0,2,0,,,,,,,,,,,,,,,,,,,,,,581.8121282999928,None,,,,,,,,,,,,,,,,,light,49,3,silent,old,blue,573.1361551999871,None,573.1361551999871,None,4,4.552699899999425,573.1361551999871,None,4.552699899999425,577.7240979999915,None,578.2335937999887,None,578.2335937999887,None,f,3.550861800002167,578.2335937999887,None,3.550861800002167,,,Silent01,001,2022_Jun_23_1000,ProdSingRedoBetween,2021.2.3,59.81841522186862,
,,,,3,0,3,0,,,,,,,,,,,,,,,,,,,,,,591.6467670999991,None,,,,,,,,,,,,,,,,,prime,44,4,silent,old,blue,582.3127504000004,None,582.3127504000004,None,3,6.8160293999972055,582.3127504000004,None,6.8160293999972055,589.1703068999923,None,589.6783139999898,None,589.6783139999898,None,f,1.9386914999922737,589.6783139999898,None,1.9386914999922737,,,Silent01,001,2022_Jun_23_1000,ProdSingRedoBetween,2021.2.3,59.81841522186862,
,,,,4,0,4,0,,,,,,,,,,,,,,,,,,,,,,596.3002812999912,None,,,,,,,,,,,,,,,,,group,58,5,silent,old,blue,592.1716500999901,None,592.1716500999901,None,5,2.404987899994012,592.1716500999901,None,2.404987899994012,594.6276744999923,None,595.13431329999,None,595.13431329999,None,r,1.1304995999962557,595.13431329999,None,1.1304995999962557,,,Silent01,001,2022_Jun_23_1000,ProdSingRedoBetween,2021.2.3,59.81841522186862,
,,,,5,0,5,0,,,,,,,,,,,,,,,,,,,,,,605.4937639999989,None,,,,,,,,,,,,,,,,,agency,20,6,silent,old,yellow,596.8259843999986,None,596.8259843999986,None,2,5.910734000004595,596.8259843999986,None,5.910734000004595,602.7824139000004,None,603.2906564000004,None,603.2906564000004,None,f,2.1742450000019744,603.2906564000004,None,2.1742450000019744,,,Silent01,001,2022_Jun_23_1000,ProdSingRedoBetween,2021.2.3,59.81841522186862,
,,,,6,0,6,0,,,,,,,,,,,,,,,,,,,,,,613.6133075999969,None,,,,,,,,,,,,,,,,,appeal,109,7,silent,new,null,606.0170177999971,None,606.0170177999971,None,2,5.61545450000267,606.0170177999971,None,5.61545450000267,611.682581599991,None,612.192699399995,None,612.192699399995,None,n,1.3919470000109868,612.192699399995,None,1.3919470000109868,,,Silent01,001,2022_Jun_23_1000,ProdSingRedoBetween,2021.2.3,59.81841522186862,
,,,,7,0,7,0,,,,,,,,,,,,,,,,,,,,,,621.3085316999932,None,,,,,,,,,,,,,,,,,opening,82,8,silent,old,red,614.1465262999991,None,614.1465262999991,None,1,4.382276200005435,614.1465262999991,None,4.382276200005435,618.5651505999995,None,619.0746633999952,None,619.0746633999952,None,n,2.198221900005592,619.0746633999952,None,2.198221900005592,,,Silent01,001,2022_Jun_23_1000,ProdSingRedoBetween,2021.2.3,59.81841522186862,
,,,,8,0,8,0,,,,,,,,,,,,,,,,,,,,,,626.3267206999881,None,,,,,,,,,,,,,,,,,personnel,161,9,silent,new,null,621.8321646999975,None,621.8321646999975,None,1,2.7604546999937156,621.8321646999975,None,2.7604546999937156,624.6327268999885,None,625.1418930999935,None,625.1418930999935,None,n,1.1628485000110231,625.1418930999935,None,1.1628485000110231,,,Silent01,001,2022_Jun_23_1000,ProdSingRedoBetween,2021.2.3,59.81841522186862,
,,,,9,0,9,0,,,,,,,,,,,,,,,,,,,,,,629.7336510999885,None,,,,,,,,,,,,,,,,,atmosphere,169,10,silent,new,null,626.8564390999964,None,626.8564390999964,None,1,1.5521583999943687,626.8564390999964,None,1.5521583999943687,628.439513099991,None,628.9520739999862,None,628.9520739999862,None,n,0.7447019999963231,628.9520739999862,None,0.7447019999963231,,,Silent01,001,2022_Jun_23_1000,ProdSingRedoBetween,2021.2.3,59.81841522186862,
,,,,10,0,10,0,,,,,,,,,,,,,,,,,,,,,,635.6410819999874,None,,,,,,,,,,,,,,,,,search,86,11,silent,old,red,630.2606710999971,None,630.2606710999971,None,2,3.9080982000014046,630.2606710999971,None,3.9080982000014046,634.2151816999976,None,634.7369458999892,None,634.7369458999892,None,n,0.8717300999996951,634.7369458999892,None,0.8717300999996951,,,Silent01,001,2022_Jun_23_1000,ProdSingRedoBetween,2021.2.3,59.81841522186862,
,,,,11,0,11,0,,,,,,,,,,,,,,,,,,,,,,641.363362899996,None,,,,,,,,,,,,,,,,,member,154,12,silent,new,null,636.1652584999974,None,636.1652584999974,None,2,3.7234638999943854,636.1652584999974,None,3.7234638999943854,639.9199529999896,None,640.426095399991,None,640.426095399991,None,n,0.9026768999901833,640.426095399991,None,0.9026768999901833,,,Silent01,001,2022_Jun_23_1000,ProdSingRedoBetween,2021.2.3,59.81841522186862,
,,,,12,0,12,0,,,,,,,,,,,,,,,,,,,,,,647.0907986999955,None,,,,,,,,,,,,,,,,,comedy,69,13,silent,old,red,641.8731539999862,None,641.8731539999862,None,2,3.9514611000049626,641.8731539999862,None,3.9514611000049626,645.8697548999917,None,646.3910822999896,None,646.3910822999896,None,n,0.657700300012948,646.3910822999896,None,0.657700300012948,,,Silent01,001,2022_Jun_23_1000,ProdSingRedoBetween,2021.2.3,59.81841522186862,
,,,,13,0,13,0,,,,,,,,,,,,,,,,,,,,,,654.4322033999924,None,,,,,,,,,,,,,,,,,education,128,14,silent,new,null,647.6077215999976,None,647.6077215999976,None,2,4.128709600001457,647.6077215999976,None,4.128709600001457,651.7670361999917,None,652.2824852999911,None,652.2824852999911,None,n,2.110239300003741,652.2824852999911,None,2.110239300003741,,,Silent01,001,2022_Jun_23_1000,ProdSingRedoBetween,2021.2.3,59.81841522186862,
,,,,14,0,14,0,,,,,,,,,,,,,,,,,,,,,,658.9276967999904,None,,,,,,,,,,,,,,,,,guard,37,15,silent,old,blue,654.9493239999865,None,654.9493239999865,None,4,2.243442099992535,654.9493239999865,None,2.243442099992535,657.2393949999969,None,657.7671749000001,None,657.7671749000001,None,f,1.1293683999974746,657.7671749000001,None,1.1293683999974746,,,Silent01,001,2022_Jun_23_1000,ProdSingRedoBetween,2021.2.3,59.81841522186862,
,,,,15,0,15,0,,,,,,,,,,,,,,,,,,,,,,667.4891341999901,None,,,,,,,,,,,,,,,,,report,18,16,silent,old,yellow,659.4550672999903,None,659.4550672999903,None,4,6.697381100006169,659.4550672999903,None,6.697381100006169,666.1853633999999,None,666.7062104999932,None,666.7062104999932,None,f,0.7504562999965856,666.7062104999932,None,0.7504562999965856,,,Silent01,001,2022_Jun_23_1000,ProdSingRedoBetween,2021.2.3,59.81841522186862,
,,,,16,0,16,0,,,,,,,,,,,,,,,,,,,,,,671.7345175999944,None,,,,,,,,,,,,,,,,,suspect,84,17,silent,old,red,668.0133458999917,None,668.0133458999917,None,2,2.0991542000119807,668.0133458999917,None,2.0991542000119807,670.140561799999,None,670.6617535999976,None,670.6617535999976,None,n,1.034572400007164,670.6617535999976,None,1.034572400007164,,,Silent01,001,2022_Jun_23_1000,ProdSingRedoBetween,2021.2.3,59.81841522186862,
,,,,17,0,17,0,,,,,,,,,,,,,,,,,,,,,,675.8792554999964,None,,,,,,,,,,,,,,,,,subject,26,18,silent,old,yellow,672.2373952999915,None,672.2373952999915,None,5,2.019406000006711,672.2373952999915,None,2.019406000006711,674.3115403999982,None,674.8335737999878,None,674.8335737999878,None,f,1.023061300002155,674.8335737999878,None,1.023061300002155,,,Silent01,001,2022_Jun_23_1000,ProdSingRedoBetween,2021.2.3,59.81841522186862,
,,,,18,0,18,0,,,,,,,,,,,,,,,,,,,,,,680.055684299994,None,,,,,,,,,,,,,,,,,thing,5,19,silent,old,yellow,676.4049200999871,None,676.4049200999871,None,6,1.8037923999945633,676.4049200999871,None,1.8037923999945633,678.2423864999873,None,678.7523058999941,None,678.7523058999941,None,r,1.2642986999999266,678.7523058999941,None,1.2642986999999266,,,Silent01,001,2022_Jun_23_1000,ProdSingRedoBetween,2021.2.3,59.81841522186862,
,,,,19,0,19,0,,,,,,,,,,,,,,,,,,,,,,686.1354359999968,None,,,,,,,,,,,,,,,,,congress,8,20,silent,old,yellow,680.5741817999951,None,680.5741817999951,None,3,3.8745038000051863,680.5741817999951,None,3.8745038000051863,684.478432399992,None,684.9927369999932,None,684.9927369999932,None,n,1.1118597000022419,684.9927369999932,None,1.1118597000022419,,,Silent01,001,2022_Jun_23_1000,ProdSingRedoBetween,2021.2.3,59.81841522186862,
,,,,20,0,20,0,,,,,,,,,,,,,,,,,,,,,,691.0044284999894,None,,,,,,,,,,,,,,,,,majority,70,21,silent,old,red,686.6664336999966,None,686.6664336999966,None,2,2.406205899998895,686.6664336999966,None,2.406205899998895,689.1221727999946,None,689.6321322000003,None,689.6321322000003,None,n,1.3523094000120182,689.6321322000003,None,1.3523094000120182,,,Silent01,001,2022_Jun_23_1000,ProdSingRedoBetween,2021.2.3,59.81841522186862,
,,,,21,0,21,0,,,,,,,,,,,,,,,,,,,,,,695.2440810999979,None,,,,,,,,,,,,,,,,,empty,178,22,silent,new,null,691.5204553999938,None,691.5204553999938,None,2,2.504438800009666,691.5204553999938,None,2.504438800009666,694.0595928999974,None,694.5660263999889,None,694.5660263999889,None,n,0.6584230000007665,694.5660263999889,None,0.6584230000007665,,,Silent01,001,2022_Jun_23_1000,ProdSingRedoBetween,2021.2.3,59.81841522186862,
,,,,22,0,22,0,,,,,,,,,,,,,,,,,,,,,,702.3492269999988,None,,,,,,,,,,,,,,,,,capital,160,23,silent,new,null,695.7756714999996,None,695.7756714999996,None,3,5.160952900012489,695.7756714999996,None,5.160952900012489,700.9823711999925,None,701.4888903999963,None,701.4888903999963,None,n,0.8393888999999035,701.4888903999963,None,0.8393888999999035,,,Silent01,001,2022_Jun_23_1000,ProdSingRedoBetween,2021.2.3,59.81841522186862,
,,,,23,0,23,0,,,,,,,,,,,,,,,,,,,,,,706.7120156999881,None,,,,,,,,,,,,,,,,,oxygen,74,24,silent,old,red,702.8680381999875,None,702.8680381999875,None,5,2.052566200000001,702.8680381999875,None,2.052566200000001,704.9603383999929,None,705.4756215999951,None,705.4756215999951,None,f,1.2049081000004662,705.4756215999951,None,1.2049081000004662,,,Silent01,001,2022_Jun_23_1000,ProdSingRedoBetween,2021.2.3,59.81841522186862,
,,,,24,0,24,0,,,,,,,,,,,,,,,,,,,,,,712.2756679999875,None,,,,,,,,,,,,,,,,,waste,64,25,silent,old,red,707.2353883999895,None,707.2353883999895,None,3,3.2612126000021817,707.2353883999895,None,3.2612126000021817,710.5419106999907,None,711.0505318999931,None,711.0505318999931,None,f,1.1978287999954773,711.0505318999931,None,1.1978287999954773,,,Silent01,001,2022_Jun_23_1000,ProdSingRedoBetween,2021.2.3,59.81841522186862,
,,,,25,0,25,0,,,,,,,,,,,,,,,,,,,,,,716.6871351999871,None,,,,,,,,,,,,,,,,,reach,145,26,silent,new,null,712.7930637999962,None,712.7930637999962,None,2,2.295504100009566,712.7930637999962,None,2.295504100009566,715.1268218999903,None,715.6349535999907,None,715.6349535999907,None,n,1.0216199999995297,715.6349535999907,None,1.0216199999995297,,,Silent01,001,2022_Jun_23_1000,ProdSingRedoBetween,2021.2.3,59.81841522186862,
,,,,26,0,26,0,,,,,,,,,,,,,,,,,,,,,,720.7088096999942,None,,,,,,,,,,,,,,,,,gesture,126,27,silent,new,null,717.2103770999965,None,717.2103770999965,None,1,2.102261699998053,717.2103770999965,None,2.102261699998053,719.3455240999901,None,719.861213799988,None,719.861213799988,None,n,0.8113683999981731,719.861213799988,None,0.8113683999981731,,,Silent01,001,2022_Jun_23_1000,ProdSingRedoBetween,2021.2.3,59.81841522186862,
,,,,27,0,27,0,,,,,,,,,,,,,,,,,,,,,,725.6268505999906,None,,,,,,,,,,,,,,,,,owner,131,28,silent,new,null,721.2317499999917,None,721.2317499999917,None,1,2.792819700000109,721.2317499999917,None,2.792819700000109,724.0730232999922,None,724.5958166999917,None,724.5958166999917,None,n,1.0047302000020863,724.5958166999917,None,1.0047302000020863,,,Silent01,001,2022_Jun_23_1000,ProdSingRedoBetween,2021.2.3,59.81841522186862,
,,,,28,0,28,0,,,,,,,,,,,,,,,,,,,,,,729.0678587999864,None,,,,,,,,,,,,,,,,,touch,116,29,silent,new,null,726.1497784999956,None,726.1497784999956,None,2,2.0027541000017663,726.1497784999956,None,2.0027541000017663,728.1879959999933,None,728.6974888999976,None,728.6974888999976,None,n,0.3351571000093827,728.6974888999976,None,0.3351571000093827,,,Silent01,001,2022_Jun_23_1000,ProdSingRedoBetween,2021.2.3,59.81841522186862,
,,,,29,0,29,0,,,,,,,,,,,,,,,,,,,,,,733.6439172999962,None,,,,,,,,,,,,,,,,,relation,141,30,silent,new,null,729.5915510999912,None,729.5915510999912,None,4,2.632705200012424,729.5915510999912,None,2.632705200012424,732.2461872999993,None,732.7549963999918,None,732.7549963999918,None,f,0.8456109999970067,732.7549963999918,None,0.8456109999970067,,,Silent01,001,2022_Jun_23_1000,ProdSingRedoBetween,2021.2.3,59.81841522186862,
,,,,30,0,30,0,,,,,,,,,,,,,,,,,,,,,,737.6698037999886,None,,,,,,,,,,,,,,,,,novel,130,31,silent,new,null,734.1613962999982,None,734.1613962999982,None,2,2.119089800005895,734.1613962999982,None,2.119089800005895,736.3082531999971,None,736.8284365999862,None,736.8284365999862,None,n,0.7961263000033796,736.8284365999862,None,0.7961263000033796,,,Silent01,001,2022_Jun_23_1000,ProdSingRedoBetween,2021.2.3,59.81841522186862,
,,,,31,0,31,0,,,,,,,,,,,,,,,,,,,,,,742.3642835999926,None,,,,,,,,,,,,,,,,,captain,94,32,silent,new,null,738.2028083999903,None,738.2028083999903,None,2,2.8298582999996142,738.2028083999903,None,2.8298582999996142,741.0639819999924,None,741.576032099998,None,741.576032099998,None,n,0.7526115999935428,741.576032099998,None,0.7526115999935428,,,Silent01,001,2022_Jun_23_1000,ProdSingRedoBetween,2021.2.3,59.81841522186862,
,,,,32,0,32,0,,,,,,,,,,,,,,,,,,,,,,748.4536649999936,None,,,,,,,,,,,,,,,,,power,91,33,silent,new,null,742.8857870999927,None,742.8857870999927,None,2,4.186795300003723,742.8857870999927,None,4.186795300003723,747.1141960999958,None,747.6371150999912,None,747.6371150999912,None,n,0.787456200007,747.6371150999912,None,0.787456200007,,,Silent01,001,2022_Jun_23_1000,ProdSingRedoBetween,2021.2.3,59.81841522186862,
,,,,33,0,33,0,,,,,,,,,,,,,,,,,,,,,,751.8008002999995,None,,,,,,,,,,,,,,,,,command,41,34,silent,old,blue,748.9756574999919,None,748.9756574999919,None,2,1.8890804999973625,748.9756574999919,None,1.8890804999973625,750.8950539999933,None,751.4059974999982,None,751.4059974999982,None,n,0.36240270000416785,751.4059974999982,None,0.36240270000416785,,,Silent01,001,2022_Jun_23_1000,ProdSingRedoBetween,2021.2.3,59.81841522186862,
,,,,34,0,34,0,,,,,,,,,,,,,,,,,,,,,,756.5944848999934,None,,,,,,,,,,,,,,,,,drink,83,35,silent,old,red,752.3296610999969,None,752.3296610999969,None,3,2.6868335000035586,752.3296610999969,None,2.6868335000035586,755.0574435999879,None,755.5759258999897,None,755.5759258999897,None,f,0.9925027999997837,755.5759258999897,None,0.9925027999997837,,,Silent01,001,2022_Jun_23_1000,ProdSingRedoBetween,2021.2.3,59.81841522186862,
,,,,35,0,35,0,,,,,,,,,,,,,,,,,,,,,,760.1319827999978,None,,,,,,,,,,,,,,,,,medicine,151,36,silent,new,null,757.1152378999977,None,757.1152378999977,None,2,1.72531139999046,757.1152378999977,None,1.72531139999046,758.875696099989,None,759.3978266999911,None,759.3978266999911,None,n,0.698756300000241,759.3978266999911,None,0.698756300000241,,,Silent01,001,2022_Jun_23_1000,ProdSingRedoBetween,2021.2.3,59.81841522186862,
,,,,36,0,36,0,,,,,,,,,,,,,,,,,,,,,,769.5241873999912,None,,,,,,,,,,,,,,,,,bucket,138,37,silent,new,null,760.6564288999944,None,760.6564288999944,None,2,7.53595900000073,760.6564288999944,None,7.53595900000073,768.223327499989,None,768.7416946999874,None,768.7416946999874,None,n,0.7468304000067292,768.7416946999874,None,0.7468304000067292,,,Silent01,001,2022_Jun_23_1000,ProdSingRedoBetween,2021.2.3,59.81841522186862,
,,,,37,0,37,0,,,,,,,,,,,,,,,,,,,,,,776.0470260999864,None,,,,,,,,,,,,,,,,,concern,38,38,silent,old,blue,770.0491169999877,None,770.0491169999877,None,2,5.127397499993094,770.0491169999877,None,5.127397499993094,775.2204060999939,None,775.7302463999949,None,775.7302463999949,None,n,0.2862355999968713,775.7302463999949,None,0.2862355999968713,,,Silent01,001,2022_Jun_23_1000,ProdSingRedoBetween,2021.2.3,59.81841522186862,
,,,,38,0,38,0,,,,,,,,,,,,,,,,,,,,,,781.7030868000002,None,,,,,,,,,,,,,,,,,device,97,39,silent,new,null,776.5716303999943,None,776.5716303999943,None,2,3.908828800005722,776.5716303999943,None,3.908828800005722,780.5280965999991,None,781.0382312999864,None,781.0382312999864,None,n,0.6343823000061093,781.0382312999864,None,0.6343823000061093,,,Silent01,001,2022_Jun_23_1000,ProdSingRedoBetween,2021.2.3,59.81841522186862,
,,,,39,0,39,0,,,,,,,,,,,,,,,,,,,,,,789.4751531999937,None,,,,,,,,,,,,,,,,,edition,3,40,silent,old,yellow,782.2277899999899,None,782.2277899999899,None,1,5.108760099989013,782.2277899999899,None,5.108760099989013,787.3825613999943,None,787.8911066000001,None,787.8911066000001,None,n,1.54949370000395,787.8911066000001,None,1.54949370000395,,,Silent01,001,2022_Jun_23_1000,ProdSingRedoBetween,2021.2.3,59.81841522186862,
,,,,40,0,40,0,,,,,,,,,,,,,,,,,,,,,,795.141666999989,None,,,,,,,,,,,,,,,,,silence,153,41,silent,new,null,790.0041349999956,None,790.0041349999956,None,4,3.036691500004963,790.0041349999956,None,3.036691500004963,793.0748341999861,None,793.5827670999861,None,793.5827670999861,None,f,1.5295198000094388,793.5827670999861,None,1.5295198000094388,,,Silent01,001,2022_Jun_23_1000,ProdSingRedoBetween,2021.2.3,59.81841522186862,
,,,,41,0,41,0,,,,,,,,,,,,,,,,,,,,,,800.2470002999908,None,,,,,,,,,,,,,,,,,income,136,42,silent,new,null,795.655503499991,None,795.655503499991,None,2,3.448708500000066,795.655503499991,None,3.448708500000066,799.1290224999975,None,799.6297820999898,None,799.6297820999898,None,n,0.594361099996604,799.6297820999898,None,0.594361099996604,,,Silent01,001,2022_Jun_23_1000,ProdSingRedoBetween,2021.2.3,59.81841522186862,
,,,,42,0,42,0,,,,,,,,,,,,,,,,,,,,,,809.080071999997,None,,,,,,,,,,,,,,,,,pressure,10,43,silent,old,yellow,800.7627126999869,None,800.7627126999869,None,5,4.877764599994407,800.7627126999869,None,4.877764599994407,805.6874040999974,None,806.1954487999901,None,806.1954487999901,None,r,2.8610323000029894,806.1954487999901,None,2.8610323000029894,,,Silent01,001,2022_Jun_23_1000,ProdSingRedoBetween,2021.2.3,59.81841522186862,
,,,,43,0,43,0,,,,,,,,,,,,,,,,,,,,,,814.1188693000004,None,,,,,,,,,,,,,,,,,marriage,11,44,silent,old,yellow,809.6022450999881,None,809.6022450999881,None,4,3.222234800006845,809.6022450999881,None,3.222234800006845,812.8536800000002,None,813.3672385999962,None,813.3672385999962,None,f,0.7132617000024766,813.3672385999962,None,0.7132617000024766,,,Silent01,001,2022_Jun_23_1000,ProdSingRedoBetween,2021.2.3,59.81841522186862,
,,,,44,0,44,0,,,,,,,,,,,,,,,,,,,,,,817.9895949999918,None,,,,,,,,,,,,,,,,,frank,7,45,silent,old,yellow,814.6435774999991,None,814.6435774999991,None,6,1.620814199995948,814.6435774999991,None,1.620814199995948,816.2956153999985,None,816.8052688999887,None,816.8052688999887,None,r,1.1472474000038346,816.8052688999887,None,1.1472474000038346,,,Silent01,001,2022_Jun_23_1000,ProdSingRedoBetween,2021.2.3,59.81841522186862,
,,,,45,0,45,0,,,,,,,,,,,,,,,,,,,,,,824.2542680999904,None,,,,,,,,,,,,,,,,,machinery,162,46,silent,new,null,818.514823599995,None,818.514823599995,None,2,4.709622700000182,818.514823599995,None,4.709622700000182,823.2739688000001,None,823.7965780999948,None,823.7965780999948,None,n,0.42757020000135526,823.7965780999948,None,0.42757020000135526,,,Silent01,001,2022_Jun_23_1000,ProdSingRedoBetween,2021.2.3,59.81841522186862,
,,,,46,0,46,0,,,,,,,,,,,,,,,,,,,,,,829.9440328999917,None,,,,,,,,,,,,,,,,,crowd,177,47,silent,new,null,824.773360399995,None,824.773360399995,None,4,3.4030138999951305,824.773360399995,None,3.4030138999951305,828.2096399000002,None,828.7158181999985,None,828.7158181999985,None,f,1.19640580000123,828.7158181999985,None,1.19640580000123,,,Silent01,001,2022_Jun_23_1000,ProdSingRedoBetween,2021.2.3,59.81841522186862,
,,,,47,0,47,0,,,,,,,,,,,,,,,,,,,,,,833.3296132999967,None,,,,,,,,,,,,,,,,,pretty,118,48,silent,new,null,830.4615918999916,None,830.4615918999916,None,2,1.907009200003813,830.4615918999916,None,1.907009200003813,832.4111091999948,None,832.9208972999913,None,832.9208972999913,None,n,0.38313620000553783,832.9208972999913,None,0.38313620000553783,,,Silent01,001,2022_Jun_23_1000,ProdSingRedoBetween,2021.2.3,59.81841522186862,
,,,,48,0,48,0,,,,,,,,,,,,,,,,,,,,,,837.3687811999989,None,,,,,,,,,,,,,,,,,debate,46,49,silent,old,blue,833.8461491999915,None,833.8461491999915,None,6,1.8181844999926398,833.8461491999915,None,1.8181844999926398,835.6981689999957,None,836.2070330999995,None,836.2070330999995,None,r,1.1372035999957006,836.2070330999995,None,1.1372035999957006,,,Silent01,001,2022_Jun_23_1000,ProdSingRedoBetween,2021.2.3,59.81841522186862,
,,,,49,0,49,0,,,,,,,,,,,,,,,,,,,,,,842.88374569999,None,,,,,,,,,,,,,,,,,place,172,50,silent,new,null,837.8845448999928,None,837.8845448999928,None,2,3.6999924999981886,837.8845448999928,None,3.6999924999981886,841.6186388999922,None,842.1283062999864,None,842.1283062999864,None,n,0.7283207000000402,842.1283062999864,None,0.7283207000000402,,,Silent01,001,2022_Jun_23_1000,ProdSingRedoBetween,2021.2.3,59.81841522186862,
,,,,50,0,50,0,,,,,,,,,,,,,,,,,,,,,,848.5521209999861,None,,,,,,,,,,,,,,,,,health,50,51,silent,old,blue,843.4002621999971,None,843.4002621999971,None,5,3.4958432000130415,843.4002621999971,None,3.4958432000130415,846.9267035999947,None,847.4370415999874,None,847.4370415999874,None,f,1.0833124999917345,847.4370415999874,None,1.0833124999917345,,,Silent01,001,2022_Jun_23_1000,ProdSingRedoBetween,2021.2.3,59.81841522186862,
,,,,51,0,51,0,,,,,,,,,,,,,,,,,,,,,,856.7544131999894,None,,,,,,,,,,,,,,,,,equipment,176,52,silent,new,null,849.0857783999963,None,849.0857783999963,None,2,6.706610799999908,849.0857783999963,None,6.706610799999908,855.838442999986,None,856.3663365999964,None,856.3663365999964,None,n,0.36981920000107493,856.3663365999964,None,0.36981920000107493,,,Silent01,001,2022_Jun_23_1000,ProdSingRedoBetween,2021.2.3,59.81841522186862,
,,,,52,0,52,0,,,,,,,,,,,,,,,,,,,,,,862.0098803999863,None,,,,,,,,,,,,,,,,,guest,90,53,silent,new,null,857.2704199,None,857.2704199,None,4,3.1536066999979084,857.2704199,None,3.1536066999979084,860.4488455999963,None,860.9675799999968,None,860.9675799999968,None,f,1.0085752999875695,860.9675799999968,None,1.0085752999875695,,,Silent01,001,2022_Jun_23_1000,ProdSingRedoBetween,2021.2.3,59.81841522186862,
,,,,53,0,53,0,,,,,,,,,,,,,,,,,,,,,,872.2088872999884,None,,,,,,,,,,,,,,,,,general,95,54,silent,new,null,862.5212477999885,None,862.5212477999885,None,2,7.902833800006192,862.5212477999885,None,7.902833800006192,870.4632362999982,None,870.9731766999903,None,870.9731766999903,None,n,1.2032193000050029,870.9731766999903,None,1.2032193000050029,,,Silent01,001,2022_Jun_23_1000,ProdSingRedoBetween,2021.2.3,59.81841522186862,
,,,,54,0,54,0,,,,,,,,,,,,,,,,,,,,,,876.6488241999905,None,,,,,,,,,,,,,,,,,pattern,52,55,silent,old,blue,872.7331801999972,None,872.7331801999972,None,3,3.203150099987397,872.7331801999972,None,3.203150099987397,875.9702637999872,None,876.483381699989,None,876.483381699989,None,n,0.14070400000491645,876.483381699989,None,0.14070400000491645,,,Silent01,001,2022_Jun_23_1000,ProdSingRedoBetween,2021.2.3,59.81841522186862,
,,,,55,0,55,0,,,,,,,,,,,,,,,,,,,,,,882.2453690999973,None,,,,,,,,,,,,,,,,,couch,113,56,silent,new,null,877.1687568999914,None,877.1687568999914,None,2,3.663547000003746,877.1687568999914,None,3.663547000003746,880.8758635999984,None,881.3829937999981,None,881.3829937999981,None,n,0.832966200003284,881.3829937999981,None,0.832966200003284,,,Silent01,001,2022_Jun_23_1000,ProdSingRedoBetween,2021.2.3,59.81841522186862,
,,,,56,0,56,0,,,,,,,,,,,,,,,,,,,,,,886.5070908999915,None,,,,,,,,,,,,,,,,,collection,23,57,silent,old,yellow,882.7591740999924,None,882.7591740999924,None,3,2.649120200003381,882.7591740999924,None,2.649120200003381,885.4453747999942,None,885.9495443999913,None,885.9495443999913,None,n,0.5308246000058716,885.9495443999913,None,0.5308246000058716,,,Silent01,001,2022_Jun_23_1000,ProdSingRedoBetween,2021.2.3,59.81841522186862,
,,,,57,0,57,0,,,,,,,,,,,,,,,,,,,,,,891.804759599996,None,,,,,,,,,,,,,,,,,signal,143,58,silent,new,null,887.0326406999957,None,887.0326406999957,None,3,3.343672199989669,887.0326406999957,None,3.343672199989669,890.4199181000004,None,890.9302831999958,None,890.9302831999958,None,n,0.8538326999987476,890.9302831999958,None,0.8538326999987476,,,Silent01,001,2022_Jun_23_1000,ProdSingRedoBetween,2021.2.3,59.81841522186862,
,,,,58,0,58,0,,,,,,,,,,,,,,,,,,,,,,894.9984656999877,None,,,,,,,,,,,,,,,,,benefit,73,59,silent,old,red,892.3170823999972,None,892.3170823999972,None,2,1.763212799996836,892.3170823999972,None,1.763212799996836,894.1195251999889,None,894.6327654999914,None,894.6327654999914,None,n,0.33553379999648314,894.6327654999914,None,0.33553379999648314,,,Silent01,001,2022_Jun_23_1000,ProdSingRedoBetween,2021.2.3,59.81841522186862,
,,,,59,0,59,0,,,,,,,,,,,,,,,,,,,,,,898.9953100999992,None,,,,,,,,,,,,,,,,,travel,57,60,silent,old,blue,895.5248215999891,None,895.5248215999891,None,1,2.5554464000015287,895.5248215999891,None,2.5554464000015287,898.1294097999926,None,898.6450711999933,None,898.6450711999933,None,n,0.32296049999422394,898.6450711999933,None,0.32296049999422394,,,Silent01,001,2022_Jun_23_1000,ProdSingRedoBetween,2021.2.3,59.81841522186862,
,,,,60,0,60,0,,,,,,,,,,,,,,,,,,,,,,906.5223343999969,None,,,,,,,,,,,,,,,,,column,146,61,silent,new,null,899.495869499995,None,899.495869499995,None,2,5.984728099996573,899.495869499995,None,5.984728099996573,905.522630499996,None,906.0459182999912,None,906.0459182999912,None,n,0.45021040001302026,906.0459182999912,None,0.45021040001302026,,,Silent01,001,2022_Jun_23_1000,ProdSingRedoBetween,2021.2.3,59.81841522186862,
,,,,61,0,61,0,,,,,,,,,,,,,,,,,,,,,,912.2425261999888,None,,,,,,,,,,,,,,,,,sound,142,62,silent,new,null,907.0528542999964,None,907.0528542999964,None,4,3.5153615000017453,907.0528542999964,None,3.5153615000017453,910.607302999997,None,911.1175732999982,None,911.1175732999982,None,f,1.1064284000021871,911.1175732999982,None,1.1064284000021871,,,Silent01,001,2022_Jun_23_1000,ProdSingRedoBetween,2021.2.3,59.81841522186862,
,,,,62,0,62,0,,,,,,,,,,,,,,,,,,,,,,918.2370926999865,None,,,,,,,,,,,,,,,,,speech,89,63,silent,old,red,912.7657974999893,None,912.7657974999893,None,2,4.138431600003969,912.7657974999893,None,4.138431600003969,916.9458722999989,None,917.455527699989,None,917.455527699989,None,n,0.7447520999994595,917.455527699989,None,0.7447520999994595,,,Silent01,001,2022_Jun_23_1000,ProdSingRedoBetween,2021.2.3,59.81841522186862,
,,,,63,0,63,0,,,,,,,,,,,,,,,,,,,,,,926.2056985999952,None,,,,,,,,,,,,,,,,,candidate,119,64,silent,new,null,918.7611751999939,None,918.7611751999939,None,3,4.93479309999384,918.7611751999939,None,4.93479309999384,923.7202471999917,None,924.2204566999862,None,924.2204566999862,None,f,1.963508599990746,924.2204566999862,None,1.963508599990746,,,Silent01,001,2022_Jun_23_1000,ProdSingRedoBetween,2021.2.3,59.81841522186862,
,,,,64,0,64,0,,,,,,,,,,,,,,,,,,,,,,929.9609466999973,None,,,,,,,,,,,,,,,,,trend,80,65,silent,old,red,926.7228822999896,None,926.7228822999896,None,2,1.8134026999905473,926.7228822999896,None,1.8134026999905473,928.5750811999897,None,929.0852494999999,None,929.0852494999999,None,n,0.8508412000082899,929.0852494999999,None,0.8508412000082899,,,Silent01,001,2022_Jun_23_1000,ProdSingRedoBetween,2021.2.3,59.81841522186862,
,,,,65,0,65,0,,,,,,,,,,,,,,,,,,,,,,936.2519640999963,None,,,,,,,,,,,,,,,,,nature,43,66,silent,old,blue,930.4846173999977,None,930.4846173999977,None,2,4.7956475999963,930.4846173999977,None,4.7956475999963,935.3180850999925,None,935.8374455999874,None,935.8374455999874,None,n,0.39462019999336917,935.8374455999874,None,0.39462019999336917,,,Silent01,001,2022_Jun_23_1000,ProdSingRedoBetween,2021.2.3,59.81841522186862,
,,,,66,0,66,0,,,,,,,,,,,,,,,,,,,,,,940.4114611999976,None,,,,,,,,,,,,,,,,,stranger,107,67,silent,new,null,936.7800264999969,None,936.7800264999969,None,1,2.316164400006528,936.7800264999969,None,2.316164400006528,939.131446799991,None,939.6455853999942,None,939.6455853999942,None,n,0.7306843999976991,939.6455853999942,None,0.7306843999976991,,,Silent01,001,2022_Jun_23_1000,ProdSingRedoBetween,2021.2.3,59.81841522186862,
,,,,67,0,67,0,,,,,,,,,,,,,,,,,,,,,,944.5579886999913,None,,,,,,,,,,,,,,,,,emergency,168,68,silent,new,null,940.9345056999882,None,940.9345056999882,None,1,2.4974436000047717,940.9345056999882,None,2.4974436000047717,943.4567391999881,None,943.9708845999994,None,943.9708845999994,None,n,0.5493512000102783,943.9708845999994,None,0.5493512000102783,,,Silent01,001,2022_Jun_23_1000,ProdSingRedoBetween,2021.2.3,59.81841522186862,
,,,,68,0,68,0,,,,,,,,,,,,,,,,,,,,,,948.586052499988,None,,,,,,,,,,,,,,,,,month,59,69,silent,old,yellow,945.0675378999877,None,945.0675378999877,None,5,1.996780999994371,945.0675378999877,None,1.996780999994371,947.1087746999983,None,947.6194433999917,None,947.6194433999917,None,f,0.9327415000007022,947.6194433999917,None,0.9327415000007022,,,Silent01,001,2022_Jun_23_1000,ProdSingRedoBetween,2021.2.3,59.81841522186862,
,,,,69,0,69,0,,,,,,,,,,,,,,,,,,,,,,956.4098353999871,None,,,,,,,,,,,,,,,,,dream,103,70,silent,new,null,949.108404499988,None,949.108404499988,None,3,5.067768299995805,949.108404499988,None,5.067768299995805,954.2188034999999,None,954.7424548999988,None,954.7424548999988,None,f,1.6337269000068773,954.7424548999988,None,1.6337269000068773,,,Silent01,001,2022_Jun_23_1000,ProdSingRedoBetween,2021.2.3,59.81841522186862,
,,,,70,0,70,0,,,,,,,,,,,,,,,,,,,,,,959.846325999999,None,,,,,,,,,,,,,,,,,religion,24,71,silent,old,yellow,956.9326581999921,None,956.9326581999921,None,2,1.9715034999971977,956.9326581999921,None,1.9715034999971977,958.9382628999883,None,959.4456924999977,None,959.4456924999977,None,n,0.3624870000057854,959.4456924999977,None,0.3624870000057854,,,Silent01,001,2022_Jun_23_1000,ProdSingRedoBetween,2021.2.3,59.81841522186862,
,,,,71,0,71,0,,,,,,,,,,,,,,,,,,,,,,962.9661089000001,None,,,,,,,,,,,,,,,,,treatment,164,72,silent,new,null,960.3699495999899,None,960.3699495999899,None,2,1.7182575999904657,960.3699495999899,None,1.7182575999904657,962.12394949999,None,962.6330420999875,None,962.6330420999875,None,n,0.29559840000001714,962.6330420999875,None,0.29559840000001714,,,Silent01,001,2022_Jun_23_1000,ProdSingRedoBetween,2021.2.3,59.81841522186862,
,,,,72,0,72,0,,,,,,,,,,,,,,,,,,,,,,967.1686321999878,None,,,,,,,,,,,,,,,,,story,122,73,silent,new,null,963.4935703999945,None,963.4935703999945,None,4,2.762394800010952,963.4935703999945,None,2.762394800010952,966.2975948999956,None,966.8044958999963,None,966.8044958999963,None,f,0.33163309999508783,966.8044958999963,None,0.33163309999508783,,,Silent01,001,2022_Jun_23_1000,ProdSingRedoBetween,2021.2.3,59.81841522186862,
,,,,73,0,73,0,,,,,,,,,,,,,,,,,,,,,,970.640029999995,None,,,,,,,,,,,,,,,,,shear,150,74,silent,new,null,967.6958123999939,None,967.6958123999939,None,2,1.5123376000119606,967.6958123999939,None,1.5123376000119606,969.2433145999967,None,969.7569058999943,None,969.7569058999943,None,n,0.8512743000028422,969.7569058999943,None,0.8512743000028422,,,Silent01,001,2022_Jun_23_1000,ProdSingRedoBetween,2021.2.3,59.81841522186862,
,,,,74,0,74,0,,,,,,,,,,,,,,,,,,,,,,977.6140350999922,None,,,,,,,,,,,,,,,,,election,127,75,silent,new,null,971.1625297999999,None,971.1625297999999,None,4,5.021698399999877,971.1625297999999,None,5.021698399999877,976.2254086999892,None,976.7480120999971,None,976.7480120999971,None,f,0.8364033000107156,976.7480120999971,None,0.8364033000107156,,,Silent01,001,2022_Jun_23_1000,ProdSingRedoBetween,2021.2.3,59.81841522186862,
,,,,75,0,75,0,,,,,,,,,,,,,,,,,,,,,,988.2779785999883,None,,,,,,,,,,,,,,,,,growth,28,76,silent,old,yellow,978.134386699996,None,978.134386699996,None,5,8.313570299986168,978.134386699996,None,8.313570299986168,986.4738306999934,None,986.991525999998,None,986.991525999998,None,f,1.2484193999989657,986.991525999998,None,1.2484193999989657,,,Silent01,001,2022_Jun_23_1000,ProdSingRedoBetween,2021.2.3,59.81841522186862,
,,,,76,0,76,0,,,,,,,,,,,,,,,,,,,,,,994.0483789999998,None,,,,,,,,,,,,,,,,,beginning,22,77,silent,old,yellow,988.8050657999993,None,988.8050657999993,None,3,2.6670892000111053,988.8050657999993,None,2.6670892000111053,991.4999300999916,None,992.0141379999986,None,992.0141379999986,None,f,2.001954899998964,992.0141379999986,None,2.001954899998964,,,Silent01,001,2022_Jun_23_1000,ProdSingRedoBetween,2021.2.3,59.81841522186862,
,,,,77,0,77,0,,,,,,,,,,,,,,,,,,,,,,997.1178093999915,None,,,,,,,,,,,,,,,,,fashion,104,78,silent,new,null,994.5805028999894,None,994.5805028999894,None,2,1.6115853999945102,994.5805028999894,None,1.6115853999945102,996.2180416999909,None,996.7337236999883,None,996.7337236999883,None,n,0.35457370000949595,996.7337236999883,None,0.35457370000949595,,,Silent01,001,2022_Jun_23_1000,ProdSingRedoBetween,2021.2.3,59.81841522186862,
,,,,78,0,78,0,,,,,,,,,,,,,,,,,,,,,,1001.9645682999981,None,,,,,,,,,,,,,,,,,trail,139,79,silent,new,null,997.6382704999996,None,997.6382704999996,None,1,3.417821399998502,997.6382704999996,None,3.417821399998502,1001.0939038999932,None,1001.6033222999977,None,1001.6033222999977,None,n,0.332459099998232,1001.6033222999977,None,0.332459099998232,,,Silent01,001,2022_Jun_23_1000,ProdSingRedoBetween,2021.2.3,59.81841522186862,
,,,,79,0,79,0,,,,,,,,,,,,,,,,,,,,,,1005.9078689999878,None,,,,,,,,,,,,,,,,,carry,12,80,silent,old,yellow,1002.4664672999934,None,1002.4664672999934,None,6,1.7096441000030609,1002.4664672999934,None,1.7096441000030609,1004.2176121999946,None,1004.7256767999934,None,1004.7256767999934,None,r,1.1464662000071257,1004.7256767999934,None,1.1464662000071257,,,Silent01,001,2022_Jun_23_1000,ProdSingRedoBetween,2021.2.3,59.81841522186862,
,,,,80,0,80,0,,,,,,,,,,,,,,,,,,,,,,1011.258419299993,None,,,,,,,,,,,,,,,,,quiet,156,81,silent,new,null,1006.4351329999918,None,1006.4351329999918,None,3,4.028965800011065,1006.4351329999918,None,4.028965800011065,1010.5064692999877,None,1011.0156463999883,None,1011.0156463999883,None,n,0.22427919998881407,1011.0156463999883,None,0.22427919998881407,,,Silent01,001,2022_Jun_23_1000,ProdSingRedoBetween,2021.2.3,59.81841522186862,
,,,,81,0,81,0,,,,,,,,,,,,,,,,,,,,,,1016.6067894999869,None,,,,,,,,,,,,,,,,,block,25,82,silent,old,yellow,1011.7740127999859,None,1011.7740127999859,None,2,3.914102399998228,1011.7740127999859,None,3.914102399998228,1015.7282613999996,None,1016.235654499993,None,1016.235654499993,None,n,0.3324625999957789,1016.235654499993,None,0.3324625999957789,,,Silent01,001,2022_Jun_23_1000,ProdSingRedoBetween,2021.2.3,59.81841522186862,
,,,,82,0,82,0,,,,,,,,,,,,,,,,,,,,,,1019.2935937000002,None,,,,,,,,,,,,,,,,,swift,133,83,silent,new,null,1017.1279585999873,None,1017.1279585999873,None,1,1.408167899993714,1017.1279585999873,None,1.408167899993714,1018.582047799995,None,1019.0925685999973,None,1019.0925685999973,None,n,0.1712956999981543,1019.0925685999973,None,0.1712956999981543,,,Silent01,001,2022_Jun_23_1000,ProdSingRedoBetween,2021.2.3,59.81841522186862,
,,,,83,0,83,0,,,,,,,,,,,,,,,,,,,,,,1023.7955711999966,None,,,,,,,,,,,,,,,,,engineer,0,84,silent,old,yellow,1019.8114547999867,None,1019.8114547999867,None,2,3.292548800003715,1019.8114547999867,None,3.292548800003715,1023.1372600999894,None,1023.6453365999914,None,1023.6453365999914,None,n,0.12283789999492001,1023.6453365999914,None,0.12283789999492001,,,Silent01,001,2022_Jun_23_1000,ProdSingRedoBetween,2021.2.3,59.81841522186862,
,,,,84,0,84,0,,,,,,,,,,,,,,,,,,,,,,1029.2319014999957,None,,,,,,,,,,,,,,,,,direction,33,85,silent,old,blue,1024.3218859999906,None,1024.3218859999906,None,2,2.782247900002403,1024.3218859999906,None,2.782247900002403,1027.1369791999896,None,1027.646080599996,None,1027.646080599996,None,n,1.5541061999974772,1027.646080599996,None,1.5541061999974772,,,Silent01,001,2022_Jun_23_1000,ProdSingRedoBetween,2021.2.3,59.81841522186862,
,,,,85,0,85,0,,,,,,,,,,,,,,,,,,,,,,1032.8711068999983,None,,,,,,,,,,,,,,,,,detective,16,86,silent,old,yellow,1029.7564915999974,None,1029.7564915999974,None,2,2.2992861999955494,1029.7564915999974,None,2.2992861999955494,1032.0819517999917,None,1032.6006162999984,None,1032.6006162999984,None,n,0.23169939999934286,1032.6006162999984,None,0.23169939999934286,,,Silent01,001,2022_Jun_23_1000,ProdSingRedoBetween,2021.2.3,59.81841522186862,
,,,,86,0,86,0,,,,,,,,,,,,,,,,,,,,,,1036.471021999998,None,,,,,,,,,,,,,,,,,judge,79,87,silent,old,red,1033.3962370999943,None,1033.3962370999943,None,3,2.187906099992688,1033.3962370999943,None,2.187906099992688,1035.632580599995,None,1036.1414856999909,None,1036.1414856999909,None,f,0.30660729999362957,1036.1414856999909,None,0.30660729999362957,,,Silent01,001,2022_Jun_23_1000,ProdSingRedoBetween,2021.2.3,59.81841522186862,
,,,,87,0,87,0,,,,,,,,,,,,,,,,,,,,,,1039.894540999987,None,,,,,,,,,,,,,,,,,birth,123,88,silent,new,null,1036.9951359999977,None,1036.9951359999977,None,2,1.6929940999980317,1036.9951359999977,None,1.6929940999980317,1038.7337987999927,None,1039.248336699995,None,1039.248336699995,None,n,0.6157058999961009,1039.248336699995,None,0.6157058999961009,,,Silent01,001,2022_Jun_23_1000,ProdSingRedoBetween,2021.2.3,59.81841522186862,
,,,,88,0,88,0,,,,,,,,,,,,,,,,,,,,,,1044.1811270999897,None,,,,,,,,,,,,,,,,,government,53,89,silent,old,blue,1040.4181910999905,None,1040.4181910999905,None,6,1.4378749999887077,1040.4181910999905,None,1.4378749999887077,1041.8905083999998,None,1042.3971992999868,None,1042.3971992999868,None,r,1.7468763000069885,1042.3971992999868,None,1.7468763000069885,,,Silent01,001,2022_Jun_23_1000,ProdSingRedoBetween,2021.2.3,59.81841522186862,
,,,,89,0,89,0,,,,,,,,,,,,,,,,,,,,,,1048.503248899986,None,,,,,,,,,,,,,,,,,rural,30,90,silent,old,blue,1044.7053394999966,None,1044.7053394999966,None,6,2.0786862000095425,1044.7053394999966,None,2.0786862000095425,1046.8206944999984,None,1047.333348699991,None,1047.333348699991,None,r,1.138634600007208,1047.333348699991,None,1.138634600007208,,,Silent01,001,2022_Jun_23_1000,ProdSingRedoBetween,2021.2.3,59.81841522186862,
,,,,90,0,90,0,,,,,,,,,,,,,,,,,,,,,,1054.908916299988,None,,,,,,,,,,,,,,,,,discussion,179,91,silent,new,null,1049.0255378000002,None,1049.0255378000002,None,2,4.830529300001217,1049.0255378000002,None,4.830529300001217,1053.9015320999897,None,1054.412704199989,None,1054.412704199989,None,n,0.45938900001056027,1054.412704199989,None,0.45938900001056027,,,Silent01,001,2022_Jun_23_1000,ProdSingRedoBetween,2021.2.3,59.81841522186862,
,,,,91,0,91,0,,,,,,,,,,,,,,,,,,,,,,1057.339257499989,None,,,,,,,,,,,,,,,,,rapid,165,92,silent,new,null,1055.4305909999966,None,1055.4305909999966,None,2,1.1454365999961738,1055.4305909999966,None,1.1454365999961738,1056.6196238999983,None,1057.129487699989,None,1057.129487699989,None,n,0.1746041000005789,1057.129487699989,None,0.1746041000005789,,,Silent01,001,2022_Jun_23_1000,ProdSingRedoBetween,2021.2.3,59.81841522186862,
,,,,92,0,92,0,,,,,,,,,,,,,,,,,,,,,,1061.3905181999871,None,,,,,,,,,,,,,,,,,listen,34,93,silent,old,blue,1057.8679002999997,None,1057.8679002999997,None,2,2.7719739000021946,1057.8679002999997,None,2.7719739000021946,1060.6575063999917,None,1061.1672783999966,None,1061.1672783999966,None,n,0.19260619999840856,1061.1672783999966,None,0.19260619999840856,,,Silent01,001,2022_Jun_23_1000,ProdSingRedoBetween,2021.2.3,59.81841522186862,
,,,,93,0,93,0,,,,,,,,,,,,,,,,,,,,,,1064.1647154999955,None,,,,,,,,,,,,,,,,,territory,106,94,silent,new,null,1061.8917333999998,None,1061.8917333999998,None,1,1.4764488999935566,1061.8917333999998,None,1.4764488999935566,1063.4033213999937,None,1063.9186671999923,None,1063.9186671999923,None,n,0.2174527000024682,1063.9186671999923,None,0.2174527000024682,,,Silent01,001,2022_Jun_23_1000,ProdSingRedoBetween,2021.2.3,59.81841522186862,
,,,,94,0,94,0,,,,,,,,,,,,,,,,,,,,,,1069.3893054999935,None,,,,,,,,,,,,,,,,,permit,167,95,silent,new,null,1064.6947228999925,None,1064.6947228999925,None,2,3.7133732000074815,1064.6947228999925,None,3.7133732000074815,1068.4462971999892,None,1068.957487599997,None,1068.957487599997,None,n,0.39467270000022836,1068.957487599997,None,0.39467270000022836,,,Silent01,001,2022_Jun_23_1000,ProdSingRedoBetween,2021.2.3,59.81841522186862,
,,,,95,0,95,0,,,,,,,,,,,,,,,,,,,,,,1076.079424399999,None,,,,,,,,,,,,,,,,,motion,29,96,silent,old,blue,1069.9140870999981,None,1069.9140870999981,None,3,5.3098813999968115,1069.9140870999981,None,5.3098813999968115,1075.2749609999883,None,1075.794695699995,None,1075.794695699995,None,n,0.26148030000331346,1075.794695699995,None,0.26148030000331346,,,Silent01,001,2022_Jun_23_1000,ProdSingRedoBetween,2021.2.3,59.81841522186862,
,,,,96,0,96,0,,,,,,,,,,,,,,,,,,,,,,1080.9872012999986,None,,,,,,,,,,,,,,,,,title,115,97,silent,new,null,1076.601837299997,None,1076.601837299997,None,2,3.4061619999993127,1076.601837299997,None,3.4061619999993127,1080.0409940999962,None,1080.5524263999978,None,1080.5524263999978,None,n,0.4074817000073381,1080.5524263999978,None,0.4074817000073381,,,Silent01,001,2022_Jun_23_1000,ProdSingRedoBetween,2021.2.3,59.81841522186862,
,,,,97,0,97,0,,,,,,,,,,,,,,,,,,,,,,1084.3135570999875,None,,,,,,,,,,,,,,,,,force,134,98,silent,new,null,1081.5082120999868,None,1081.5082120999868,None,2,2.163804199997685,1081.5082120999868,None,2.163804199997685,1083.7141711000004,None,1084.2236334999907,None,1084.2236334999907,None,n,0.07215790000918787,1084.2236334999907,None,0.07215790000918787,,,Silent01,001,2022_Jun_23_1000,ProdSingRedoBetween,2021.2.3,59.81841522186862,
,,,,98,0,98,0,,,,,,,,,,,,,,,,,,,,,,1086.8993257999973,None,,,,,,,,,,,,,,,,,smell,51,99,silent,old,blue,1084.8276202999987,None,1084.8276202999987,None,2,1.3803590000024997,1084.8276202999987,None,1.3803590000024997,1086.2441743999952,None,1086.758804099998,None,1086.758804099998,None,n,0.12102170000434853,1086.758804099998,None,0.12102170000434853,,,Silent01,001,2022_Jun_23_1000,ProdSingRedoBetween,2021.2.3,59.81841522186862,
,,,,99,0,99,0,,,,,,,,,,,,,,,,,,,,,,1090.592099699992,None,,,,,,,,,,,,,,,,,agreement,100,100,silent,new,null,1087.405566699992,None,1087.405566699992,None,4,2.186237300003995,1087.405566699992,None,2.186237300003995,1089.6279399999912,None,1090.1421047999902,None,1090.1421047999902,None,f,0.42612910000025295,1090.1421047999902,None,0.42612910000025295,,,Silent01,001,2022_Jun_23_1000,ProdSingRedoBetween,2021.2.3,59.81841522186862,
,,,,100,0,100,0,,,,,,,,,,,,,,,,,,,,,,1094.556955699998,None,,,,,,,,,,,,,,,,,executive,65,101,silent,old,red,1091.1221028999862,None,1091.1221028999862,None,1,2.3180971999972826,1091.1221028999862,None,2.3180971999972826,1093.4674913999916,None,1093.9881194999907,None,1093.9881194999907,None,n,0.539692999998806,1093.9881194999907,None,0.539692999998806,,,Silent01,001,2022_Jun_23_1000,ProdSingRedoBetween,2021.2.3,59.81841522186862,
,,,,101,0,101,0,,,,,,,,,,,,,,,,,,,,,,1098.1298801999947,None,,,,,,,,,,,,,,,,,testimony,135,102,silent,new,null,1095.0760503999918,None,1095.0760503999918,None,1,2.2199200999893947,1095.0760503999918,None,2.2199200999893947,1097.3425420999993,None,1097.8525149999914,None,1097.8525149999914,None,n,0.2513154000043869,1097.8525149999914,None,0.2513154000043869,,,Silent01,001,2022_Jun_23_1000,ProdSingRedoBetween,2021.2.3,59.81841522186862,
,,,,102,0,102,0,,,,,,,,,,,,,,,,,,,,,,1102.738274599993,None,,,,,,,,,,,,,,,,,entrance,155,103,silent,new,null,1098.6559082999884,None,1098.6559082999884,None,2,2.128054599990719,1098.6559082999884,None,2.128054599990719,1100.8390160999988,None,1101.3531058999943,None,1101.3531058999943,None,n,1.3588970999990124,1101.3531058999943,None,1.3588970999990124,,,Silent01,001,2022_Jun_23_1000,ProdSingRedoBetween,2021.2.3,59.81841522186862,
,,,,103,0,103,0,,,,,,,,,,,,,,,,,,,,,,1108.1790312999947,None,,,,,,,,,,,,,,,,,raise,61,104,silent,old,red,1103.2642597999948,None,1103.2642597999948,None,2,4.007765599992126,1103.2642597999948,None,4.007765599992126,1107.319537599993,None,1107.8288570000004,None,1107.8288570000004,None,n,0.3232614000007743,1107.8288570000004,None,0.3232614000007743,,,Silent01,001,2022_Jun_23_1000,ProdSingRedoBetween,2021.2.3,59.81841522186862,
,,,,104,0,104,0,,,,,,,,,,,,,,,,,,,,,,1113.5750815999927,None,,,,,,,,,,,,,,,,,platform,121,105,silent,new,null,1108.7026276999968,None,1108.7026276999968,None,2,4.2409998000075575,1108.7026276999968,None,4.2409998000075575,1112.978424099987,None,1113.4927358999994,None,1113.4927358999994,None,n,0.04328620000160299,1113.4927358999994,None,0.04328620000160299,,,Silent01,001,2022_Jun_23_1000,ProdSingRedoBetween,2021.2.3,59.81841522186862,
,,,,105,0,105,0,,,,,,,,,,,,,,,,,,,,,,1119.7057764999918,None,,,,,,,,,,,,,,,,,character,124,106,silent,new,null,1114.078113399999,None,1114.078113399999,None,3,4.281896000000415,1114.078113399999,None,4.281896000000415,1118.3951084999862,None,1118.9045198999956,None,1118.9045198999956,None,f,0.7674102000019047,1118.9045198999956,None,0.7674102000019047,,,Silent01,001,2022_Jun_23_1000,ProdSingRedoBetween,2021.2.3,59.81841522186862,
,,,,106,0,106,0,,,,,,,,,,,,,,,,,,,,,,1123.0122836999944,None,,,,,,,,,,,,,,,,,salary,129,107,silent,new,null,1120.2308432999998,None,1120.2308432999998,None,1,2.064723099989351,1120.2308432999998,None,2.064723099989351,1122.3179347999976,None,1122.8296496999974,None,1122.8296496999974,None,n,0.15418320000753738,1122.8296496999974,None,0.15418320000753738,,,Silent01,001,2022_Jun_23_1000,ProdSingRedoBetween,2021.2.3,59.81841522186862,
,,,,107,0,107,0,,,,,,,,,,,,,,,,,,,,,,1127.0306554999988,None,,,,,,,,,,,,,,,,,track,6,108,silent,old,yellow,1123.5365835999983,None,1123.5365835999983,None,1,2.823374400002649,1123.5365835999983,None,2.823374400002649,1126.3978166999877,None,1126.907323099993,None,1126.907323099993,None,n,0.10067449999041855,1126.907323099993,None,0.10067449999041855,,,Silent01,001,2022_Jun_23_1000,ProdSingRedoBetween,2021.2.3,59.81841522186862,
,,,,108,0,108,0,,,,,,,,,,,,,,,,,,,,,,1133.1850945999904,None,,,,,,,,,,,,,,,,,people,66,109,silent,old,red,1127.5549393999972,None,1127.5549393999972,None,2,4.9087128000101075,1127.5549393999972,None,4.9087128000101075,1132.4858160999866,None,1133.0040866999916,None,1133.0040866999916,None,n,0.14779889999772422,1133.0040866999916,None,0.14779889999772422,,,Silent01,001,2022_Jun_23_1000,ProdSingRedoBetween,2021.2.3,59.81841522186862,
,,,,109,0,109,0,,,,,,,,,,,,,,,,,,,,,,1135.7605970999866,None,,,,,,,,,,,,,,,,,literature,166,110,silent,new,null,1133.709343399998,None,1133.709343399998,None,1,1.4343890000018291,1133.709343399998,None,1.4343890000018291,1135.1734285999992,None,1135.6899543999898,None,1135.6899543999898,None,n,0.03795230000105221,1135.6899543999898,None,0.03795230000105221,,,Silent01,001,2022_Jun_23_1000,ProdSingRedoBetween,2021.2.3,59.81841522186862,
,,,,110,0,110,0,,,,,,,,,,,,,,,,,,,,,,1138.7344445999915,None,,,,,,,,,,,,,,,,,portion,1,111,silent,old,yellow,1136.2799396999908,None,1136.2799396999908,None,1,1.8240302000049269,1136.2799396999908,None,1.8240302000049269,1138.1521471999877,None,1138.661124499995,None,1138.661124499995,None,n,0.04261180000321474,1138.661124499995,None,0.04261180000321474,,,Silent01,001,2022_Jun_23_1000,ProdSingRedoBetween,2021.2.3,59.81841522186862,
,,,,111,0,111,0,,,,,,,,,,,,,,,,,,,,,,1143.445611499992,None,,,,,,,,,,,,,,,,,provision,117,112,silent,new,null,1139.2409837999876,None,1139.2409837999876,None,1,3.3428740999952424,1139.2409837999876,None,3.3428740999952424,1142.6168741999863,None,1143.1316843999957,None,1143.1316843999957,None,n,0.2841448999970453,1143.1316843999957,None,0.2841448999970453,,,Silent01,001,2022_Jun_23_1000,ProdSingRedoBetween,2021.2.3,59.81841522186862,
,,,,112,0,112,0,,,,,,,,,,,,,,,,,,,,,,1146.7817503999977,None,,,,,,,,,,,,,,,,,payment,45,113,silent,old,blue,1143.9704566999862,None,1143.9704566999862,None,1,1.9574909000075422,1143.9704566999862,None,1.9574909000075422,1145.9782409999898,None,1146.5004568000004,None,1146.5004568000004,None,n,0.2514369999989867,1146.5004568000004,None,0.2514369999989867,,,Silent01,001,2022_Jun_23_1000,ProdSingRedoBetween,2021.2.3,59.81841522186862,
,,,,113,0,113,0,,,,,,,,,,,,,,,,,,,,,,1151.8328084999957,None,,,,,,,,,,,,,,,,,accident,175,114,silent,new,null,1147.3089279999986,None,1147.3089279999986,None,2,3.778932099987287,1147.3089279999986,None,3.778932099987287,1151.1277026999887,None,1151.6385854999971,None,1151.6385854999971,None,n,0.16898259999288712,1151.6385854999971,None,0.16898259999288712,,,Silent01,001,2022_Jun_23_1000,ProdSingRedoBetween,2021.2.3,59.81841522186862,
,,,,114,0,114,0,,,,,,,,,,,,,,,,,,,,,,1159.1016676,None,,,,,,,,,,,,,,,,,taste,27,115,silent,old,yellow,1152.3481200999959,None,1152.3481200999959,None,5,5.595637000005809,1152.3481200999959,None,5.595637000005809,1157.9775711999973,None,1158.495076399995,None,1158.495076399995,None,f,0.5769392999936827,1158.495076399995,None,0.5769392999936827,,,Silent01,001,2022_Jun_23_1000,ProdSingRedoBetween,2021.2.3,59.81841522186862,
,,,,115,0,115,0,,,,,,,,,,,,,,,,,,,,,,1163.9277796999959,None,,,,,,,,,,,,,,,,,trash,56,116,silent,old,blue,1159.6195174999884,None,1159.6195174999884,None,2,3.52437590000045,1159.6195174999884,None,3.52437590000045,1163.1788486999867,None,1163.7032047999965,None,1163.7032047999965,None,n,0.20049240000662394,1163.7032047999965,None,0.20049240000662394,,,Silent01,001,2022_Jun_23_1000,ProdSingRedoBetween,2021.2.3,59.81841522186862,
,,,,116,0,116,0,,,,,,,,,,,,,,,,,,,,,,1166.8175649999903,None,,,,,,,,,,,,,,,,,crime,88,117,silent,old,red,1164.4385938999912,None,1164.4385938999912,None,2,1.7691861000057543,1164.4385938999912,None,1.7691861000057543,1166.2430987999978,None,1166.7529888999998,None,1166.7529888999998,None,n,0.03892949999135453,1166.7529888999998,None,0.03892949999135453,,,Silent01,001,2022_Jun_23_1000,ProdSingRedoBetween,2021.2.3,59.81841522186862,
,,,,117,0,117,0,,,,,,,,,,,,,,,,,,,,,,1172.852966099992,None,,,,,,,,,,,,,,,,,space,93,118,silent,new,null,1167.3466087999986,None,1167.3466087999986,None,2,4.773315600003116,1167.3466087999986,None,4.773315600003116,1172.167704499996,None,1172.676524399998,None,1172.676524399998,None,n,0.15514560000156052,1172.676524399998,None,0.15514560000156052,,,Silent01,001,2022_Jun_23_1000,ProdSingRedoBetween,2021.2.3,59.81841522186862,
,,,,118,0,118,0,,,,,,,,,,,,,,,,,,,,,,1175.9775498999952,None,,,,,,,,,,,,,,,,,cross,132,119,silent,new,null,1173.3692831999942,None,1173.3692831999942,None,2,1.8383864000061294,1173.3692831999942,None,1.8383864000061294,1175.2445178999915,None,1175.7694694999955,None,1175.7694694999955,None,n,0.16623550000076648,1175.7694694999955,None,0.16623550000076648,,,Silent01,001,2022_Jun_23_1000,ProdSingRedoBetween,2021.2.3,59.81841522186862,
,,,,119,0,119,0,,,,,,,,,,,,,,,,,,,,,,1179.5683064999903,None,,,,,,,,,,,,,,,,,front,40,120,silent,old,blue,1176.5012221999932,None,1176.5012221999932,None,3,1.6824053999880562,1176.5012221999932,None,1.6824053999880562,1178.207094399986,None,1178.717759399995,None,1178.717759399995,None,f,0.8181607000005897,1178.717759399995,None,0.8181607000005897,,,Silent01,001,2022_Jun_23_1000,ProdSingRedoBetween,2021.2.3,59.81841522186862,
,,,,120,0,120,0,,,,,,,,,,,,,,,,,,,,,,1182.2277894,None,,,,,,,,,,,,,,,,,author,17,121,silent,old,yellow,1180.0905245999893,None,1180.0905245999893,None,2,1.5254801999981282,1180.0905245999893,None,1.5254801999981282,1181.6611328999861,None,1182.1610979999969,None,1182.1610979999969,None,n,0.038432899993495084,1182.1610979999969,None,0.038432899993495084,,,Silent01,001,2022_Jun_23_1000,ProdSingRedoBetween,2021.2.3,59.81841522186862,
,,,,121,0,121,0,,,,,,,,,,,,,,,,,,,,,,1186.1374200999999,None,,,,,,,,,,,,,,,,,commercial,144,122,silent,new,null,1182.743224299993,None,1182.743224299993,None,1,2.3524908000108553,1182.743224299993,None,2.3524908000108553,1185.1250669999863,None,1185.6384713999869,None,1185.6384713999869,None,n,0.4654158999910578,1185.6384713999869,None,0.4654158999910578,,,Silent01,001,2022_Jun_23_1000,ProdSingRedoBetween,2021.2.3,59.81841522186862,
,,,,122,0,122,0,,,,,,,,,,,,,,,,,,,,,,1190.5625773999927,None,,,,,,,,,,,,,,,,,employment,173,123,silent,new,null,1186.6650362999935,None,1186.6650362999935,None,1,2.9190320999914547,1186.6650362999935,None,2.9190320999914547,1189.608953899995,None,1190.1283788999863,None,1190.1283788999863,None,n,0.4074642000050517,1190.1283788999863,None,0.4074642000050517,,,Silent01,001,2022_Jun_23_1000,ProdSingRedoBetween,2021.2.3,59.81841522186862,
,,,,123,0,123,0,,,,,,,,,,,,,,,,,,,,,,1196.368547799997,None,,,,,,,,,,,,,,,,,whole,31,124,silent,old,blue,1191.086487099994,None,1191.086487099994,None,1,4.1854189000005135,1191.086487099994,None,4.1854189000005135,1195.307662799998,None,1195.8153941999917,None,1195.8153941999917,None,n,0.5283860000054119,1195.8153941999917,None,0.5283860000054119,,,Silent01,001,2022_Jun_23_1000,ProdSingRedoBetween,2021.2.3,59.81841522186862,
,,,,124,0,124,0,,,,,,,,,,,,,,,,,,,,,,1201.5234891,None,,,,,,,,,,,,,,,,,weight,98,125,silent,new,null,1196.891738899998,None,1196.891738899998,None,2,3.8440523000026587,1196.891738899998,None,3.8440523000026587,1200.7810405999917,None,1201.289262099992,None,1201.289262099992,None,n,0.19857379999302793,1201.289262099992,None,0.19857379999302793,,,Silent01,001,2022_Jun_23_1000,ProdSingRedoBetween,2021.2.3,59.81841522186862,
,,,,125,0,125,0,,,,,,,,,,,,,,,,,,,,,,1206.468635799989,None,,,,,,,,,,,,,,,,,master,36,126,silent,old,blue,1202.0446082999988,None,1202.0446082999988,None,1,3.715177299993229,1202.0446082999988,None,3.715177299993229,1205.7960471999977,None,1206.3123153999913,None,1206.3123153999913,None,n,0.12723830000322778,1206.3123153999913,None,0.12723830000322778,,,Silent01,001,2022_Jun_23_1000,ProdSingRedoBetween,2021.2.3,59.81841522186862,
,,,,126,0,126,0,,,,,,,,,,,,,,,,,,,,,,1209.7419931999902,None,,,,,,,,,,,,,,,,,cousin,71,127,silent,old,red,1206.9850309999892,None,1206.9850309999892,None,6,1.3908093000063673,1206.9850309999892,None,1.3908093000063673,1208.4228004999895,None,1208.9460513999948,None,1208.9460513999948,None,r,0.7655635999981314,1208.9460513999948,None,0.7655635999981314,,,Silent01,001,2022_Jun_23_1000,ProdSingRedoBetween,2021.2.3,59.81841522186862,
,,,,127,0,127,0,,,,,,,,,,,,,,,,,,,,,,1214.361398699999,None,,,,,,,,,,,,,,,,,number,15,128,silent,old,yellow,1210.2738876999938,None,1210.2738876999938,None,2,3.4618392000120366,1210.2738876999938,None,3.4618392000120366,1213.7747413999896,None,1214.2810995999898,None,1214.2810995999898,None,n,0.05453069999930449,1214.2810995999898,None,0.05453069999930449,,,Silent01,001,2022_Jun_23_1000,ProdSingRedoBetween,2021.2.3,59.81841522186862,
,,,,128,0,128,0,,,,,,,,,,,,,,,,,,,,,,1219.2565624999988,None,,,,,,,,,,,,,,,,,strength,112,129,silent,new,null,1214.8750374999945,None,1214.8750374999945,None,2,3.140808600001037,1214.8750374999945,None,3.140808600001037,1218.0709815999871,None,1218.5943829999887,None,1218.5943829999887,None,n,0.6376153999881353,1218.5943829999887,None,0.6376153999881353,,,Silent01,001,2022_Jun_23_1000,ProdSingRedoBetween,2021.2.3,59.81841522186862,
,,,,129,0,129,0,,,,,,,,,,,,,,,,,,,,,,1224.0768157999992,None,,,,,,,,,,,,,,,,,childhood,105,130,silent,new,null,1219.7743054999883,None,1219.7743054999883,None,2,3.6494874999916647,1219.7743054999883,None,3.6494874999916647,1223.4675795999938,None,1223.977291999996,None,1223.977291999996,None,n,0.07043469999916852,1223.977291999996,None,0.07043469999916852,,,Silent01,001,2022_Jun_23_1000,ProdSingRedoBetween,2021.2.3,59.81841522186862,
,,,,130,0,130,0,,,,,,,,,,,,,,,,,,,,,,1228.733396999989,None,,,,,,,,,,,,,,,,,attack,102,131,silent,new,null,1224.5906348999997,None,1224.5906348999997,None,1,3.345182400007616,1224.5906348999997,None,3.345182400007616,1227.9759485999966,None,1228.4835896999866,None,1228.4835896999866,None,n,0.22016979999898467,1228.4835896999866,None,0.22016979999898467,,,Silent01,001,2022_Jun_23_1000,ProdSingRedoBetween,2021.2.3,59.81841522186862,
,,,,131,0,131,0,,,,,,,,,,,,,,,,,,,,,,1231.161150999993,None,,,,,,,,,,,,,,,,,disease,170,132,silent,new,null,1229.2596892999863,None,1229.2596892999863,None,1,1.1478413000004366,1229.2596892999863,None,1.1478413000004366,1230.4331360999931,None,1230.9524122999865,None,1230.9524122999865,None,n,0.183166099988739,1230.9524122999865,None,0.183166099988739,,,Silent01,001,2022_Jun_23_1000,ProdSingRedoBetween,2021.2.3,59.81841522186862,
,,,,132,0,132,0,,,,,,,,,,,,,,,,,,,,,,1235.226462199993,None,,,,,,,,,,,,,,,,,goose,62,133,silent,old,red,1231.6781364999915,None,1231.6781364999915,None,4,2.6015690000058385,1231.6781364999915,None,2.6015690000058385,1234.3194294999994,None,1234.8485524999996,None,1234.8485524999996,None,f,0.33527300000423566,1234.8485524999996,None,0.33527300000423566,,,Silent01,001,2022_Jun_23_1000,ProdSingRedoBetween,2021.2.3,59.81841522186862,
,,,,133,0,133,0,,,,,,,,,,,,,,,,,,,,,,1240.7744805999973,None,,,,,,,,,,,,,,,,,sleep,174,134,silent,new,null,1235.7544412999996,None,1235.7544412999996,None,3,4.284971200002474,1235.7544412999996,None,4.284971200002474,1240.0689669999992,None,1240.5693505999952,None,1240.5693505999952,None,f,0.18223450001096353,1240.5693505999952,None,0.18223450001096353,,,Silent01,001,2022_Jun_23_1000,ProdSingRedoBetween,2021.2.3,59.81841522186862,
,,,,134,0,134,0,,,,,,,,,,,,,,,,,,,,,,1245.107136199993,None,,,,,,,,,,,,,,,,,private,4,135,silent,old,yellow,1241.3063279999915,None,1241.3063279999915,None,1,3.1650964000000386,1241.3063279999915,None,3.1650964000000386,1244.4941593999974,None,1245.0178479999886,None,1245.0178479999886,None,n,0.06970930000534281,1245.0178479999886,None,0.06970930000534281,,,Silent01,001,2022_Jun_23_1000,ProdSingRedoBetween,2021.2.3,59.81841522186862,
,,,,135,0,135,0,,,,,,,,,,,,,,,,,,,,,,1249.7848943999998,None,,,,,,,,,,,,,,,,,meeting,21,136,silent,old,yellow,1245.6126378999907,None,1245.6126378999907,None,3,3.5550401999935275,1245.6126378999907,None,3.5550401999935275,1249.2096313999937,None,1249.7195926999993,None,1249.7195926999993,None,f,0.04030849999981001,1249.7195926999993,None,0.04030849999981001,,,Silent01,001,2022_Jun_23_1000,ProdSingRedoBetween,2021.2.3,59.81841522186862,
,,,,136,0,136,0,,,,,,,,,,,,,,,,,,,,,,1253.2586674999911,None,,,,,,,,,,,,,,,,,afternoon,39,137,silent,old,blue,1250.3094127999939,None,1250.3094127999939,None,2,2.2263789999997243,1250.3094127999939,None,2.2263789999997243,1252.5826253999985,None,1253.0921228999941,None,1253.0921228999941,None,n,0.1315517000039108,1253.0921228999941,None,0.1315517000039108,,,Silent01,001,2022_Jun_23_1000,ProdSingRedoBetween,2021.2.3,59.81841522186862,
,,,,137,0,137,0,,,,,,,,,,,,,,,,,,,,,,1260.2460655999894,None,,,,,,,,,,,,,,,,,symbol,9,138,silent,old,yellow,1253.7823688999924,None,1253.7823688999924,None,4,4.985418900003424,1253.7823688999924,None,4.985418900003424,1258.801299499988,None,1259.3116401999869,None,1259.3116401999869,None,f,0.8960710999963339,1259.3116401999869,None,0.8960710999963339,,,Silent01,001,2022_Jun_23_1000,ProdSingRedoBetween,2021.2.3,59.81841522186862,
,,,,138,0,138,0,,,,,,,,,,,,,,,,,,,,,,1266.1346548000001,None,,,,,,,,,,,,,,,,,century,87,139,silent,old,red,1260.7712321,None,1260.7712321,None,2,4.172542699991027,1260.7712321,None,4.172542699991027,1264.9832835999987,None,1265.5023277999862,None,1265.5023277999862,None,n,0.6013614999974379,1265.5023277999862,None,0.6013614999974379,,,Silent01,001,2022_Jun_23_1000,ProdSingRedoBetween,2021.2.3,59.81841522186862,
,,,,139,0,139,0,,,,,,,,,,,,,,,,,,,,,,1270.516040699993,None,,,,,,,,,,,,,,,,,universal,63,140,silent,old,red,1266.6602905999898,None,1266.6602905999898,None,2,3.0594607000093674,1266.6602905999898,None,3.0594607000093674,1269.767977999989,None,1270.277190599998,None,1270.277190599998,None,n,0.2103481000085594,1270.277190599998,None,0.2103481000085594,,,Silent01,001,2022_Jun_23_1000,ProdSingRedoBetween,2021.2.3,59.81841522186862,
,,,,140,0,140,0,,,,,,,,,,,,,,,,,,,,,,1278.8816829999996,None,,,,,,,,,,,,,,,,,heavy,148,141,silent,new,null,1271.0354301999905,None,1271.0354301999905,None,3,6.908210199995665,1271.0354301999905,None,6.908210199995665,1277.994473999992,None,1278.5160684999864,None,1278.5160684999864,None,f,0.33976970000367146,1278.5160684999864,None,0.33976970000367146,,,Silent01,001,2022_Jun_23_1000,ProdSingRedoBetween,2021.2.3,59.81841522186862,
,,,,141,0,141,0,,,,,,,,,,,,,,,,,,,,,,1283.453629999989,None,,,,,,,,,,,,,,,,,center,171,142,silent,new,null,1279.4046200999874,None,1279.4046200999874,None,2,3.251021200005198,1279.4046200999874,None,3.251021200005198,1282.6945644999942,None,1283.2003979999863,None,1283.2003979999863,None,n,0.22326119999343064,1283.2003979999863,None,0.22326119999343064,,,Silent01,001,2022_Jun_23_1000,ProdSingRedoBetween,2021.2.3,59.81841522186862,
,,,,142,0,142,0,,,,,,,,,,,,,,,,,,,,,,1287.2286673999915,None,,,,,,,,,,,,,,,,,period,85,143,silent,old,red,1283.9800141999876,None,1283.9800141999876,None,6,1.4593013999983668,1283.9800141999876,None,1.4593013999983668,1285.4640807999967,None,1285.9647202999913,None,1285.9647202999913,None,r,1.2352852000040002,1285.9647202999913,None,1.2352852000040002,,,Silent01,001,2022_Jun_23_1000,ProdSingRedoBetween,2021.2.3,59.81841522186862,
,,,,143,0,143,0,,,,,,,,,,,,,,,,,,,,,,1291.6940474999865,None,,,,,,,,,,,,,,,,,junior,147,144,silent,new,null,1287.7504085999972,None,1287.7504085999972,None,1,3.025173200003337,1287.7504085999972,None,3.025173200003337,1290.8143647999968,None,1291.328870199999,None,1291.328870199999,None,n,0.33477110000967514,1291.328870199999,None,0.33477110000967514,,,Silent01,001,2022_Jun_23_1000,ProdSingRedoBetween,2021.2.3,59.81841522186862,
,,,,144,0,144,0,,,,,,,,,,,,,,,,,,,,,,1294.849208499989,None,,,,,,,,,,,,,,,,,material,19,145,silent,old,yellow,1292.2189246999915,None,1292.2189246999915,None,1,1.8688884000002872,1292.2189246999915,None,1.8688884000002872,1294.122445999994,None,1294.6298465999862,None,1294.6298465999862,None,n,0.1857826999912504,1294.6298465999862,None,0.1857826999912504,,,Silent01,001,2022_Jun_23_1000,ProdSingRedoBetween,2021.2.3,59.81841522186862,
,,,,145,0,145,0,,,,,,,,,,,,,,,,,,,,,,1298.669523699995,None,,,,,,,,,,,,,,,,,contract,14,146,silent,old,yellow,1295.369748099998,None,1295.369748099998,None,2,2.5580907999974443,1295.369748099998,None,2.5580907999974443,1297.9533386999974,None,1298.4685163999966,None,1298.4685163999966,None,n,0.1631504999968456,1298.4685163999966,None,0.1631504999968456,,,Silent01,001,2022_Jun_23_1000,ProdSingRedoBetween,2021.2.3,59.81841522186862,
,,,,146,0,146,0,,,,,,,,,,,,,,,,,,,,,,1304.8333518,None,,,,,,,,,,,,,,,,,straight,114,147,silent,new,null,1299.192648799988,None,1299.192648799988,None,1,4.975017499993555,1299.192648799988,None,4.975017499993555,1304.1962884999957,None,1304.6999087000004,None,1304.6999087000004,None,n,0.11545569999725558,1304.6999087000004,None,0.11545569999725558,,,Silent01,001,2022_Jun_23_1000,ProdSingRedoBetween,2021.2.3,59.81841522186862,
,,,,147,0,147,0,,,,,,,,,,,,,,,,,,,,,,1307.5447556999861,None,,,,,,,,,,,,,,,,,colonel,137,148,silent,new,null,1305.3487970999995,None,1305.3487970999995,None,1,1.4909526000119513,1305.3487970999995,None,1.4909526000119513,1306.8850747999968,None,1307.3953577999928,None,1307.3953577999928,None,n,0.11632200000167359,1307.3953577999928,None,0.11632200000167359,,,Silent01,001,2022_Jun_23_1000,ProdSingRedoBetween,2021.2.3,59.81841522186862,
,,,,148,0,148,0,,,,,,,,,,,,,,,,,,,,,,1314.430002299996,None,,,,,,,,,,,,,,,,,account,163,149,silent,new,null,1308.069116899991,None,1308.069116899991,None,3,5.410632300001453,1308.069116899991,None,5.410632300001453,1313.5228612999927,None,1314.0317006999976,None,1314.0317006999976,None,f,0.37587770000391174,1314.0317006999976,None,0.37587770000391174,,,Silent01,001,2022_Jun_23_1000,ProdSingRedoBetween,2021.2.3,59.81841522186862,
,,,,149,0,149,0,,,,,,,,,,,,,,,,,,,,,,1317.4376704999886,None,,,,,,,,,,,,,,,,,individual,76,150,silent,old,red,1314.9566321999882,None,1314.9566321999882,None,2,1.79493880001246,1314.9566321999882,None,1.79493880001246,1316.7973731999955,None,1317.3030250999873,None,1317.3030250999873,None,n,0.09663820000423584,1317.3030250999873,None,0.09663820000423584,,,Silent01,001,2022_Jun_23_1000,ProdSingRedoBetween,2021.2.3,59.81841522186862,
,,,,150,0,150,0,,,,,,,,,,,,,,,,,,,,,,1323.3904468999972,None,,,,,,,,,,,,,,,,,escape,72,151,silent,old,red,1317.9634694999986,None,1317.9634694999986,None,1,4.596071499996469,1317.9634694999986,None,4.596071499996469,1322.6030003999913,None,1323.1102962000004,None,1323.1102962000004,None,n,0.24931010000000242,1323.1102962000004,None,0.24931010000000242,,,Silent01,001,2022_Jun_23_1000,ProdSingRedoBetween,2021.2.3,59.81841522186862,
,,,,151,0,151,0,,,,,,,,,,,,,,,,,,,,,,1327.3698449999938,None,,,,,,,,,,,,,,,,,substance,55,152,silent,old,blue,1323.9180268999917,None,1323.9180268999917,None,1,2.753507300003548,1323.9180268999917,None,2.753507300003548,1326.7088113999926,None,1327.2300011999905,None,1327.2300011999905,None,n,0.10568530000455212,1327.2300011999905,None,0.10568530000455212,,,Silent01,001,2022_Jun_23_1000,ProdSingRedoBetween,2021.2.3,59.81841522186862,
,,,,152,0,152,0,,,,,,,,,,,,,,,,,,,,,,1331.0175954999868,None,,,,,,,,,,,,,,,,,figure,92,153,silent,new,null,1327.8939257999882,None,1327.8939257999882,None,2,2.3616531000006944,1327.8939257999882,None,2.3616531000006944,1330.2922621999896,None,1330.7992401999945,None,1330.7992401999945,None,n,0.18438700000115205,1330.7992401999945,None,0.18438700000115205,,,Silent01,001,2022_Jun_23_1000,ProdSingRedoBetween,2021.2.3,59.81841522186862,
,,,,153,0,153,0,,,,,,,,,,,,,,,,,,,,,,1334.2196545999905,None,,,,,,,,,,,,,,,,,right,140,154,silent,new,null,1331.544181099991,None,1331.544181099991,None,4,1.8634133000014117,1331.544181099991,None,1.8634133000014117,1333.4428372999973,None,1333.9552453999931,None,1333.9552453999931,None,f,0.23632310000539292,1333.9552453999931,None,0.23632310000539292,,,Silent01,001,2022_Jun_23_1000,ProdSingRedoBetween,2021.2.3,59.81841522186862,
,,,,154,0,154,0,,,,,,,,,,,,,,,,,,,,,,1338.5419451999915,None,,,,,,,,,,,,,,,,,throw,75,155,silent,old,red,1334.7467414999992,None,1334.7467414999992,None,3,2.9010220999916783,1334.7467414999992,None,2.9010220999916783,1337.684615399994,None,1338.191315899996,None,1338.191315899996,None,f,0.3123116999922786,1338.191315899996,None,0.3123116999922786,,,Silent01,001,2022_Jun_23_1000,ProdSingRedoBetween,2021.2.3,59.81841522186862,
,,,,155,0,155,0,,,,,,,,,,,,,,,,,,,,,,1342.3586989999894,None,,,,,,,,,,,,,,,,,country,157,156,silent,new,null,1339.0652686999965,None,1339.0652686999965,None,2,2.3904250000050524,1339.0652686999965,None,2.3904250000050524,1341.5038736999995,None,1342.014125799993,None,1342.014125799993,None,n,0.32113270000263583,1342.014125799993,None,0.32113270000263583,,,Silent01,001,2022_Jun_23_1000,ProdSingRedoBetween,2021.2.3,59.81841522186862,
,,,,156,0,156,0,,,,,,,,,,,,,,,,,,,,,,1350.214942999999,None,,,,,,,,,,,,,,,,,broke,108,157,silent,new,null,1342.8869312999886,None,1342.8869312999886,None,3,5.696496699994896,1342.8869312999886,None,5.696496699994896,1348.6209056999942,None,1349.139188199988,None,1349.139188199988,None,n,1.0522191999916686,1349.139188199988,None,1.0522191999916686,,,Silent01,001,2022_Jun_23_1000,ProdSingRedoBetween,2021.2.3,59.81841522186862,
,,,,157,0,157,0,,,,,,,,,,,,,,,,,,,,,,1355.5419933999947,None,,,,,,,,,,,,,,,,,safety,149,158,silent,new,null,1350.7448594999878,None,1350.7448594999878,None,3,3.9105102000030456,1350.7448594999878,None,3.9105102000030456,1354.6899972999963,None,1355.2091335999867,None,1355.2091335999867,None,f,0.29444409999996424,1355.2091335999867,None,0.29444409999996424,,,Silent01,001,2022_Jun_23_1000,ProdSingRedoBetween,2021.2.3,59.81841522186862,
,,,,158,0,158,0,,,,,,,,,,,,,,,,,,,,,,1362.600276199999,None,,,,,,,,,,,,,,,,,range,47,159,silent,old,blue,1356.0600419999973,None,1356.0600419999973,None,2,5.595565600000555,1356.0600419999973,None,5.595565600000555,1361.6917015999934,None,1362.1905682999932,None,1362.1905682999932,None,n,0.38523040000291076,1362.1905682999932,None,0.38523040000291076,,,Silent01,001,2022_Jun_23_1000,ProdSingRedoBetween,2021.2.3,59.81841522186862,
,,,,159,0,159,0,,,,,,,,,,,,,,,,,,,,,,1365.86077449999,None,,,,,,,,,,,,,,,,,balance,125,160,silent,new,null,1363.127312599987,None,1363.127312599987,None,3,1.9840130999946268,1363.127312599987,None,1.9840130999946268,1365.1513830999902,None,1365.6609876999864,None,1365.6609876999864,None,f,0.1781782000034582,1365.6609876999864,None,0.1781782000034582,,,Silent01,001,2022_Jun_23_1000,ProdSingRedoBetween,2021.2.3,59.81841522186862,
,,,,160,0,160,0,,,,,,,,,,,,,,,,,,,,,,1371.7668331999885,None,,,,,,,,,,,,,,,,,under,13,161,silent,old,yellow,1366.3613587,None,1366.3613587,None,3,4.750193200001377,1366.3613587,None,4.750193200001377,1371.1458897999983,None,1371.6549421999953,None,1371.6549421999953,None,f,0.08043860000907443,1371.6549421999953,None,0.08043860000907443,,,Silent01,001,2022_Jun_23_1000,ProdSingRedoBetween,2021.2.3,59.81841522186862,
,,,,161,0,161,0,,,,,,,,,,,,,,,,,,,,,,1376.3807472999906,None,,,,,,,,,,,,,,,,,ground,159,162,silent,new,null,1372.2814765999938,None,1372.2814765999938,None,2,3.262010899998131,1372.2814765999938,None,3.262010899998131,1375.5843868999946,None,1376.0952429999888,None,1376.0952429999888,None,n,0.2562891999987187,1376.0952429999888,None,0.2562891999987187,,,Silent01,001,2022_Jun_23_1000,ProdSingRedoBetween,2021.2.3,59.81841522186862,
,,,,162,0,162,0,,,,,,,,,,,,,,,,,,,,,,1381.8822177999973,None,,,,,,,,,,,,,,,,,resistance,32,163,silent,old,blue,1376.9053197999892,None,1376.9053197999892,None,1,4.222263799994835,1376.9053197999892,None,4.222263799994835,1381.1640544999973,None,1381.6860773999942,None,1381.6860773999942,None,n,0.15348229999653995,1381.6860773999942,None,0.15348229999653995,,,Silent01,001,2022_Jun_23_1000,ProdSingRedoBetween,2021.2.3,59.81841522186862,
,,,,163,0,163,0,,,,,,,,,,,,,,,,,,,,,,1387.591425999999,None,,,,,,,,,,,,,,,,,music,77,164,silent,old,red,1382.4057877999876,None,1382.4057877999876,None,3,4.369672300003003,1382.4057877999876,None,4.369672300003003,1386.8187757999985,None,1387.3398371999938,None,1387.3398371999938,None,f,0.2276406000019051,1387.3398371999938,None,0.2276406000019051,,,Silent01,001,2022_Jun_23_1000,ProdSingRedoBetween,2021.2.3,59.81841522186862,
,,,,164,0,164,0,,,,,,,,,,,,,,,,,,,,,,1394.297055899995,None,,,,,,,,,,,,,,,,,store,54,165,silent,old,blue,1388.116231299995,None,1388.116231299995,None,4,4.3469622999982676,1388.116231299995,None,4.3469622999982676,1392.490757099993,None,1393.0153002999868,None,1393.0153002999868,None,f,1.2481638000026578,1393.0153002999868,None,1.2481638000026578,,,Silent01,001,2022_Jun_23_1000,ProdSingRedoBetween,2021.2.3,59.81841522186862,
,,,,165,0,165,0,,,,,,,,,,,,,,,,,,,,,,1397.6348586999957,None,,,,,,,,,,,,,,,,,primary,60,166,silent,old,red,1394.8203798999893,None,1394.8203798999893,None,1,2.0911032000003615,1394.8203798999893,None,2.0911032000003615,1396.9662798999925,None,1397.4844765999878,None,1397.4844765999878,None,n,0.1231988000072306,1397.4844765999878,None,0.1231988000072306,,,Silent01,001,2022_Jun_23_1000,ProdSingRedoBetween,2021.2.3,59.81841522186862,
,,,,166,0,166,0,,,,,,,,,,,,,,,,,,,,,,1400.7046563999902,None,,,,,,,,,,,,,,,,,piece,99,167,silent,new,null,1398.1546256999864,None,1398.1546256999864,None,1,1.5968542000046,1398.1546256999864,None,1.5968542000046,1399.7979466999968,None,1400.3194510999892,None,1400.3194510999892,None,n,0.36045279999962077,1400.3194510999892,None,0.36045279999962077,,,Silent01,001,2022_Jun_23_1000,ProdSingRedoBetween,2021.2.3,59.81841522186862,
,,,,167,0,167,0,,,,,,,,,,,,,,,,,,,,,,1403.9403265999863,None,,,,,,,,,,,,,,,,,committee,101,168,silent,new,null,1401.2273089999944,None,1401.2273089999944,None,1,2.0199403000005987,1401.2273089999944,None,2.0199403000005987,1403.2818537999992,None,1403.7884249999915,None,1403.7884249999915,None,n,0.11515759999747388,1403.7884249999915,None,0.11515759999747388,,,Silent01,001,2022_Jun_23_1000,ProdSingRedoBetween,2021.2.3,59.81841522186862,
,,,,168,0,168,0,,,,,,,,,,,,,,,,,,,,,,1407.6779432999901,None,,,,,,,,,,,,,,,,,hearing,68,169,silent,old,red,1404.4627619999956,None,1404.4627619999956,None,1,2.488839600002393,1404.4627619999956,None,2.488839600002393,1406.9839487999998,None,1407.4931893999892,None,1407.4931893999892,None,n,0.15408079999906477,1407.4931893999892,None,0.15408079999906477,,,Silent01,001,2022_Jun_23_1000,ProdSingRedoBetween,2021.2.3,59.81841522186862,
,,,,169,0,169,0,,,,,,,,,,,,,,,,,,,,,,1413.1799924999941,None,,,,,,,,,,,,,,,,,corner,48,170,silent,old,blue,1408.1991336999927,None,1408.1991336999927,None,2,4.312263400002848,1408.1991336999927,None,4.312263400002848,1412.5524805999885,None,1413.0637318999943,None,1413.0637318999943,None,n,0.09573369999998249,1413.0637318999943,None,0.09573369999998249,,,Silent01,001,2022_Jun_23_1000,ProdSingRedoBetween,2021.2.3,59.81841522186862,
,,,,170,0,170,0,,,,,,,,,,,,,,,,,,,,,,1417.1539851999987,None,,,,,,,,,,,,,,,,,business,78,171,silent,old,red,1413.7103237999982,None,1413.7103237999982,None,5,2.497078500004136,1413.7103237999982,None,2.497078500004136,1416.238024099992,None,1416.7551651999966,None,1416.7551651999966,None,f,0.36423209999338724,1416.7551651999966,None,0.36423209999338724,,,Silent01,001,2022_Jun_23_1000,ProdSingRedoBetween,2021.2.3,59.81841522186862,
,,,,171,0,171,0,,,,,,,,,,,,,,,,,,,,,,1421.351606799988,None,,,,,,,,,,,,,,,,,weather,111,172,silent,new,null,1417.6765710999898,None,1417.6765710999898,None,3,3.02668339999218,1417.6765710999898,None,3.02668339999218,1420.742498099993,None,1421.2533415999933,None,1421.2533415999933,None,f,0.06611250000423752,1421.2533415999933,None,0.06611250000423752,,,Silent01,001,2022_Jun_23_1000,ProdSingRedoBetween,2021.2.3,59.81841522186862,
,,,,172,0,172,0,,,,,,,,,,,,,,,,,,,,,,1426.4799148999882,None,,,,,,,,,,,,,,,,,state,152,173,silent,new,null,1421.86749959999,None,1421.86749959999,None,4,4.02015830000164,1421.86749959999,None,4.02015830000164,1425.922118699993,None,1426.4213042999909,None,1426.4213042999909,None,f,0.03378099999099504,1426.4213042999909,None,0.03378099999099504,,,Silent01,001,2022_Jun_23_1000,ProdSingRedoBetween,2021.2.3,59.81841522186862,
,,,,173,0,173,0,,,,,,,,,,,,,,,,,,,,,,1429.9485879999993,None,,,,,,,,,,,,,,,,,order,2,174,silent,old,yellow,1426.9885442999948,None,1426.9885442999948,None,3,2.074669299996458,1426.9885442999948,None,2.074669299996458,1429.0907665999985,None,1429.600610999987,None,1429.600610999987,None,f,0.310982699986198,1429.600610999987,None,0.310982699986198,,,Silent01,001,2022_Jun_23_1000,ProdSingRedoBetween,2021.2.3,59.81841522186862,
,,,,174,0,174,0,,,,,,,,,,,,,,,,,,,,,,1434.164474899997,None,,,,,,,,,,,,,,,,,turkey,81,175,silent,old,red,1430.4768240999983,None,1430.4768240999983,None,3,2.794575399995665,1430.4768240999983,None,2.794575399995665,1433.3107462999906,None,1433.8188162999868,None,1433.8188162999868,None,n,0.3166629000043031,1433.8188162999868,None,0.3166629000043031,,,Silent01,001,2022_Jun_23_1000,ProdSingRedoBetween,2021.2.3,59.81841522186862,
,,,,175,0,175,0,,,,,,,,,,,,,,,,,,,,,,1437.1662588999898,None,,,,,,,,,,,,,,,,,court,158,176,silent,new,null,1434.6925458999904,None,1434.6925458999904,None,3,1.8987991999892984,1434.6925458999904,None,1.8987991999892984,1436.6276942999975,None,1437.1374348999962,None,1437.1374348999962,None,f,0.005785700006526895,1437.1374348999962,None,0.005785700006526895,,,Silent01,001,2022_Jun_23_1000,ProdSingRedoBetween,2021.2.3,59.81841522186862,
