StudyLoop.thisRepN,StudyLoop.thisTrialN,StudyLoop.thisN,StudyLoop.thisIndex,TestLoop.thisRepN,TestLoop.thisTrialN,TestLoop.thisN,TestLoop.thisIndex,textCondition.started,textCondition.stopped,keyCondition.keys,keyCondition.rt,keyCondition.started,keyCondition.stopped,Condition,textWelcome.started,textWelcome.stopped,keyWelcome.keys,keyWelcome.rt,keyWelcome.started,keyWelcome.stopped,textAloud.started,textAloud.stopped,textSilent.started,textSilent.stopped,textSing.started,textSing.stopped,conditional_text.started,conditional_text.stopped,textBlank500.started,textBlank500.stopped,study_word,study_num,study_order,study_type,word_color,textStudy.started,textStudy.stopped,keyStudy.keys,keyStudy.started,keyStudy.stopped,textTestInstructions.started,textTestInstructions.stopped,key_resp_3.keys,key_resp_3.rt,key_resp_3.started,key_resp_3.stopped,test_word,test_num,test_order,test_condition,old_new_test,test_word_original_color,textConf.started,textConf.stopped,textConfScale.started,textConfScale.stopped,keyConf.keys,keyConf.rt,keyConf.started,keyConf.stopped,confidence response time,textTestBlank.started,textTestBlank.stopped,textRKN.started,textRKN.stopped,textRKNScale.started,textRKNScale.stopped,keyRKN.keys,keyRKN.rt,keyRKN.started,keyRKN.stopped,rkn response time,textEnd.started,textEnd.stopped,participant,session,date,expName,psychopyVersion,frameRate
,,,,,,,,53.5937485,None,a,118.621018,53.5937485,None,,,,,,,,,,,,,,,,,,,,,,,,,,,,,,,,,,,,,,,,,,,,,,,,,,,,,,,,,,,,,,Oct24Silent2,64,2022_Oct_24_1552,ProdSingRedoBetween,2021.2.3,60.05342354
,,,,,,,,,,,,,,SilentTest,172.2674027,None,space,8.3392389,172.2674027,None,,,,,,,,,,,,,,,,,,,,,,,,,,,,,,,,,,,,,,,,,,,,,,,,,,,,,,,Oct24Silent2,64,2022_Oct_24_1552,ProdSingRedoBetween,2021.2.3,60.05342354
0,0,0,0,,,,,,,,,,,,,,,,,,172.2674027,None,172.2674027,None,172.2674027,None,172.2674027,None,183.1346162,None,graduate,87,1,silent,red,181.1326645,None,None,181.1326645,None,,,,,,,,,,,,,,,,,,,,,,,,,,,,,,,,,,,Oct24Silent2,64,2022_Oct_24_1552,ProdSingRedoBetween,2021.2.3,60.05342354
1,0,1,0,,,,,,,,,,,,,,,,,,,,,,,,,,185.6373464,None,material,43,2,silent,blue,183.6349446,None,None,183.6349446,None,,,,,,,,,,,,,,,,,,,,,,,,,,,,,,,,,,,Oct24Silent2,64,2022_Oct_24_1552,ProdSingRedoBetween,2021.2.3,60.05342354
2,0,2,0,,,,,,,,,,,,,,,,,,,,,,,,,,188.1395167,None,alert,45,3,silent,blue,186.1383993,None,None,186.1383993,None,,,,,,,,,,,,,,,,,,,,,,,,,,,,,,,,,,,Oct24Silent2,64,2022_Oct_24_1552,ProdSingRedoBetween,2021.2.3,60.05342354
3,0,3,0,,,,,,,,,,,,,,,,,,,,,,,,,,190.6421492,None,brief,46,4,silent,blue,188.6412669,None,None,188.6412669,None,,,,,,,,,,,,,,,,,,,,,,,,,,,,,,,,,,,Oct24Silent2,64,2022_Oct_24_1552,ProdSingRedoBetween,2021.2.3,60.05342354
4,0,4,0,,,,,,,,,,,,,,,,,,,,,,,,,,193.1446198,None,point,17,5,silent,yellow,191.1425181,None,None,191.1425181,None,,,,,,,,,,,,,,,,,,,,,,,,,,,,,,,,,,,Oct24Silent2,64,2022_Oct_24_1552,ProdSingRedoBetween,2021.2.3,60.05342354
5,0,5,0,,,,,,,,,,,,,,,,,,,,,,,,,,195.6473415,None,resistance,51,6,silent,blue,193.6451691,None,None,193.6451691,None,,,,,,,,,,,,,,,,,,,,,,,,,,,,,,,,,,,Oct24Silent2,64,2022_Oct_24_1552,ProdSingRedoBetween,2021.2.3,60.05342354
6,0,6,0,,,,,,,,,,,,,,,,,,,,,,,,,,198.1496313,None,contract,16,7,silent,yellow,196.147713,None,None,196.147713,None,,,,,,,,,,,,,,,,,,,,,,,,,,,,,,,,,,,Oct24Silent2,64,2022_Oct_24_1552,ProdSingRedoBetween,2021.2.3,60.05342354
7,0,7,0,,,,,,,,,,,,,,,,,,,,,,,,,,200.6521886,None,hearing,84,8,silent,red,198.6508652,None,None,198.6508652,None,,,,,,,,,,,,,,,,,,,,,,,,,,,,,,,,,,,Oct24Silent2,64,2022_Oct_24_1552,ProdSingRedoBetween,2021.2.3,60.05342354
8,0,8,0,,,,,,,,,,,,,,,,,,,,,,,,,,203.1713388,None,poetry,61,9,silent,red,201.1571193,None,None,201.1571193,None,,,,,,,,,,,,,,,,,,,,,,,,,,,,,,,,,,,Oct24Silent2,64,2022_Oct_24_1552,ProdSingRedoBetween,2021.2.3,60.05342354
9,0,9,0,,,,,,,,,,,,,,,,,,,,,,,,,,205.6738735,None,passage,25,10,silent,yellow,203.671809,None,None,203.671809,None,,,,,,,,,,,,,,,,,,,,,,,,,,,,,,,,,,,Oct24Silent2,64,2022_Oct_24_1552,ProdSingRedoBetween,2021.2.3,60.05342354
10,0,10,0,,,,,,,,,,,,,,,,,,,,,,,,,,208.1764409,None,touch,68,11,silent,red,206.1743507,None,None,206.1743507,None,,,,,,,,,,,,,,,,,,,,,,,,,,,,,,,,,,,Oct24Silent2,64,2022_Oct_24_1552,ProdSingRedoBetween,2021.2.3,60.05342354
11,0,11,0,,,,,,,,,,,,,,,,,,,,,,,,,,210.6788653,None,sleep,88,12,silent,red,208.6796497,None,None,208.6796497,None,,,,,,,,,,,,,,,,,,,,,,,,,,,,,,,,,,,Oct24Silent2,64,2022_Oct_24_1552,ProdSingRedoBetween,2021.2.3,60.05342354
12,0,12,0,,,,,,,,,,,,,,,,,,,,,,,,,,213.1811158,None,breath,19,13,silent,yellow,211.1811577,None,None,211.1811577,None,,,,,,,,,,,,,,,,,,,,,,,,,,,,,,,,,,,Oct24Silent2,64,2022_Oct_24_1552,ProdSingRedoBetween,2021.2.3,60.05342354
13,0,13,0,,,,,,,,,,,,,,,,,,,,,,,,,,215.6837023,None,foundation,6,14,silent,yellow,213.6840806,None,None,213.6840806,None,,,,,,,,,,,,,,,,,,,,,,,,,,,,,,,,,,,Oct24Silent2,64,2022_Oct_24_1552,ProdSingRedoBetween,2021.2.3,60.05342354
14,0,14,0,,,,,,,,,,,,,,,,,,,,,,,,,,218.2030035,None,people,23,15,silent,yellow,216.1961541,None,None,216.1961541,None,,,,,,,,,,,,,,,,,,,,,,,,,,,,,,,,,,,Oct24Silent2,64,2022_Oct_24_1552,ProdSingRedoBetween,2021.2.3,60.05342354
15,0,15,0,,,,,,,,,,,,,,,,,,,,,,,,,,220.7054762,None,scene,41,16,silent,blue,218.7049557,None,None,218.7049557,None,,,,,,,,,,,,,,,,,,,,,,,,,,,,,,,,,,,Oct24Silent2,64,2022_Oct_24_1552,ProdSingRedoBetween,2021.2.3,60.05342354
16,0,16,0,,,,,,,,,,,,,,,,,,,,,,,,,,223.2081951,None,agency,22,17,silent,yellow,221.207723,None,None,221.207723,None,,,,,,,,,,,,,,,,,,,,,,,,,,,,,,,,,,,Oct24Silent2,64,2022_Oct_24_1552,ProdSingRedoBetween,2021.2.3,60.05342354
17,0,17,0,,,,,,,,,,,,,,,,,,,,,,,,,,225.7273953,None,report,37,18,silent,blue,223.7193299,None,None,223.7193299,None,,,,,,,,,,,,,,,,,,,,,,,,,,,,,,,,,,,Oct24Silent2,64,2022_Oct_24_1552,ProdSingRedoBetween,2021.2.3,60.05342354
18,0,18,0,,,,,,,,,,,,,,,,,,,,,,,,,,228.2464389,None,native,9,19,silent,yellow,226.2408793,None,None,226.2408793,None,,,,,,,,,,,,,,,,,,,,,,,,,,,,,,,,,,,Oct24Silent2,64,2022_Oct_24_1552,ProdSingRedoBetween,2021.2.3,60.05342354
19,0,19,0,,,,,,,,,,,,,,,,,,,,,,,,,,230.7487911,None,route,86,20,silent,red,228.7466493,None,None,228.7466493,None,,,,,,,,,,,,,,,,,,,,,,,,,,,,,,,,,,,Oct24Silent2,64,2022_Oct_24_1552,ProdSingRedoBetween,2021.2.3,60.05342354
20,0,20,0,,,,,,,,,,,,,,,,,,,,,,,,,,233.251293,None,territory,63,21,silent,red,231.2491148,None,None,231.2491148,None,,,,,,,,,,,,,,,,,,,,,,,,,,,,,,,,,,,Oct24Silent2,64,2022_Oct_24_1552,ProdSingRedoBetween,2021.2.3,60.05342354
21,0,21,0,,,,,,,,,,,,,,,,,,,,,,,,,,235.7538359,None,country,76,22,silent,red,233.7529623,None,None,233.7529623,None,,,,,,,,,,,,,,,,,,,,,,,,,,,,,,,,,,,Oct24Silent2,64,2022_Oct_24_1552,ProdSingRedoBetween,2021.2.3,60.05342354
22,0,22,0,,,,,,,,,,,,,,,,,,,,,,,,,,238.2563538,None,frank,58,23,silent,blue,236.2556914,None,None,236.2556914,None,,,,,,,,,,,,,,,,,,,,,,,,,,,,,,,,,,,Oct24Silent2,64,2022_Oct_24_1552,ProdSingRedoBetween,2021.2.3,60.05342354
23,0,23,0,,,,,,,,,,,,,,,,,,,,,,,,,,240.7755131,None,position,38,24,silent,blue,238.7614085,None,None,238.7614085,None,,,,,,,,,,,,,,,,,,,,,,,,,,,,,,,,,,,Oct24Silent2,64,2022_Oct_24_1552,ProdSingRedoBetween,2021.2.3,60.05342354
24,0,24,0,,,,,,,,,,,,,,,,,,,,,,,,,,243.277713,None,rapid,81,25,silent,red,241.2759847,None,None,241.2759847,None,,,,,,,,,,,,,,,,,,,,,,,,,,,,,,,,,,,Oct24Silent2,64,2022_Oct_24_1552,ProdSingRedoBetween,2021.2.3,60.05342354
25,0,25,0,,,,,,,,,,,,,,,,,,,,,,,,,,245.780292,None,device,82,26,silent,red,243.7784287,None,None,243.7784287,None,,,,,,,,,,,,,,,,,,,,,,,,,,,,,,,,,,,Oct24Silent2,64,2022_Oct_24_1552,ProdSingRedoBetween,2021.2.3,60.05342354
26,0,26,0,,,,,,,,,,,,,,,,,,,,,,,,,,248.282982,None,little,5,27,silent,yellow,246.2809723,None,None,246.2809723,None,,,,,,,,,,,,,,,,,,,,,,,,,,,,,,,,,,,Oct24Silent2,64,2022_Oct_24_1552,ProdSingRedoBetween,2021.2.3,60.05342354
27,0,27,0,,,,,,,,,,,,,,,,,,,,,,,,,,250.8021287,None,majority,54,28,silent,blue,248.7912531,None,None,248.7912531,None,,,,,,,,,,,,,,,,,,,,,,,,,,,,,,,,,,,Oct24Silent2,64,2022_Oct_24_1552,ProdSingRedoBetween,2021.2.3,60.05342354
28,0,28,0,,,,,,,,,,,,,,,,,,,,,,,,,,253.3047026,None,production,13,29,silent,yellow,251.3026352,None,None,251.3026352,None,,,,,,,,,,,,,,,,,,,,,,,,,,,,,,,,,,,Oct24Silent2,64,2022_Oct_24_1552,ProdSingRedoBetween,2021.2.3,60.05342354
29,0,29,0,,,,,,,,,,,,,,,,,,,,,,,,,,255.807123,None,enemy,20,30,silent,yellow,253.8051986,None,None,253.8051986,None,,,,,,,,,,,,,,,,,,,,,,,,,,,,,,,,,,,Oct24Silent2,64,2022_Oct_24_1552,ProdSingRedoBetween,2021.2.3,60.05342354
30,0,30,0,,,,,,,,,,,,,,,,,,,,,,,,,,258.326401,None,relation,0,31,silent,yellow,256.3119127,None,None,256.3119127,None,,,,,,,,,,,,,,,,,,,,,,,,,,,,,,,,,,,Oct24Silent2,64,2022_Oct_24_1552,ProdSingRedoBetween,2021.2.3,60.05342354
31,0,31,0,,,,,,,,,,,,,,,,,,,,,,,,,,260.8454415,None,curve,12,32,silent,yellow,258.8341209,None,None,258.8341209,None,,,,,,,,,,,,,,,,,,,,,,,,,,,,,,,,,,,Oct24Silent2,64,2022_Oct_24_1552,ProdSingRedoBetween,2021.2.3,60.05342354
32,0,32,0,,,,,,,,,,,,,,,,,,,,,,,,,,263.349767,None,literature,2,33,silent,yellow,261.346605,None,None,261.346605,None,,,,,,,,,,,,,,,,,,,,,,,,,,,,,,,,,,,Oct24Silent2,64,2022_Oct_24_1552,ProdSingRedoBetween,2021.2.3,60.05342354
33,0,33,0,,,,,,,,,,,,,,,,,,,,,,,,,,265.8838784,None,strength,65,34,silent,red,263.871595,None,None,263.871595,None,,,,,,,,,,,,,,,,,,,,,,,,,,,,,,,,,,,Oct24Silent2,64,2022_Oct_24_1552,ProdSingRedoBetween,2021.2.3,60.05342354
34,0,34,0,,,,,,,,,,,,,,,,,,,,,,,,,,268.3863862,None,treatment,32,35,silent,blue,266.384397,None,None,266.384397,None,,,,,,,,,,,,,,,,,,,,,,,,,,,,,,,,,,,Oct24Silent2,64,2022_Oct_24_1552,ProdSingRedoBetween,2021.2.3,60.05342354
35,0,35,0,,,,,,,,,,,,,,,,,,,,,,,,,,270.8888565,None,profession,33,36,silent,blue,268.8889309,None,None,268.8889309,None,,,,,,,,,,,,,,,,,,,,,,,,,,,,,,,,,,,Oct24Silent2,64,2022_Oct_24_1552,ProdSingRedoBetween,2021.2.3,60.05342354
36,0,36,0,,,,,,,,,,,,,,,,,,,,,,,,,,273.3912442,None,object,24,37,silent,yellow,271.3894286,None,None,271.3894286,None,,,,,,,,,,,,,,,,,,,,,,,,,,,,,,,,,,,Oct24Silent2,64,2022_Oct_24_1552,ProdSingRedoBetween,2021.2.3,60.05342354
37,0,37,0,,,,,,,,,,,,,,,,,,,,,,,,,,275.8938368,None,watch,73,38,silent,red,273.8918082,None,None,273.8918082,None,,,,,,,,,,,,,,,,,,,,,,,,,,,,,,,,,,,Oct24Silent2,64,2022_Oct_24_1552,ProdSingRedoBetween,2021.2.3,60.05342354
38,0,38,0,,,,,,,,,,,,,,,,,,,,,,,,,,278.3963443,None,sound,44,39,silent,blue,276.3942219,None,None,276.3942219,None,,,,,,,,,,,,,,,,,,,,,,,,,,,,,,,,,,,Oct24Silent2,64,2022_Oct_24_1552,ProdSingRedoBetween,2021.2.3,60.05342354
39,0,39,0,,,,,,,,,,,,,,,,,,,,,,,,,,280.8985771,None,threat,49,40,silent,blue,278.897625,None,None,278.897625,None,,,,,,,,,,,,,,,,,,,,,,,,,,,,,,,,,,,Oct24Silent2,64,2022_Oct_24_1552,ProdSingRedoBetween,2021.2.3,60.05342354
40,0,40,0,,,,,,,,,,,,,,,,,,,,,,,,,,283.4012039,None,signal,80,41,silent,red,281.4016664,None,None,281.4016664,None,,,,,,,,,,,,,,,,,,,,,,,,,,,,,,,,,,,Oct24Silent2,64,2022_Oct_24_1552,ProdSingRedoBetween,2021.2.3,60.05342354
41,0,41,0,,,,,,,,,,,,,,,,,,,,,,,,,,285.92047,None,stranger,18,42,silent,yellow,283.9062539,None,None,283.9062539,None,,,,,,,,,,,,,,,,,,,,,,,,,,,,,,,,,,,Oct24Silent2,64,2022_Oct_24_1552,ProdSingRedoBetween,2021.2.3,60.05342354
42,0,42,0,,,,,,,,,,,,,,,,,,,,,,,,,,288.4227431,None,story,52,43,silent,blue,286.4209866,None,None,286.4209866,None,,,,,,,,,,,,,,,,,,,,,,,,,,,,,,,,,,,Oct24Silent2,64,2022_Oct_24_1552,ProdSingRedoBetween,2021.2.3,60.05342354
43,0,43,0,,,,,,,,,,,,,,,,,,,,,,,,,,290.941935,None,school,57,44,silent,blue,288.9285949,None,None,288.9285949,None,,,,,,,,,,,,,,,,,,,,,,,,,,,,,,,,,,,Oct24Silent2,64,2022_Oct_24_1552,ProdSingRedoBetween,2021.2.3,60.05342354
44,0,44,0,,,,,,,,,,,,,,,,,,,,,,,,,,293.4613321,None,suggestion,21,45,silent,yellow,291.4516401,None,None,291.4516401,None,,,,,,,,,,,,,,,,,,,,,,,,,,,,,,,,,,,Oct24Silent2,64,2022_Oct_24_1552,ProdSingRedoBetween,2021.2.3,60.05342354
45,0,45,0,,,,,,,,,,,,,,,,,,,,,,,,,,295.9804853,None,generation,4,46,silent,yellow,293.9653919,None,None,293.9653919,None,,,,,,,,,,,,,,,,,,,,,,,,,,,,,,,,,,,Oct24Silent2,64,2022_Oct_24_1552,ProdSingRedoBetween,2021.2.3,60.05342354
46,0,46,0,,,,,,,,,,,,,,,,,,,,,,,,,,298.4829779,None,figure,50,47,silent,blue,296.4810823,None,None,296.4810823,None,,,,,,,,,,,,,,,,,,,,,,,,,,,,,,,,,,,Oct24Silent2,64,2022_Oct_24_1552,ProdSingRedoBetween,2021.2.3,60.05342354
47,0,47,0,,,,,,,,,,,,,,,,,,,,,,,,,,300.9855797,None,household,64,48,silent,red,298.9839618,None,None,298.9839618,None,,,,,,,,,,,,,,,,,,,,,,,,,,,,,,,,,,,Oct24Silent2,64,2022_Oct_24_1552,ProdSingRedoBetween,2021.2.3,60.05342354
48,0,48,0,,,,,,,,,,,,,,,,,,,,,,,,,,303.4881689,None,crime,47,49,silent,blue,301.4880443,None,None,301.4880443,None,,,,,,,,,,,,,,,,,,,,,,,,,,,,,,,,,,,Oct24Silent2,64,2022_Oct_24_1552,ProdSingRedoBetween,2021.2.3,60.05342354
49,0,49,0,,,,,,,,,,,,,,,,,,,,,,,,,,306.0072678,None,produce,72,50,silent,red,303.9927017,None,None,303.9927017,None,,,,,,,,,,,,,,,,,,,,,,,,,,,,,,,,,,,Oct24Silent2,64,2022_Oct_24_1552,ProdSingRedoBetween,2021.2.3,60.05342354
50,0,50,0,,,,,,,,,,,,,,,,,,,,,,,,,,308.5098492,None,clear,40,51,silent,blue,306.507629,None,None,306.507629,None,,,,,,,,,,,,,,,,,,,,,,,,,,,,,,,,,,,Oct24Silent2,64,2022_Oct_24_1552,ProdSingRedoBetween,2021.2.3,60.05342354
51,0,51,0,,,,,,,,,,,,,,,,,,,,,,,,,,311.0288521,None,smooth,89,52,silent,red,309.0163919,None,None,309.0163919,None,,,,,,,,,,,,,,,,,,,,,,,,,,,,,,,,,,,Oct24Silent2,64,2022_Oct_24_1552,ProdSingRedoBetween,2021.2.3,60.05342354
52,0,52,0,,,,,,,,,,,,,,,,,,,,,,,,,,313.5314439,None,guest,8,53,silent,yellow,311.5293518,None,None,311.5293518,None,,,,,,,,,,,,,,,,,,,,,,,,,,,,,,,,,,,Oct24Silent2,64,2022_Oct_24_1552,ProdSingRedoBetween,2021.2.3,60.05342354
53,0,53,0,,,,,,,,,,,,,,,,,,,,,,,,,,316.0339785,None,grade,55,54,silent,blue,314.0319043,None,None,314.0319043,None,,,,,,,,,,,,,,,,,,,,,,,,,,,,,,,,,,,Oct24Silent2,64,2022_Oct_24_1552,ProdSingRedoBetween,2021.2.3,60.05342354
54,0,54,0,,,,,,,,,,,,,,,,,,,,,,,,,,318.5531441,None,listen,85,55,silent,red,316.5383615,None,None,316.5383615,None,,,,,,,,,,,,,,,,,,,,,,,,,,,,,,,,,,,Oct24Silent2,64,2022_Oct_24_1552,ProdSingRedoBetween,2021.2.3,60.05342354
55,0,55,0,,,,,,,,,,,,,,,,,,,,,,,,,,321.055498,None,attack,71,56,silent,red,319.0533818,None,None,319.0533818,None,,,,,,,,,,,,,,,,,,,,,,,,,,,,,,,,,,,Oct24Silent2,64,2022_Oct_24_1552,ProdSingRedoBetween,2021.2.3,60.05342354
56,0,56,0,,,,,,,,,,,,,,,,,,,,,,,,,,323.5748817,None,owner,56,57,silent,blue,321.561085,None,None,321.561085,None,,,,,,,,,,,,,,,,,,,,,,,,,,,,,,,,,,,Oct24Silent2,64,2022_Oct_24_1552,ProdSingRedoBetween,2021.2.3,60.05342354
57,0,57,0,,,,,,,,,,,,,,,,,,,,,,,,,,326.077229,None,straight,78,58,silent,red,324.0749244,None,None,324.0749244,None,,,,,,,,,,,,,,,,,,,,,,,,,,,,,,,,,,,Oct24Silent2,64,2022_Oct_24_1552,ProdSingRedoBetween,2021.2.3,60.05342354
58,0,58,0,,,,,,,,,,,,,,,,,,,,,,,,,,328.5798363,None,comedy,31,59,silent,blue,326.5802881,None,None,326.5802881,None,,,,,,,,,,,,,,,,,,,,,,,,,,,,,,,,,,,Oct24Silent2,64,2022_Oct_24_1552,ProdSingRedoBetween,2021.2.3,60.05342354
59,0,59,0,,,,,,,,,,,,,,,,,,,,,,,,,,331.0822743,None,nation,14,60,silent,yellow,329.0802971,None,None,329.0802971,None,,,,,,,,,,,,,,,,,,,,,,,,,,,,,,,,,,,Oct24Silent2,64,2022_Oct_24_1552,ProdSingRedoBetween,2021.2.3,60.05342354
60,0,60,0,,,,,,,,,,,,,,,,,,,,,,,,,,333.6013687,None,region,30,61,silent,blue,331.5878787,None,None,331.5878787,None,,,,,,,,,,,,,,,,,,,,,,,,,,,,,,,,,,,Oct24Silent2,64,2022_Oct_24_1552,ProdSingRedoBetween,2021.2.3,60.05342354
61,0,61,0,,,,,,,,,,,,,,,,,,,,,,,,,,336.1036418,None,bureau,62,62,silent,red,334.1044305,None,None,334.1044305,None,,,,,,,,,,,,,,,,,,,,,,,,,,,,,,,,,,,Oct24Silent2,64,2022_Oct_24_1552,ProdSingRedoBetween,2021.2.3,60.05342354
62,0,62,0,,,,,,,,,,,,,,,,,,,,,,,,,,338.6230738,None,trash,42,63,silent,blue,336.6089839,None,None,336.6089839,None,,,,,,,,,,,,,,,,,,,,,,,,,,,,,,,,,,,Oct24Silent2,64,2022_Oct_24_1552,ProdSingRedoBetween,2021.2.3,60.05342354
63,0,63,0,,,,,,,,,,,,,,,,,,,,,,,,,,341.142224,None,degree,15,64,silent,yellow,339.1323005,None,None,339.1323005,None,,,,,,,,,,,,,,,,,,,,,,,,,,,,,,,,,,,Oct24Silent2,64,2022_Oct_24_1552,ProdSingRedoBetween,2021.2.3,60.05342354
64,0,64,0,,,,,,,,,,,,,,,,,,,,,,,,,,343.6446588,None,range,34,65,silent,blue,341.6425546,None,None,341.6425546,None,,,,,,,,,,,,,,,,,,,,,,,,,,,,,,,,,,,Oct24Silent2,64,2022_Oct_24_1552,ProdSingRedoBetween,2021.2.3,60.05342354
65,0,65,0,,,,,,,,,,,,,,,,,,,,,,,,,,346.1639087,None,exchange,39,66,silent,blue,344.1575681,None,None,344.1575681,None,,,,,,,,,,,,,,,,,,,,,,,,,,,,,,,,,,,Oct24Silent2,64,2022_Oct_24_1552,ProdSingRedoBetween,2021.2.3,60.05342354
66,0,66,0,,,,,,,,,,,,,,,,,,,,,,,,,,348.6665628,None,century,79,67,silent,red,346.6644835,None,None,346.6644835,None,,,,,,,,,,,,,,,,,,,,,,,,,,,,,,,,,,,Oct24Silent2,64,2022_Oct_24_1552,ProdSingRedoBetween,2021.2.3,60.05342354
67,0,67,0,,,,,,,,,,,,,,,,,,,,,,,,,,351.185564,None,question,70,68,silent,red,349.1729779,None,None,349.1729779,None,,,,,,,,,,,,,,,,,,,,,,,,,,,,,,,,,,,Oct24Silent2,64,2022_Oct_24_1552,ProdSingRedoBetween,2021.2.3,60.05342354
68,0,68,0,,,,,,,,,,,,,,,,,,,,,,,,,,353.6878576,None,marriage,10,69,silent,yellow,351.6859669,None,None,351.6859669,None,,,,,,,,,,,,,,,,,,,,,,,,,,,,,,,,,,,Oct24Silent2,64,2022_Oct_24_1552,ProdSingRedoBetween,2021.2.3,60.05342354
69,0,69,0,,,,,,,,,,,,,,,,,,,,,,,,,,356.2074793,None,community,74,70,silent,red,354.1914599,None,None,354.1914599,None,,,,,,,,,,,,,,,,,,,,,,,,,,,,,,,,,,,Oct24Silent2,64,2022_Oct_24_1552,ProdSingRedoBetween,2021.2.3,60.05342354
70,0,70,0,,,,,,,,,,,,,,,,,,,,,,,,,,358.7097233,None,general,11,71,silent,yellow,356.7077823,None,None,356.7077823,None,,,,,,,,,,,,,,,,,,,,,,,,,,,,,,,,,,,Oct24Silent2,64,2022_Oct_24_1552,ProdSingRedoBetween,2021.2.3,60.05342354
71,0,71,0,,,,,,,,,,,,,,,,,,,,,,,,,,361.2122276,None,principal,83,72,silent,red,359.2100988,None,None,359.2100988,None,,,,,,,,,,,,,,,,,,,,,,,,,,,,,,,,,,,Oct24Silent2,64,2022_Oct_24_1552,ProdSingRedoBetween,2021.2.3,60.05342354
72,0,72,0,,,,,,,,,,,,,,,,,,,,,,,,,,363.7144662,None,public,77,73,silent,red,361.7153697,None,None,361.7153697,None,,,,,,,,,,,,,,,,,,,,,,,,,,,,,,,,,,,Oct24Silent2,64,2022_Oct_24_1552,ProdSingRedoBetween,2021.2.3,60.05342354
73,0,73,0,,,,,,,,,,,,,,,,,,,,,,,,,,366.2338957,None,answer,36,74,silent,blue,364.2216733,None,None,364.2216733,None,,,,,,,,,,,,,,,,,,,,,,,,,,,,,,,,,,,Oct24Silent2,64,2022_Oct_24_1552,ProdSingRedoBetween,2021.2.3,60.05342354
74,0,74,0,,,,,,,,,,,,,,,,,,,,,,,,,,368.7529008,None,business,29,75,silent,blue,366.7399526,None,None,366.7399526,None,,,,,,,,,,,,,,,,,,,,,,,,,,,,,,,,,,,Oct24Silent2,64,2022_Oct_24_1552,ProdSingRedoBetween,2021.2.3,60.05342354
75,0,75,0,,,,,,,,,,,,,,,,,,,,,,,,,,371.2556742,None,discussion,26,76,silent,yellow,369.2548012,None,None,369.2548012,None,,,,,,,,,,,,,,,,,,,,,,,,,,,,,,,,,,,Oct24Silent2,64,2022_Oct_24_1552,ProdSingRedoBetween,2021.2.3,60.05342354
76,0,76,0,,,,,,,,,,,,,,,,,,,,,,,,,,373.7746953,None,reading,27,77,silent,yellow,371.7607265,None,None,371.7607265,None,,,,,,,,,,,,,,,,,,,,,,,,,,,,,,,,,,,Oct24Silent2,64,2022_Oct_24_1552,ProdSingRedoBetween,2021.2.3,60.05342354
77,0,77,0,,,,,,,,,,,,,,,,,,,,,,,,,,376.2772611,None,committee,66,78,silent,red,374.2751604,None,None,374.2751604,None,,,,,,,,,,,,,,,,,,,,,,,,,,,,,,,,,,,Oct24Silent2,64,2022_Oct_24_1552,ProdSingRedoBetween,2021.2.3,60.05342354
78,0,78,0,,,,,,,,,,,,,,,,,,,,,,,,,,378.7964916,None,salary,35,79,silent,blue,376.7814502,None,None,376.7814502,None,,,,,,,,,,,,,,,,,,,,,,,,,,,,,,,,,,,Oct24Silent2,64,2022_Oct_24_1552,ProdSingRedoBetween,2021.2.3,60.05342354
79,0,79,0,,,,,,,,,,,,,,,,,,,,,,,,,,381.2990089,None,harmony,48,80,silent,blue,379.2980427,None,None,379.2980427,None,,,,,,,,,,,,,,,,,,,,,,,,,,,,,,,,,,,Oct24Silent2,64,2022_Oct_24_1552,ProdSingRedoBetween,2021.2.3,60.05342354
80,0,80,0,,,,,,,,,,,,,,,,,,,,,,,,,,383.8018085,None,appeal,53,81,silent,blue,381.8012673,None,None,381.8012673,None,,,,,,,,,,,,,,,,,,,,,,,,,,,,,,,,,,,Oct24Silent2,64,2022_Oct_24_1552,ProdSingRedoBetween,2021.2.3,60.05342354
81,0,81,0,,,,,,,,,,,,,,,,,,,,,,,,,,386.303856,None,raise,59,82,silent,yellow,384.3022864,None,None,384.3022864,None,,,,,,,,,,,,,,,,,,,,,,,,,,,,,,,,,,,Oct24Silent2,64,2022_Oct_24_1552,ProdSingRedoBetween,2021.2.3,60.05342354
82,0,82,0,,,,,,,,,,,,,,,,,,,,,,,,,,388.8065485,None,edition,28,83,silent,yellow,386.8048635,None,None,386.8048635,None,,,,,,,,,,,,,,,,,,,,,,,,,,,,,,,,,,,Oct24Silent2,64,2022_Oct_24_1552,ProdSingRedoBetween,2021.2.3,60.05342354
83,0,83,0,,,,,,,,,,,,,,,,,,,,,,,,,,391.3090034,None,institute,75,84,silent,red,389.3066852,None,None,389.3066852,None,,,,,,,,,,,,,,,,,,,,,,,,,,,,,,,,,,,Oct24Silent2,64,2022_Oct_24_1552,ProdSingRedoBetween,2021.2.3,60.05342354
84,0,84,0,,,,,,,,,,,,,,,,,,,,,,,,,,393.8114581,None,suspect,69,85,silent,red,391.8120009,None,None,391.8120009,None,,,,,,,,,,,,,,,,,,,,,,,,,,,,,,,,,,,Oct24Silent2,64,2022_Oct_24_1552,ProdSingRedoBetween,2021.2.3,60.05342354
85,0,85,0,,,,,,,,,,,,,,,,,,,,,,,,,,396.3138379,None,scale,67,86,silent,red,394.313351,None,None,394.313351,None,,,,,,,,,,,,,,,,,,,,,,,,,,,,,,,,,,,Oct24Silent2,64,2022_Oct_24_1552,ProdSingRedoBetween,2021.2.3,60.05342354
86,0,86,0,,,,,,,,,,,,,,,,,,,,,,,,,,398.8163685,None,cover,3,87,silent,yellow,396.8167822,None,None,396.8167822,None,,,,,,,,,,,,,,,,,,,,,,,,,,,,,,,,,,,Oct24Silent2,64,2022_Oct_24_1552,ProdSingRedoBetween,2021.2.3,60.05342354
87,0,87,0,,,,,,,,,,,,,,,,,,,,,,,,,,401.3186296,None,member,7,88,silent,yellow,399.3169845,None,None,399.3169845,None,,,,,,,,,,,,,,,,,,,,,,,,,,,,,,,,,,,Oct24Silent2,64,2022_Oct_24_1552,ProdSingRedoBetween,2021.2.3,60.05342354
88,0,88,0,,,,,,,,,,,,,,,,,,,,,,,,,,403.8381505,None,minute,60,89,silent,red,401.8233928,None,None,401.8233928,None,,,,,,,,,,,,,,,,,,,,,,,,,,,,,,,,,,,Oct24Silent2,64,2022_Oct_24_1552,ProdSingRedoBetween,2021.2.3,60.05342354
89,0,89,0,,,,,,,,,,,,,,,,,,,,,,,,,,406.3570428,None,employment,1,90,silent,yellow,404.3491651,None,None,404.3491651,None,,,,,,,,,,,,,,,,,,,,,,,,,,,,,,,,,,,Oct24Silent2,64,2022_Oct_24_1552,ProdSingRedoBetween,2021.2.3,60.05342354
,,,,,,,,,,,,,,,,,,,,,,,,,,,,,,,,,,,,,,,,,406.8581688,None,k,74.116245,406.8581688,None,,,,,,,,,,,,,,,,,,,,,,,,,,,,,Oct24Silent2,64,2022_Oct_24_1552,ProdSingRedoBetween,2021.2.3,60.05342354
,,,,0,0,0,0,,,,,,,,,,,,,,,,,,,,,,491.8758431,None,,,,,,,,,,,,,,,,,incident,158,1,silent,new,null,481.5087422,None,481.5087422,None,1,7.8894328,481.5087422,None,7.8894328,489.4235377,None,489.9242865,None,489.9242865,None,n,1.9298971,489.9242865,None,1.9298971,,,Oct24Silent2,64,2022_Oct_24_1552,ProdSingRedoBetween,2021.2.3,60.05342354
,,,,1,0,1,0,,,,,,,,,,,,,,,,,,,,,,496.1365371,None,,,,,,,,,,,,,,,,,waste,138,2,silent,new,null,492.3872133,None,492.3872133,None,1,2.8269413,492.3872133,None,2.8269413,495.2371091,None,495.7464906,None,495.7464906,None,n,0.3558142,495.7464906,None,0.3558142,,,Oct24Silent2,64,2022_Oct_24_1552,ProdSingRedoBetween,2021.2.3,60.05342354
,,,,2,0,2,0,,,,,,,,,,,,,,,,,,,,,,501.3352665,None,,,,,,,,,,,,,,,,,payment,171,3,silent,new,null,496.6476253,None,496.6476253,None,6,2.6785548,496.6476253,None,2.6785548,499.3512857,None,499.8506378,None,499.8506378,None,r,1.4597104,499.8506378,None,1.4597104,,,Oct24Silent2,64,2022_Oct_24_1552,ProdSingRedoBetween,2021.2.3,60.05342354
,,,,3,0,3,0,,,,,,,,,,,,,,,,,,,,,,505.0056057,None,,,,,,,,,,,,,,,,,smooth,89,4,silent,old,red,501.8359044,None,501.8359044,None,6,2.5782367,501.8359044,None,2.5782367,504.4401573,None,504.9558379,None,504.9558379,None,r,0.0342178,504.9558379,None,0.0342178,,,Oct24Silent2,64,2022_Oct_24_1552,ProdSingRedoBetween,2021.2.3,60.05342354
,,,,4,0,4,0,,,,,,,,,,,,,,,,,,,,,,508.492346,None,,,,,,,,,,,,,,,,,guest,8,5,silent,old,yellow,505.5097223,None,505.5097223,None,6,1.8322906,505.5097223,None,1.8322906,507.3578045,None,507.8585802,None,507.8585802,None,r,0.6035582,507.8585802,None,0.6035582,,,Oct24Silent2,64,2022_Oct_24_1552,ProdSingRedoBetween,2021.2.3,60.05342354
,,,,5,0,5,0,,,,,,,,,,,,,,,,,,,,,,511.9793307,None,,,,,,,,,,,,,,,,,clear,40,6,silent,old,blue,508.9942064,None,508.9942064,None,1,2.211964,508.9942064,None,2.211964,511.2283319,None,511.7289942,None,511.7289942,None,n,0.2212668,511.7289942,None,0.2212668,,,Oct24Silent2,64,2022_Oct_24_1552,ProdSingRedoBetween,2021.2.3,60.05342354
,,,,6,0,6,0,,,,,,,,,,,,,,,,,,,,,,516.5174635,None,,,,,,,,,,,,,,,,,crime,47,7,silent,old,blue,512.4799949,None,512.4799949,None,1,2.9101399,512.4799949,None,2.9101399,515.4171003,None,515.9165705,None,515.9165705,None,n,0.585664,515.9165705,None,0.585664,,,Oct24Silent2,64,2022_Oct_24_1552,ProdSingRedoBetween,2021.2.3,60.05342354
,,,,7,0,7,0,,,,,,,,,,,,,,,,,,,,,,520.0372751,None,,,,,,,,,,,,,,,,,fight,101,8,silent,new,null,517.0270354,None,517.0270354,None,6,1.8991816,517.0270354,None,1.8991816,518.9530115,None,519.4535273,None,519.4535273,None,r,0.5525996,519.4535273,None,0.5525996,,,Oct24Silent2,64,2022_Oct_24_1552,ProdSingRedoBetween,2021.2.3,60.05342354
,,,,8,0,8,0,,,,,,,,,,,,,,,,,,,,,,523.0066115,None,,,,,,,,,,,,,,,,,listen,85,9,silent,old,red,520.5380492,None,520.5380492,None,6,1.3000843,520.5380492,None,1.3000843,521.8616325,None,522.3777788,None,522.3777788,None,r,0.6042694,522.3777788,None,0.6042694,,,Oct24Silent2,64,2022_Oct_24_1552,ProdSingRedoBetween,2021.2.3,60.05342354
,,,,9,0,9,0,,,,,,,,,,,,,,,,,,,,,,525.4772092,None,,,,,,,,,,,,,,,,,degree,15,10,silent,old,yellow,523.5073345,None,523.5073345,None,6,1.2427156,523.5073345,None,1.2427156,524.7780001,None,525.2925639,None,525.2925639,None,r,0.1614663,525.2925639,None,0.1614663,,,Oct24Silent2,64,2022_Oct_24_1552,ProdSingRedoBetween,2021.2.3,60.05342354
,,,,10,0,10,0,,,,,,,,,,,,,,,,,,,,,,528.9461452,None,,,,,,,,,,,,,,,,,smell,142,11,silent,new,null,525.9764016,None,525.9764016,None,1,1.3816658,525.9764016,None,1.3816658,527.3777633,None,527.8782563,None,527.8782563,None,n,1.047851,527.8782563,None,1.047851,,,Oct24Silent2,64,2022_Oct_24_1552,ProdSingRedoBetween,2021.2.3,60.05342354
,,,,11,0,11,0,,,,,,,,,,,,,,,,,,,,,,533.4006836,None,,,,,,,,,,,,,,,,,season,120,12,silent,new,null,529.4539727,None,529.4539727,None,4,2.4401502,529.4539727,None,2.4401502,531.918326,None,532.4335444,None,532.4335444,None,f,0.9484727,532.4335444,None,0.9484727,,,Oct24Silent2,64,2022_Oct_24_1552,ProdSingRedoBetween,2021.2.3,60.05342354
,,,,12,0,12,0,,,,,,,,,,,,,,,,,,,,,,536.841156,None,,,,,,,,,,,,,,,,,public,77,13,silent,old,red,533.9126416,None,533.9126416,None,6,1.861615,533.9126416,None,1.861615,535.8098881,None,536.3203829,None,536.3203829,None,r,0.4938482,536.3203829,None,0.4938482,,,Oct24Silent2,64,2022_Oct_24_1552,ProdSingRedoBetween,2021.2.3,60.05342354
,,,,13,0,13,0,,,,,,,,,,,,,,,,,,,,,,540.0905785,None,,,,,,,,,,,,,,,,,display,106,14,silent,new,null,537.3639168,None,537.3639168,None,4,1.8183304,537.3639168,None,1.8183304,539.2064089,None,539.7085224,None,539.7085224,None,f,0.3535972,539.7085224,None,0.3535972,,,Oct24Silent2,64,2022_Oct_24_1552,ProdSingRedoBetween,2021.2.3,60.05342354
,,,,14,0,14,0,,,,,,,,,,,,,,,,,,,,,,542.8934219,None,,,,,,,,,,,,,,,,,evidence,116,15,silent,new,null,540.6029061,None,540.6029061,None,6,1.675232,540.6029061,None,1.675232,542.3104962,None,542.8100689,None,542.8100689,None,r,0.0679677,542.8100689,None,0.0679677,,,Oct24Silent2,64,2022_Oct_24_1552,ProdSingRedoBetween,2021.2.3,60.05342354
,,,,15,0,15,0,,,,,,,,,,,,,,,,,,,,,,545.5627794,None,,,,,,,,,,,,,,,,,series,124,16,silent,new,null,543.3979233,None,543.3979233,None,1,1.3361816,543.3979233,None,1.3361816,544.7694657,None,545.2846272,None,545.2846272,None,n,0.2574218,545.2846272,None,0.2574218,,,Oct24Silent2,64,2022_Oct_24_1552,ProdSingRedoBetween,2021.2.3,60.05342354
,,,,16,0,16,0,,,,,,,,,,,,,,,,,,,,,,548.1655961,None,,,,,,,,,,,,,,,,,shear,154,17,silent,new,null,546.0634153,None,546.0634153,None,1,1.2226605,546.0634153,None,1.2226605,547.3165045,None,547.8317925,None,547.8317925,None,n,0.3181929,547.8317925,None,0.3181929,,,Oct24Silent2,64,2022_Oct_24_1552,ProdSingRedoBetween,2021.2.3,60.05342354
,,,,17,0,17,0,,,,,,,,,,,,,,,,,,,,,,550.9887521,None,,,,,,,,,,,,,,,,,center,121,18,silent,new,null,548.6703377,None,548.6703377,None,6,1.527811,548.6703377,None,1.527811,550.2219732,None,550.7347411,None,550.7347411,None,r,0.2312731,550.7347411,None,0.2312731,,,Oct24Silent2,64,2022_Oct_24_1552,ProdSingRedoBetween,2021.2.3,60.05342354
,,,,18,0,18,0,,,,,,,,,,,,,,,,,,,,,,553.9544116,None,,,,,,,,,,,,,,,,,height,103,19,silent,new,null,551.5044253,None,551.5044253,None,4,1.5897428,551.5044253,None,1.5897428,553.1213067,None,553.6234804,None,553.6234804,None,f,0.3024846,553.6234804,None,0.3024846,,,Oct24Silent2,64,2022_Oct_24_1552,ProdSingRedoBetween,2021.2.3,60.05342354
,,,,19,0,19,0,,,,,,,,,,,,,,,,,,,,,,556.5930876,None,,,,,,,,,,,,,,,,,country,76,20,silent,old,red,554.454956,None,554.454956,None,6,1.4151144,554.454956,None,1.4151144,555.8910764,None,556.3926805,None,556.3926805,None,r,0.181453,556.3926805,None,0.181453,,,Oct24Silent2,64,2022_Oct_24_1552,ProdSingRedoBetween,2021.2.3,60.05342354
,,,,20,0,20,0,,,,,,,,,,,,,,,,,,,,,,559.8317429,None,,,,,,,,,,,,,,,,,cover,3,21,silent,old,yellow,557.1161724,None,557.1161724,None,3,1.8498114,557.1161724,None,1.8498114,558.9926049,None,559.4931413,None,559.4931413,None,f,0.304897,559.4931413,None,0.304897,,,Oct24Silent2,64,2022_Oct_24_1552,ProdSingRedoBetween,2021.2.3,60.05342354
,,,,21,0,21,0,,,,,,,,,,,,,,,,,,,,,,564.0311147,None,,,,,,,,,,,,,,,,,production,13,22,silent,old,yellow,560.3490455,None,560.3490455,None,6,2.7370626,560.3490455,None,2.7370626,563.1193521,None,563.6310554,None,563.6310554,None,r,0.3751693,563.6310554,None,0.3751693,,,Oct24Silent2,64,2022_Oct_24_1552,ProdSingRedoBetween,2021.2.3,60.05342354
,,,,22,0,22,0,,,,,,,,,,,,,,,,,,,,,,566.5337111,None,,,,,,,,,,,,,,,,,watch,73,23,silent,old,red,564.5318657,None,564.5318657,None,6,1.2661208,564.5318657,None,1.2661208,565.8167294,None,566.3195771,None,566.3195771,None,r,0.190653,566.3195771,None,0.190653,,,Oct24Silent2,64,2022_Oct_24_1552,ProdSingRedoBetween,2021.2.3,60.05342354
,,,,23,0,23,0,,,,,,,,,,,,,,,,,,,,,,568.7526845,None,,,,,,,,,,,,,,,,,story,52,24,silent,old,blue,567.0358082,None,567.0358082,None,6,0.9862467,567.0358082,None,0.9862467,568.0526516,None,568.5523353,None,568.5523353,None,r,0.1816227,568.5523353,None,0.1816227,,,Oct24Silent2,64,2022_Oct_24_1552,ProdSingRedoBetween,2021.2.3,60.05342354
,,,,24,0,24,0,,,,,,,,,,,,,,,,,,,,,,571.3718392,None,,,,,,,,,,,,,,,,,length,126,25,silent,new,null,569.25998,None,569.25998,None,1,1.2740934,569.25998,None,1.2740934,570.5570165,None,571.0716933,None,571.0716933,None,n,0.2703827,571.0716933,None,0.2703827,,,Oct24Silent2,64,2022_Oct_24_1552,ProdSingRedoBetween,2021.2.3,60.05342354
,,,,25,0,25,0,,,,,,,,,,,,,,,,,,,,,,574.1245919,None,,,,,,,,,,,,,,,,,sleep,88,26,silent,old,red,571.8810506,None,571.8810506,None,1,1.4451407,571.8810506,None,1.4451407,573.3637546,None,573.8744347,None,573.8744347,None,n,0.2195804,573.8744347,None,0.2195804,,,Oct24Silent2,64,2022_Oct_24_1552,ProdSingRedoBetween,2021.2.3,60.05342354
,,,,26,0,26,0,,,,,,,,,,,,,,,,,,,,,,576.4935597,None,,,,,,,,,,,,,,,,,literature,2,27,silent,old,yellow,574.6300472,None,574.6300472,None,6,1.152169,574.6300472,None,1.152169,575.8122372,None,576.3269287,None,576.3269287,None,r,0.1510829,576.3269287,None,0.1510829,,,Oct24Silent2,64,2022_Oct_24_1552,ProdSingRedoBetween,2021.2.3,60.05342354
,,,,27,0,27,0,,,,,,,,,,,,,,,,,,,,,,579.3132483,None,,,,,,,,,,,,,,,,,author,143,28,silent,new,null,576.9980147,None,576.9980147,None,1,1.3839292,576.9980147,None,1.3839292,578.4122993,None,578.9128723,None,578.9128723,None,n,0.3734923,578.9128723,None,0.3734923,,,Oct24Silent2,64,2022_Oct_24_1552,ProdSingRedoBetween,2021.2.3,60.05342354
,,,,28,0,28,0,,,,,,,,,,,,,,,,,,,,,,582.3326279,None,,,,,,,,,,,,,,,,,region,30,29,silent,old,blue,579.8138381,None,579.8138381,None,6,1.5043656,579.8138381,None,1.5043656,581.3529213,None,581.8658555,None,581.8658555,None,r,0.4441092,581.8658555,None,0.4441092,,,Oct24Silent2,64,2022_Oct_24_1552,ProdSingRedoBetween,2021.2.3,60.05342354
,,,,29,0,29,0,,,,,,,,,,,,,,,,,,,,,,585.2687233,None,,,,,,,,,,,,,,,,,scene,41,30,silent,old,blue,582.8429595,None,582.8429595,None,5,1.4430083,582.8429595,None,1.4430083,584.3027474,None,584.8020345,None,584.8020345,None,r,0.4358679,584.8020345,None,0.4358679,,,Oct24Silent2,64,2022_Oct_24_1552,ProdSingRedoBetween,2021.2.3,60.05342354
,,,,30,0,30,0,,,,,,,,,,,,,,,,,,,,,,588.057476,None,,,,,,,,,,,,,,,,,figure,50,31,silent,old,blue,585.7731639,None,585.7731639,None,4,1.6088,585.7731639,None,1.6088,587.4051656,None,587.9051483,None,587.9051483,None,f,0.124997,587.9051483,None,0.124997,,,Oct24Silent2,64,2022_Oct_24_1552,ProdSingRedoBetween,2021.2.3,60.05342354
,,,,31,0,31,0,,,,,,,,,,,,,,,,,,,,,,591.8587002,None,,,,,,,,,,,,,,,,,private,97,32,silent,new,null,588.5798025,None,588.5798025,None,1,2.5061048,588.5798025,None,2.5061048,591.1090599,None,591.6143867,None,591.6143867,None,n,0.2235221,591.6143867,None,0.2235221,,,Oct24Silent2,64,2022_Oct_24_1552,ProdSingRedoBetween,2021.2.3,60.05342354
,,,,32,0,32,0,,,,,,,,,,,,,,,,,,,,,,594.4447185,None,,,,,,,,,,,,,,,,,suggestion,21,33,silent,old,yellow,592.359599,None,592.359599,None,2,1.4224215,592.359599,None,1.4224215,593.8135788,None,594.3355408,None,594.3355408,None,n,0.0864776,594.3355408,None,0.0864776,,,Oct24Silent2,64,2022_Oct_24_1552,ProdSingRedoBetween,2021.2.3,60.05342354
,,,,33,0,33,0,,,,,,,,,,,,,,,,,,,,,,597.4809735,None,,,,,,,,,,,,,,,,,portion,144,34,silent,new,null,594.945327,None,594.945327,None,2,1.5086923,594.945327,None,1.5086923,596.4815866,None,596.9817061,None,596.9817061,None,n,0.4801803,596.9817061,None,0.4801803,,,Oct24Silent2,64,2022_Oct_24_1552,ProdSingRedoBetween,2021.2.3,60.05342354
,,,,34,0,34,0,,,,,,,,,,,,,,,,,,,,,,600.1836729,None,,,,,,,,,,,,,,,,,committee,66,35,silent,old,red,597.9816154,None,597.9816154,None,6,1.5044004,597.9816154,None,1.5044004,599.5172366,None,600.0197955,None,600.0197955,None,r,0.1381301,600.0197955,None,0.1381301,,,Oct24Silent2,64,2022_Oct_24_1552,ProdSingRedoBetween,2021.2.3,60.05342354
,,,,35,0,35,0,,,,,,,,,,,,,,,,,,,,,,602.6212973,None,,,,,,,,,,,,,,,,,owner,56,36,silent,old,blue,600.6875092,None,600.6875092,None,6,1.1984993,600.6875092,None,1.1984993,601.9020991,None,602.4029346,None,602.4029346,None,r,0.1871416,602.4029346,None,0.1871416,,,Oct24Silent2,64,2022_Oct_24_1552,ProdSingRedoBetween,2021.2.3,60.05342354
,,,,36,0,36,0,,,,,,,,,,,,,,,,,,,,,,605.3056557,None,,,,,,,,,,,,,,,,,medicine,151,37,silent,new,null,603.1369063,None,603.1369063,None,1,1.3410422,603.1369063,None,1.3410422,604.5054711,None,605.0055357,None,605.0055357,None,n,0.2805946,605.0055357,None,0.2805946,,,Oct24Silent2,64,2022_Oct_24_1552,ProdSingRedoBetween,2021.2.3,60.05342354
,,,,37,0,37,0,,,,,,,,,,,,,,,,,,,,,,607.7916061,None,,,,,,,,,,,,,,,,,bicycle,107,38,silent,new,null,605.8212238,None,605.8212238,None,1,1.2088965,605.8212238,None,1.2088965,607.0689753,None,607.5747625,None,607.5747625,None,n,0.1911885,607.5747625,None,0.1911885,,,Oct24Silent2,64,2022_Oct_24_1552,ProdSingRedoBetween,2021.2.3,60.05342354
,,,,38,0,38,0,,,,,,,,,,,,,,,,,,,,,,610.527737,None,,,,,,,,,,,,,,,,,equipment,162,39,silent,new,null,608.3029081,None,608.3029081,None,1,1.3029804,608.3029081,None,1.3029804,609.6263963,None,610.1354588,None,610.1354588,None,n,0.3746902,610.1354588,None,0.3746902,,,Oct24Silent2,64,2022_Oct_24_1552,ProdSingRedoBetween,2021.2.3,60.05342354
,,,,39,0,39,0,,,,,,,,,,,,,,,,,,,,,,613.4137388,None,,,,,,,,,,,,,,,,,raise,59,40,silent,old,yellow,611.0371039,None,611.0371039,None,4,1.5689507,611.0371039,None,1.5689507,612.6371306,None,613.1596437,None,613.1596437,None,f,0.2302891,613.1596437,None,0.2302891,,,Oct24Silent2,64,2022_Oct_24_1552,ProdSingRedoBetween,2021.2.3,60.05342354
,,,,40,0,40,0,,,,,,,,,,,,,,,,,,,,,,616.2177936,None,,,,,,,,,,,,,,,,,congress,173,41,silent,new,null,613.9305441,None,613.9305441,None,1,1.5073024,613.9305441,None,1.5073024,615.4714145,None,615.9830475,None,615.9830475,None,n,0.2149076,615.9830475,None,0.2149076,,,Oct24Silent2,64,2022_Oct_24_1552,ProdSingRedoBetween,2021.2.3,60.05342354
,,,,41,0,41,0,,,,,,,,,,,,,,,,,,,,,,618.8022276,None,,,,,,,,,,,,,,,,,impact,172,42,silent,new,null,616.724847,None,616.724847,None,1,1.3130877,616.724847,None,1.3130877,618.0700762,None,618.5856908,None,618.5856908,None,n,0.1882576,618.5856908,None,0.1882576,,,Oct24Silent2,64,2022_Oct_24_1552,ProdSingRedoBetween,2021.2.3,60.05342354
,,,,42,0,42,0,,,,,,,,,,,,,,,,,,,,,,622.2890632,None,,,,,,,,,,,,,,,,,material,43,43,silent,old,blue,619.3029137,None,619.3029137,None,6,1.974946,619.3029137,None,1.974946,621.3056442,None,621.8053823,None,621.8053823,None,r,0.4564914,621.8053823,None,0.4564914,,,Oct24Silent2,64,2022_Oct_24_1552,ProdSingRedoBetween,2021.2.3,60.05342354
,,,,43,0,43,0,,,,,,,,,,,,,,,,,,,,,,624.8919024,None,,,,,,,,,,,,,,,,,pretty,145,44,silent,new,null,622.7899159,None,622.7899159,None,1,1.3600341,622.7899159,None,1.3600341,624.1759615,None,624.678725,None,624.678725,None,n,0.1911138,624.678725,None,0.1911138,,,Oct24Silent2,64,2022_Oct_24_1552,ProdSingRedoBetween,2021.2.3,60.05342354
,,,,44,0,44,0,,,,,,,,,,,,,,,,,,,,,,627.6446787,None,,,,,,,,,,,,,,,,,device,82,45,silent,old,red,625.4020218,None,625.4020218,None,1,1.5078248,625.4020218,None,1.5078248,626.9355467,None,627.4486988,None,627.4486988,None,n,0.1732773,627.4486988,None,0.1732773,,,Oct24Silent2,64,2022_Oct_24_1552,ProdSingRedoBetween,2021.2.3,60.05342354
,,,,45,0,45,0,,,,,,,,,,,,,,,,,,,,,,630.4472139,None,,,,,,,,,,,,,,,,,audience,127,46,silent,new,null,628.1475948,None,628.1475948,None,3,1.5463592,628.1475948,None,1.5463592,629.7131773,None,630.2220392,None,630.2220392,None,f,0.2079889,630.2220392,None,0.2079889,,,Oct24Silent2,64,2022_Oct_24_1552,ProdSingRedoBetween,2021.2.3,60.05342354
,,,,46,0,46,0,,,,,,,,,,,,,,,,,,,,,,633.3000745,None,,,,,,,,,,,,,,,,,pressure,92,47,silent,new,null,630.9592999,None,630.9592999,None,1,1.5506267,630.9592999,None,1.5506267,632.5349588,None,633.0499401,None,633.0499401,None,n,0.2280467,633.0499401,None,0.2280467,,,Oct24Silent2,64,2022_Oct_24_1552,ProdSingRedoBetween,2021.2.3,60.05342354
,,,,47,0,47,0,,,,,,,,,,,,,,,,,,,,,,637.2208582,None,,,,,,,,,,,,,,,,,point,17,48,silent,old,yellow,633.8040407,None,633.8040407,None,4,2.6418859,633.8040407,None,2.6418859,636.4725883,None,636.9923527,None,636.9923527,None,f,0.2136069,636.9923527,None,0.2136069,,,Oct24Silent2,64,2022_Oct_24_1552,ProdSingRedoBetween,2021.2.3,60.05342354
,,,,48,0,48,0,,,,,,,,,,,,,,,,,,,,,,639.6246236,None,,,,,,,,,,,,,,,,,brief,46,49,silent,old,blue,637.727827,None,637.727827,None,3,1.2382787,637.727827,None,1.2382787,638.9944136,None,639.5116487,None,639.5116487,None,f,0.0943761,639.5116487,None,0.0943761,,,Oct24Silent2,64,2022_Oct_24_1552,ProdSingRedoBetween,2021.2.3,60.05342354
,,,,49,0,49,0,,,,,,,,,,,,,,,,,,,,,,643.2268192,None,,,,,,,,,,,,,,,,,straight,78,50,silent,old,red,640.1276958,None,640.1276958,None,6,2.1342272,640.1276958,None,2.1342272,642.2933728,None,642.7984514,None,642.7984514,None,r,0.3997167,642.7984514,None,0.3997167,,,Oct24Silent2,64,2022_Oct_24_1552,ProdSingRedoBetween,2021.2.3,60.05342354
,,,,50,0,50,0,,,,,,,,,,,,,,,,,,,,,,645.9294963,None,,,,,,,,,,,,,,,,,under,130,51,silent,new,null,643.7297991,None,643.7297991,None,3,1.4440425,643.7297991,None,1.4440425,645.2016196,None,645.7130206,None,645.7130206,None,f,0.1969007,645.7130206,None,0.1969007,,,Oct24Silent2,64,2022_Oct_24_1552,ProdSingRedoBetween,2021.2.3,60.05342354
,,,,51,0,51,0,,,,,,,,,,,,,,,,,,,,,,648.7656417,None,,,,,,,,,,,,,,,,,hearing,84,52,silent,old,red,646.4300823,None,646.4300823,None,6,1.7197961,646.4300823,None,1.7197961,648.1706275,None,648.6821144,None,648.6821144,None,r,0.0677461,648.6821144,None,0.0677461,,,Oct24Silent2,64,2022_Oct_24_1552,ProdSingRedoBetween,2021.2.3,60.05342354
,,,,52,0,52,0,,,,,,,,,,,,,,,,,,,,,,651.7354849,None,,,,,,,,,,,,,,,,,relation,0,53,silent,old,yellow,649.2701568,None,649.2701568,None,1,1.479752,649.2701568,None,1.479752,650.7721274,None,651.2878024,None,651.2878024,None,n,0.4222381,651.2878024,None,0.4222381,,,Oct24Silent2,64,2022_Oct_24_1552,ProdSingRedoBetween,2021.2.3,60.05342354
,,,,53,0,53,0,,,,,,,,,,,,,,,,,,,,,,657.5243962,None,,,,,,,,,,,,,,,,,threat,49,54,silent,old,blue,652.2372742,None,652.2372742,None,4,4.7205157,652.2372742,None,4.7205157,656.9736456,None,657.4744698,None,657.4744698,None,f,0.0194395,657.4744698,None,0.0194395,,,Oct24Silent2,64,2022_Oct_24_1552,ProdSingRedoBetween,2021.2.3,60.05342354
,,,,54,0,54,0,,,,,,,,,,,,,,,,,,,,,,660.1937354,None,,,,,,,,,,,,,,,,,defeat,165,55,silent,new,null,658.0355096,None,658.0355096,None,4,1.4984648,658.0355096,None,1.4984648,659.5634048,None,660.077004,None,660.077004,None,f,0.0888656,660.077004,None,0.0888656,,,Oct24Silent2,64,2022_Oct_24_1552,ProdSingRedoBetween,2021.2.3,60.05342354
,,,,55,0,55,0,,,,,,,,,,,,,,,,,,,,,,663.0299279,None,,,,,,,,,,,,,,,,,education,110,56,silent,new,null,660.6943285,None,660.6943285,None,5,1.7115683,660.6943285,None,1.7115683,662.4305702,None,662.9299531,None,662.9299531,None,f,0.0758348,662.9299531,None,0.0758348,,,Oct24Silent2,64,2022_Oct_24_1552,ProdSingRedoBetween,2021.2.3,60.05342354
,,,,56,0,56,0,,,,,,,,,,,,,,,,,,,,,,666.1997332,None,,,,,,,,,,,,,,,,,trash,42,57,silent,old,blue,663.5399806,None,663.5399806,None,6,2.0659989,663.5399806,None,2.0659989,665.6405936,None,666.1535399,None,666.1535399,None,r,0.020494,666.1535399,None,0.020494,,,Oct24Silent2,64,2022_Oct_24_1552,ProdSingRedoBetween,2021.2.3,60.05342354
,,,,57,0,57,0,,,,,,,,,,,,,,,,,,,,,,670.0868685,None,,,,,,,,,,,,,,,,,prime,163,58,silent,new,null,666.7084109,None,666.7084109,None,4,2.6654918,666.7084109,None,2.6654918,669.4037726,None,669.9035197,None,669.9035197,None,r,0.1663642,669.9035197,None,0.1663642,,,Oct24Silent2,64,2022_Oct_24_1552,ProdSingRedoBetween,2021.2.3,60.05342354
,,,,58,0,58,0,,,,,,,,,,,,,,,,,,,,,,674.6081099,None,,,,,,,,,,,,,,,,,working,135,59,silent,new,null,670.6033549,None,670.6033549,None,5,3.0265365,670.6033549,None,3.0265365,673.6610117,None,674.1756694,None,674.1756694,None,r,0.4062082,674.1756694,None,0.4062082,,,Oct24Silent2,64,2022_Oct_24_1552,ProdSingRedoBetween,2021.2.3,60.05342354
,,,,59,0,59,0,,,,,,,,,,,,,,,,,,,,,,677.047692,None,,,,,,,,,,,,,,,,,capital,119,60,silent,new,null,675.1119031,None,675.1119031,None,1,1.2379269,675.1119031,None,1.2379269,676.3781726,None,676.899651,None,676.899651,None,n,0.1224479,676.899651,None,0.1224479,,,Oct24Silent2,64,2022_Oct_24_1552,ProdSingRedoBetween,2021.2.3,60.05342354
,,,,60,0,60,0,,,,,,,,,,,,,,,,,,,,,,679.779912,None,,,,,,,,,,,,,,,,,industry,161,61,silent,new,null,677.5752335,None,677.5752335,None,6,1.2466667,677.5752335,None,1.2466667,678.853781,None,679.3655465,None,679.3655465,None,r,0.384354,679.3655465,None,0.384354,,,Oct24Silent2,64,2022_Oct_24_1552,ProdSingRedoBetween,2021.2.3,60.05342354
,,,,61,0,61,0,,,,,,,,,,,,,,,,,,,,,,684.5182795,None,,,,,,,,,,,,,,,,,business,29,62,silent,old,blue,680.288774,None,680.288774,None,6,3.4291485,680.288774,None,3.4291485,683.7350143,None,684.2420963,None,684.2420963,None,r,0.2598511,684.2420963,None,0.2598511,,,Oct24Silent2,64,2022_Oct_24_1552,ProdSingRedoBetween,2021.2.3,60.05342354
,,,,62,0,62,0,,,,,,,,,,,,,,,,,,,,,,687.3375502,None,,,,,,,,,,,,,,,,,reading,27,63,silent,old,yellow,685.0215156,None,685.0215156,None,4,1.4324561,685.0215156,None,1.4324561,686.4709513,None,686.9709572,None,686.9709572,None,f,0.3467537,686.9709572,None,0.3467537,,,Oct24Silent2,64,2022_Oct_24_1552,ProdSingRedoBetween,2021.2.3,60.05342354
,,,,63,0,63,0,,,,,,,,,,,,,,,,,,,,,,690.0234753,None,,,,,,,,,,,,,,,,,atmosphere,93,64,silent,new,null,687.8411135,None,687.8411135,None,1,1.3886961,687.8411135,None,1.3886961,689.2570656,None,689.75673,None,689.75673,None,n,0.241136,689.75673,None,0.241136,,,Oct24Silent2,64,2022_Oct_24_1552,ProdSingRedoBetween,2021.2.3,60.05342354
,,,,64,0,64,0,,,,,,,,,,,,,,,,,,,,,,692.5259943,None,,,,,,,,,,,,,,,,,rural,160,65,silent,new,null,690.5311465,None,690.5311465,None,1,1.3466301,690.5311465,None,1.3466301,691.9107033,None,692.4257968,None,692.4257968,None,n,0.0839685,692.4257968,None,0.0839685,,,Oct24Silent2,64,2022_Oct_24_1552,ProdSingRedoBetween,2021.2.3,60.05342354
,,,,65,0,65,0,,,,,,,,,,,,,,,,,,,,,,694.8117551,None,,,,,,,,,,,,,,,,,community,74,66,silent,old,red,693.0372464,None,693.0372464,None,6,1.1366335,693.0372464,None,1.1366335,694.1997004,None,694.7160044,None,694.7160044,None,r,0.0659975,694.7160044,None,0.0659975,,,Oct24Silent2,64,2022_Oct_24_1552,ProdSingRedoBetween,2021.2.3,60.05342354
,,,,66,0,66,0,,,,,,,,,,,,,,,,,,,,,,697.047161,None,,,,,,,,,,,,,,,,,position,38,67,silent,old,blue,695.3183801,None,695.3183801,None,6,1.1754267,695.3183801,None,1.1754267,696.5145694,None,697.0163095,None,697.0163095,None,r,0.0134987,697.0163095,None,0.0134987,,,Oct24Silent2,64,2022_Oct_24_1552,ProdSingRedoBetween,2021.2.3,60.05342354
,,,,67,0,67,0,,,,,,,,,,,,,,,,,,,,,,700.3170663,None,,,,,,,,,,,,,,,,,distance,117,68,silent,new,null,697.5545204,None,697.5545204,None,3,1.3313852,697.5545204,None,1.3313852,698.9167228,None,699.4200706,None,699.4200706,None,f,0.8658065,699.4200706,None,0.8658065,,,Oct24Silent2,64,2022_Oct_24_1552,ProdSingRedoBetween,2021.2.3,60.05342354
,,,,68,0,68,0,,,,,,,,,,,,,,,,,,,,,,702.8529481,None,,,,,,,,,,,,,,,,,nature,141,69,silent,new,null,700.8193477,None,700.8193477,None,3,1.3705569,700.8193477,None,1.3705569,702.2214281,None,702.7360211,None,702.7360211,None,f,0.0938778,702.7360211,None,0.0938778,,,Oct24Silent2,64,2022_Oct_24_1552,ProdSingRedoBetween,2021.2.3,60.05342354
,,,,69,0,69,0,,,,,,,,,,,,,,,,,,,,,,705.8227352,None,,,,,,,,,,,,,,,,,surprise,136,70,silent,new,null,703.3635281,None,703.3635281,None,3,1.8342304,703.3635281,None,1.8342304,705.2294606,None,705.7395961,None,705.7395961,None,f,0.0661817,705.7395961,None,0.0661817,,,Oct24Silent2,64,2022_Oct_24_1552,ProdSingRedoBetween,2021.2.3,60.05342354
,,,,70,0,70,0,,,,,,,,,,,,,,,,,,,,,,709.4094202,None,,,,,,,,,,,,,,,,,scale,67,71,silent,old,red,706.3283692,None,706.3283692,None,6,2.4374093,706.3283692,None,2.4374093,708.7940024,None,709.3094415,None,709.3094415,None,r,0.0723311,709.3094415,None,0.0723311,,,Oct24Silent2,64,2022_Oct_24_1552,ProdSingRedoBetween,2021.2.3,60.05342354
,,,,71,0,71,0,,,,,,,,,,,,,,,,,,,,,,711.5949977,None,,,,,,,,,,,,,,,,,question,70,72,silent,old,red,709.9199254,None,709.9199254,None,6,1.0858141,709.9199254,None,1.0858141,711.0334127,None,711.547969,None,711.547969,None,r,0.017861,711.547969,None,0.017861,,,Oct24Silent2,64,2022_Oct_24_1552,ProdSingRedoBetween,2021.2.3,60.05342354
,,,,72,0,72,0,,,,,,,,,,,,,,,,,,,,,,714.1155543,None,,,,,,,,,,,,,,,,,salary,35,73,silent,old,blue,712.104917,None,712.104917,None,4,1.2289029,712.104917,None,1.2289029,713.3648229,None,713.8686914,None,713.8686914,None,f,0.2172443,713.8686914,None,0.2172443,,,Oct24Silent2,64,2022_Oct_24_1552,ProdSingRedoBetween,2021.2.3,60.05342354
,,,,73,0,73,0,,,,,,,,,,,,,,,,,,,,,,716.5165656,None,,,,,,,,,,,,,,,,,quick,95,74,silent,new,null,714.6241759,None,714.6241759,None,1,1.2376585,714.6241759,None,1.2376585,715.8888072,None,716.4018787,None,716.4018787,None,n,0.0841521,716.4018787,None,0.0841521,,,Oct24Silent2,64,2022_Oct_24_1552,ProdSingRedoBetween,2021.2.3,60.05342354
,,,,74,0,74,0,,,,,,,,,,,,,,,,,,,,,,718.802175,None,,,,,,,,,,,,,,,,,suspect,69,75,silent,old,red,717.0272263,None,717.0272263,None,1,1.1225383,717.0272263,None,1.1225383,718.1694594,None,718.6688729,None,718.6688729,None,n,0.113015,718.6688729,None,0.113015,,,Oct24Silent2,64,2022_Oct_24_1552,ProdSingRedoBetween,2021.2.3,60.05342354
,,,,75,0,75,0,,,,,,,,,,,,,,,,,,,,,,721.4715825,None,,,,,,,,,,,,,,,,,majority,54,76,silent,old,blue,719.3117031,None,719.3117031,None,5,1.4062442,719.3117031,None,1.4062442,720.7390836,None,721.2633159,None,721.2633159,None,f,0.1824759,721.2633159,None,0.1824759,,,Oct24Silent2,64,2022_Oct_24_1552,ProdSingRedoBetween,2021.2.3,60.05342354
,,,,76,0,76,0,,,,,,,,,,,,,,,,,,,,,,723.8406211,None,,,,,,,,,,,,,,,,,general,11,77,silent,old,yellow,721.9747109,None,721.9747109,None,6,1.2150207,721.9747109,None,1.2150207,723.207497,None,723.7103488,None,723.7103488,None,r,0.1114896,723.7103488,None,0.1114896,,,Oct24Silent2,64,2022_Oct_24_1552,ProdSingRedoBetween,2021.2.3,60.05342354
,,,,77,0,77,0,,,,,,,,,,,,,,,,,,,,,,726.7285958,None,,,,,,,,,,,,,,,,,native,9,78,silent,old,yellow,724.3542973,None,724.3542973,None,1,1.731498,724.3542973,None,1.731498,726.1343209,None,726.644584,None,726.644584,None,n,0.0652154,726.644584,None,0.0652154,,,Oct24Silent2,64,2022_Oct_24_1552,ProdSingRedoBetween,2021.2.3,60.05342354
,,,,78,0,78,0,,,,,,,,,,,,,,,,,,,,,,729.2125483,None,,,,,,,,,,,,,,,,,sound,44,79,silent,old,blue,727.2465615,None,727.2465615,None,1,1.2952945,727.2465615,None,1.2952945,728.5632641,None,729.0624258,None,729.0624258,None,n,0.1273567,729.0624258,None,0.1273567,,,Oct24Silent2,64,2022_Oct_24_1552,ProdSingRedoBetween,2021.2.3,60.05342354
,,,,79,0,79,0,,,,,,,,,,,,,,,,,,,,,,733.9338676,None,,,,,,,,,,,,,,,,,provision,153,80,silent,new,null,729.7239751,None,729.7239751,None,4,2.5217876,729.7239751,None,2.5217876,732.2674535,None,732.7878189,None,732.7878189,None,f,1.1299024,732.7878189,None,1.1299024,,,Oct24Silent2,64,2022_Oct_24_1552,ProdSingRedoBetween,2021.2.3,60.05342354
,,,,80,0,80,0,,,,,,,,,,,,,,,,,,,,,,736.4030105,None,,,,,,,,,,,,,,,,,article,177,81,silent,new,null,734.446585,None,734.446585,None,3,1.3431147,734.446585,None,1.3431147,735.8229142,None,736.336478,None,736.336478,None,f,0.037328,736.336478,None,0.037328,,,Oct24Silent2,64,2022_Oct_24_1552,ProdSingRedoBetween,2021.2.3,60.05342354
,,,,81,0,81,0,,,,,,,,,,,,,,,,,,,,,,739.7230388,None,,,,,,,,,,,,,,,,,produce,72,82,silent,old,red,736.9114564,None,736.9114564,None,3,2.0223793,736.9114564,None,2.0223793,738.960549,None,739.4728667,None,739.4728667,None,f,0.2208954,739.4728667,None,0.2208954,,,Oct24Silent2,64,2022_Oct_24_1552,ProdSingRedoBetween,2021.2.3,60.05342354
,,,,82,0,82,0,,,,,,,,,,,,,,,,,,,,,,742.1419225,None,,,,,,,,,,,,,,,,,oxygen,133,83,silent,new,null,740.2302875,None,740.2302875,None,1,1.2474719,740.2302875,None,1.2474719,741.5095612,None,742.0088099,None,742.0088099,None,n,0.1089852,742.0088099,None,0.1089852,,,Oct24Silent2,64,2022_Oct_24_1552,ProdSingRedoBetween,2021.2.3,60.05342354
,,,,83,0,83,0,,,,,,,,,,,,,,,,,,,,,,744.6278749,None,,,,,,,,,,,,,,,,,passage,25,84,silent,old,yellow,742.6538248,None,742.6538248,None,1,1.3359136,742.6538248,None,1.3359136,744.0143065,None,744.5312404,None,744.5312404,None,n,0.0665849,744.5312404,None,0.0665849,,,Oct24Silent2,64,2022_Oct_24_1552,ProdSingRedoBetween,2021.2.3,60.05342354
,,,,84,0,84,0,,,,,,,,,,,,,,,,,,,,,,747.2666156,None,,,,,,,,,,,,,,,,,nation,14,85,silent,old,yellow,745.1314001,None,745.1314001,None,6,1.5623387,745.1314001,None,1.5623387,746.7146278,None,747.2149251,None,747.2149251,None,r,0.030894,747.2149251,None,0.030894,,,Oct24Silent2,64,2022_Oct_24_1552,ProdSingRedoBetween,2021.2.3,60.05342354
,,,,85,0,85,0,,,,,,,,,,,,,,,,,,,,,,749.8328496,None,,,,,,,,,,,,,,,,,benefit,109,86,silent,new,null,747.7858856,None,747.7858856,None,1,1.4278881,747.7858856,None,1.4278881,749.233121,None,749.7384883,None,749.7384883,None,n,0.0672647,749.7384883,None,0.0672647,,,Oct24Silent2,64,2022_Oct_24_1552,ProdSingRedoBetween,2021.2.3,60.05342354
,,,,86,0,86,0,,,,,,,,,,,,,,,,,,,,,,752.869486,None,,,,,,,,,,,,,,,,,hunger,148,87,silent,new,null,750.3368894,None,750.3368894,None,1,1.8928184,750.3368894,None,1.8928184,752.2520469,None,752.752869,None,752.752869,None,n,0.1008784,752.752869,None,0.1008784,,,Oct24Silent2,64,2022_Oct_24_1552,ProdSingRedoBetween,2021.2.3,60.05342354
,,,,87,0,87,0,,,,,,,,,,,,,,,,,,,,,,756.1060859,None,,,,,,,,,,,,,,,,,agency,22,88,silent,old,yellow,753.3799114,None,753.3799114,None,1,2.0817487,753.3799114,None,2.0817487,755.4908471,None,756.0061202,None,756.0061202,None,n,0.0716295,756.0061202,None,0.0716295,,,Oct24Silent2,64,2022_Oct_24_1552,ProdSingRedoBetween,2021.2.3,60.05342354
,,,,88,0,88,0,,,,,,,,,,,,,,,,,,,,,,758.6085486,None,,,,,,,,,,,,,,,,,mayor,169,89,silent,new,null,756.6067217,None,756.6067217,None,1,1.2470557,756.6067217,None,1.2470557,757.8803882,None,758.3917921,None,758.3917921,None,n,0.1980202,758.3917921,None,0.1980202,,,Oct24Silent2,64,2022_Oct_24_1552,ProdSingRedoBetween,2021.2.3,60.05342354
,,,,89,0,89,0,,,,,,,,,,,,,,,,,,,,,,761.294611,None,,,,,,,,,,,,,,,,,strength,65,90,silent,old,red,759.1178397,None,759.1178397,None,6,1.1357737,759.1178397,None,1.1357737,760.2786043,None,760.7991407,None,760.7991407,None,r,0.4704892,760.7991407,None,0.4704892,,,Oct24Silent2,64,2022_Oct_24_1552,ProdSingRedoBetween,2021.2.3,60.05342354
,,,,90,0,90,0,,,,,,,,,,,,,,,,,,,,,,763.6969595,None,,,,,,,,,,,,,,,,,dream,115,91,silent,new,null,761.8058009,None,761.8058009,None,4,1.3041224,761.8058009,None,1.3041224,763.1357103,None,763.6470502,None,763.6470502,None,f,0.0306499,763.6470502,None,0.0306499,,,Oct24Silent2,64,2022_Oct_24_1552,ProdSingRedoBetween,2021.2.3,60.05342354
,,,,91,0,91,0,,,,,,,,,,,,,,,,,,,,,,766.0993547,None,,,,,,,,,,,,,,,,,colonel,146,92,silent,new,null,764.1972726,None,764.1972726,None,1,1.2563808,764.1972726,None,1.2563808,765.483256,None,765.9824829,None,765.9824829,None,n,0.0873114,765.9824829,None,0.0873114,,,Oct24Silent2,64,2022_Oct_24_1552,ProdSingRedoBetween,2021.2.3,60.05342354
,,,,92,0,92,0,,,,,,,,,,,,,,,,,,,,,,769.6361387,None,,,,,,,,,,,,,,,,,treatment,32,93,silent,old,blue,766.6082545,None,766.6082545,None,6,2.0854358,766.6082545,None,2.0854358,768.7196213,None,769.2236678,None,769.2236678,None,r,0.3902416,769.2236678,None,0.3902416,,,Oct24Silent2,64,2022_Oct_24_1552,ProdSingRedoBetween,2021.2.3,60.05342354
,,,,93,0,93,0,,,,,,,,,,,,,,,,,,,,,,772.005173,None,,,,,,,,,,,,,,,,,estate,112,94,silent,new,null,770.1422724,None,770.1422724,None,1,1.1916867,770.1422724,None,1.1916867,771.3598205,None,771.8719714,None,771.8719714,None,n,0.1098807,771.8719714,None,0.1098807,,,Oct24Silent2,64,2022_Oct_24_1552,ProdSingRedoBetween,2021.2.3,60.05342354
,,,,94,0,94,0,,,,,,,,,,,,,,,,,,,,,,774.4076613,None,,,,,,,,,,,,,,,,,territory,63,95,silent,old,red,772.5059034,None,772.5059034,None,6,1.3237586,772.5059034,None,1.3237586,773.8581334,None,774.363333,None,774.363333,None,r,0.0263393,774.363333,None,0.0263393,,,Oct24Silent2,64,2022_Oct_24_1552,ProdSingRedoBetween,2021.2.3,60.05342354
,,,,95,0,95,0,,,,,,,,,,,,,,,,,,,,,,776.4445654,None,,,,,,,,,,,,,,,,,foundation,6,96,silent,old,yellow,774.9111234,None,774.9111234,None,6,0.9587066,774.9111234,None,0.9587066,775.9014845,None,776.4129517,None,776.4129517,None,r,0.0087642,776.4129517,None,0.0087642,,,Oct24Silent2,64,2022_Oct_24_1552,ProdSingRedoBetween,2021.2.3,60.05342354
,,,,96,0,96,0,,,,,,,,,,,,,,,,,,,,,,779.2790175,None,,,,,,,,,,,,,,,,,narrow,90,97,silent,new,null,776.9666463,None,776.9666463,None,4,1.6631295,776.9666463,None,1.6631295,778.6470273,None,779.1624532,None,779.1624532,None,f,0.091236,779.1624532,None,0.091236,,,Oct24Silent2,64,2022_Oct_24_1552,ProdSingRedoBetween,2021.2.3,60.05342354
,,,,97,0,97,0,,,,,,,,,,,,,,,,,,,,,,781.5313963,None,,,,,,,,,,,,,,,,,enemy,20,98,silent,old,yellow,779.7900369,None,779.7900369,None,6,1.1517179,779.7900369,None,1.1517179,780.9673832,None,781.4826405,None,781.4826405,None,r,0.0190804,781.4826405,None,0.0190804,,,Oct24Silent2,64,2022_Oct_24_1552,ProdSingRedoBetween,2021.2.3,60.05342354
,,,,98,0,98,0,,,,,,,,,,,,,,,,,,,,,,784.250756,None,,,,,,,,,,,,,,,,,drink,167,99,silent,new,null,782.0386544,None,782.0386544,None,1,1.3830268,782.0386544,None,1.3830268,783.4510456,None,783.9507025,None,783.9507025,None,n,0.2789787,783.9507025,None,0.2789787,,,Oct24Silent2,64,2022_Oct_24_1552,ProdSingRedoBetween,2021.2.3,60.05342354
,,,,99,0,99,0,,,,,,,,,,,,,,,,,,,,,,787.7373729,None,,,,,,,,,,,,,,,,,answer,36,100,silent,old,blue,784.7618892,None,784.7618892,None,6,2.0358002,784.7618892,None,2.0358002,786.823812,None,787.3373823,None,787.3373823,None,r,0.3803307,787.3373823,None,0.3803307,,,Oct24Silent2,64,2022_Oct_24_1552,ProdSingRedoBetween,2021.2.3,60.05342354
,,,,100,0,100,0,,,,,,,,,,,,,,,,,,,,,,789.8563165,None,,,,,,,,,,,,,,,,,beginning,131,101,silent,new,null,788.2446495,None,788.2446495,None,6,1.000938,788.2446495,None,1.000938,789.2731587,None,789.7782034,None,789.7782034,None,r,0.0516277,789.7782034,None,0.0516277,,,Oct24Silent2,64,2022_Oct_24_1552,ProdSingRedoBetween,2021.2.3,60.05342354
,,,,101,0,101,0,,,,,,,,,,,,,,,,,,,,,,792.3088403,None,,,,,,,,,,,,,,,,,poetry,61,102,silent,old,red,790.3634528,None,790.3634528,None,6,1.3062531,790.3634528,None,1.3062531,791.6951257,None,792.208977,None,792.208977,None,r,0.068821,792.208977,None,0.068821,,,Oct24Silent2,64,2022_Oct_24_1552,ProdSingRedoBetween,2021.2.3,60.05342354
,,,,102,0,102,0,,,,,,,,,,,,,,,,,,,,,,794.0995371,None,,,,,,,,,,,,,,,,,safety,102,103,silent,new,null,792.8243068,None,792.8243068,None,6,0.6932832,792.8243068,None,0.6932832,793.5433969,None,794.0467684,None,794.0467684,None,r,0.0230836,794.0467684,None,0.0230836,,,Oct24Silent2,64,2022_Oct_24_1552,ProdSingRedoBetween,2021.2.3,60.05342354
,,,,103,0,103,0,,,,,,,,,,,,,,,,,,,,,,796.7132616,None,,,,,,,,,,,,,,,,,goose,147,104,silent,new,null,794.6211865,None,794.6211865,None,1,1.2003944,794.6211865,None,1.2003944,795.8456752,None,796.3491249,None,796.3491249,None,n,0.3446114,796.3491249,None,0.3446114,,,Oct24Silent2,64,2022_Oct_24_1552,ProdSingRedoBetween,2021.2.3,60.05342354
,,,,104,0,104,0,,,,,,,,,,,,,,,,,,,,,,798.9488559,None,,,,,,,,,,,,,,,,,problem,134,105,silent,new,null,797.213758,None,797.213758,None,6,1.1278903,797.213758,None,1.1278903,798.3671755,None,798.8822354,None,798.8822354,None,r,0.035547,798.8822354,None,0.035547,,,Oct24Silent2,64,2022_Oct_24_1552,ProdSingRedoBetween,2021.2.3,60.05342354
,,,,105,0,105,0,,,,,,,,,,,,,,,,,,,,,,801.1676808,None,,,,,,,,,,,,,,,,,school,57,106,silent,old,blue,799.4518806,None,799.4518806,None,1,1.1218399,799.4518806,None,1.1218399,800.6005936,None,801.1035956,None,801.1035956,None,n,0.0459874,801.1035956,None,0.0459874,,,Oct24Silent2,64,2022_Oct_24_1552,ProdSingRedoBetween,2021.2.3,60.05342354
,,,,106,0,106,0,,,,,,,,,,,,,,,,,,,,,,803.0695685,None,,,,,,,,,,,,,,,,,grade,55,107,silent,old,blue,801.6754175,None,801.6754175,None,1,0.7542975,801.6754175,None,0.7542975,802.4604262,None,802.9697115,None,802.9697115,None,n,0.0760133,802.9697115,None,0.0760133,,,Oct24Silent2,64,2022_Oct_24_1552,ProdSingRedoBetween,2021.2.3,60.05342354
,,,,107,0,107,0,,,,,,,,,,,,,,,,,,,,,,805.5887792,None,,,,,,,,,,,,,,,,,bureau,62,108,silent,old,red,803.5859615,None,803.5859615,None,6,1.4036693,803.5859615,None,1.4036693,805.0058311,None,805.5054977,None,805.5054977,None,r,0.0522509,805.5054977,None,0.0522509,,,Oct24Silent2,64,2022_Oct_24_1552,ProdSingRedoBetween,2021.2.3,60.05342354
,,,,108,0,108,0,,,,,,,,,,,,,,,,,,,,,,807.6594588,None,,,,,,,,,,,,,,,,,route,86,109,silent,old,red,806.0978223,None,806.0978223,None,6,0.9718706,806.0978223,None,0.9718706,807.0948099,None,807.6082274,None,807.6082274,None,r,0.0294401,807.6082274,None,0.0294401,,,Oct24Silent2,64,2022_Oct_24_1552,ProdSingRedoBetween,2021.2.3,60.05342354
,,,,109,0,109,0,,,,,,,,,,,,,,,,,,,,,,809.9931837,None,,,,,,,,,,,,,,,,,contract,16,110,silent,old,yellow,808.1753451,None,808.1753451,None,6,0.8623513,808.1753451,None,0.8623513,809.0619637,None,809.5761771,None,809.5761771,None,r,0.3893787,809.5761771,None,0.3893787,,,Oct24Silent2,64,2022_Oct_24_1552,ProdSingRedoBetween,2021.2.3,60.05342354
,,,,110,0,110,0,,,,,,,,,,,,,,,,,,,,,,812.1786241,None,,,,,,,,,,,,,,,,,crisis,105,111,silent,new,null,810.4990589,None,810.4990589,None,6,0.6746006,810.4990589,None,0.6746006,811.1987878,None,811.715397,None,811.715397,None,r,0.4342885,811.715397,None,0.4342885,,,Oct24Silent2,64,2022_Oct_24_1552,ProdSingRedoBetween,2021.2.3,60.05342354
,,,,111,0,111,0,,,,,,,,,,,,,,,,,,,,,,814.397524,None,,,,,,,,,,,,,,,,,curve,12,112,silent,old,yellow,812.6825233,None,812.6825233,None,6,0.9150928,812.6825233,None,0.9150928,813.6146107,None,814.1140341,None,814.1140341,None,r,0.2597048,814.1140341,None,0.2597048,,,Oct24Silent2,64,2022_Oct_24_1552,ProdSingRedoBetween,2021.2.3,60.05342354
,,,,112,0,112,0,,,,,,,,,,,,,,,,,,,,,,816.9500492,None,,,,,,,,,,,,,,,,,signal,80,113,silent,old,red,814.9078078,None,814.9078078,None,1,1.3377965,814.9078078,None,1.3377965,816.2673838,None,816.7667203,None,816.7667203,None,n,0.15899,816.7667203,None,0.15899,,,Oct24Silent2,64,2022_Oct_24_1552,ProdSingRedoBetween,2021.2.3,60.05342354
,,,,113,0,113,0,,,,,,,,,,,,,,,,,,,,,,819.5191286,None,,,,,,,,,,,,,,,,,range,34,114,silent,old,blue,817.4587173,None,817.4587173,None,6,1.4108996,817.4587173,None,1.4108996,818.8867313,None,819.3859684,None,819.3859684,None,r,0.107635,819.3859684,None,0.107635,,,Oct24Silent2,64,2022_Oct_24_1552,ProdSingRedoBetween,2021.2.3,60.05342354
,,,,114,0,114,0,,,,,,,,,,,,,,,,,,,,,,821.8381714,None,,,,,,,,,,,,,,,,,murder,149,115,silent,new,null,820.0279961,None,820.0279961,None,6,0.8655871,820.0279961,None,0.8655871,820.9215673,None,821.4286862,None,821.4286862,None,r,0.3847768,821.4286862,None,0.3847768,,,Oct24Silent2,64,2022_Oct_24_1552,ProdSingRedoBetween,2021.2.3,60.05342354
,,,,115,0,115,0,,,,,,,,,,,,,,,,,,,,,,824.123887,None,,,,,,,,,,,,,,,,,quantity,108,116,silent,new,null,822.352565,None,822.352565,None,1,1.1890225,822.352565,None,1.1890225,823.5589498,None,824.0792497,None,824.0792497,None,n,0.0224543,824.0792497,None,0.0224543,,,Oct24Silent2,64,2022_Oct_24_1552,ProdSingRedoBetween,2021.2.3,60.05342354
,,,,116,0,116,0,,,,,,,,,,,,,,,,,,,,,,826.0925017,None,,,,,,,,,,,,,,,,,substance,96,117,silent,new,null,824.6242877,None,824.6242877,None,1,0.8132224,824.6242877,None,0.8132224,825.461688,None,825.9759114,None,825.9759114,None,n,0.0937826,825.9759114,None,0.0937826,,,Oct24Silent2,64,2022_Oct_24_1552,ProdSingRedoBetween,2021.2.3,60.05342354
,,,,117,0,117,0,,,,,,,,,,,,,,,,,,,,,,828.2291791,None,,,,,,,,,,,,,,,,,breath,19,118,silent,old,yellow,826.6003501,None,826.6003501,None,1,0.8612454,826.6003501,None,0.8612454,827.4798322,None,827.9995664,None,827.9995664,None,n,0.2060778,827.9995664,None,0.2060778,,,Oct24Silent2,64,2022_Oct_24_1552,ProdSingRedoBetween,2021.2.3,60.05342354
,,,,118,0,118,0,,,,,,,,,,,,,,,,,,,,,,830.4849635,None,,,,,,,,,,,,,,,,,background,111,119,silent,new,null,828.7328822,None,828.7328822,None,1,1.1050512,828.7328822,None,1.1050512,829.877715,None,830.3805185,None,830.3805185,None,n,0.0732611,830.3805185,None,0.0732611,,,Oct24Silent2,64,2022_Oct_24_1552,ProdSingRedoBetween,2021.2.3,60.05342354
,,,,119,0,119,0,,,,,,,,,,,,,,,,,,,,,,833.1158811,None,,,,,,,,,,,,,,,,,comedy,31,120,silent,old,blue,831.0053686,None,831.0053686,None,6,1.1761499,831.0053686,None,1.1761499,832.2006117,None,832.7161829,None,832.7161829,None,r,0.3694774,832.7161829,None,0.3694774,,,Oct24Silent2,64,2022_Oct_24_1552,ProdSingRedoBetween,2021.2.3,60.05342354
,,,,120,0,120,0,,,,,,,,,,,,,,,,,,,,,,836.0540058,None,,,,,,,,,,,,,,,,,plane,179,121,silent,new,null,833.6224933,None,833.6224933,None,1,1.7991729,833.6224933,None,1.7991729,835.4586879,None,835.9691731,None,835.9691731,None,n,0.0684806,835.9691731,None,0.0684806,,,Oct24Silent2,64,2022_Oct_24_1552,ProdSingRedoBetween,2021.2.3,60.05342354
,,,,121,0,121,0,,,,,,,,,,,,,,,,,,,,,,838.1712323,None,,,,,,,,,,,,,,,,,chief,132,122,silent,new,null,836.5728961,None,836.5728961,None,1,0.8407533,836.5728961,None,0.8407533,837.4442899,None,837.9564144,None,837.9564144,None,n,0.1931563,837.9564144,None,0.1931563,,,Oct24Silent2,64,2022_Oct_24_1552,ProdSingRedoBetween,2021.2.3,60.05342354
,,,,122,0,122,0,,,,,,,,,,,,,,,,,,,,,,840.2733789,None,,,,,,,,,,,,,,,,,husband,175,123,silent,new,null,838.6868711,None,838.6868711,None,1,0.7986846,838.6868711,None,0.7986846,839.508001,None,840.0248625,None,840.0248625,None,n,0.228776,840.0248625,None,0.228776,,,Oct24Silent2,64,2022_Oct_24_1552,ProdSingRedoBetween,2021.2.3,60.05342354
,,,,123,0,123,0,,,,,,,,,,,,,,,,,,,,,,842.7925502,None,,,,,,,,,,,,,,,,,individual,123,124,silent,new,null,840.7835983,None,840.7835983,None,6,1.3579077,840.7835983,None,1.3579077,842.1600298,None,842.6643712,None,842.6643712,None,r,0.1011282,842.6643712,None,0.1011282,,,Oct24Silent2,64,2022_Oct_24_1552,ProdSingRedoBetween,2021.2.3,60.05342354
,,,,124,0,124,0,,,,,,,,,,,,,,,,,,,,,,844.8779383,None,,,,,,,,,,,,,,,,,principal,83,125,silent,old,red,843.3034927,None,843.3034927,None,6,0.9020654,843.3034927,None,0.9020654,844.2285569,None,844.7348332,None,844.7348332,None,r,0.1267837,844.7348332,None,0.1267837,,,Oct24Silent2,64,2022_Oct_24_1552,ProdSingRedoBetween,2021.2.3,60.05342354
,,,,125,0,125,0,,,,,,,,,,,,,,,,,,,,,,846.8464783,None,,,,,,,,,,,,,,,,,institute,75,126,silent,old,red,845.3815682,None,845.3815682,None,6,0.7120797,845.3815682,None,0.7120797,846.1172255,None,846.629805,None,846.629805,None,r,0.1917678,846.629805,None,0.1917678,,,Oct24Silent2,64,2022_Oct_24_1552,ProdSingRedoBetween,2021.2.3,60.05342354
,,,,126,0,126,0,,,,,,,,,,,,,,,,,,,,,,848.8316614,None,,,,,,,,,,,,,,,,,finish,98,127,silent,new,null,847.3572858,None,847.3572858,None,6,0.7282897,847.3572858,None,0.7282897,848.1153864,None,848.6188481,None,848.6188481,None,r,0.1947495,848.6188481,None,0.1947495,,,Oct24Silent2,64,2022_Oct_24_1552,ProdSingRedoBetween,2021.2.3,60.05342354
,,,,127,0,127,0,,,,,,,,,,,,,,,,,,,,,,850.9339423,None,,,,,,,,,,,,,,,,,minute,60,128,silent,old,red,849.3324502,None,849.3324502,None,6,0.865099,849.3324502,None,0.865099,850.2184448,None,850.7419331,None,850.7419331,None,r,0.1678425,850.7419331,None,0.1678425,,,Oct24Silent2,64,2022_Oct_24_1552,ProdSingRedoBetween,2021.2.3,60.05342354
,,,,128,0,128,0,,,,,,,,,,,,,,,,,,,,,,852.8692047,None,,,,,,,,,,,,,,,,,edition,28,129,silent,old,yellow,851.4373248,None,851.4373248,None,6,0.7523946,851.4373248,None,0.7523946,852.2217306,None,852.7358079,None,852.7358079,None,r,0.1178608,852.7358079,None,0.1178608,,,Oct24Silent2,64,2022_Oct_24_1552,ProdSingRedoBetween,2021.2.3,60.05342354
,,,,129,0,129,0,,,,,,,,,,,,,,,,,,,,,,854.7377978,None,,,,,,,,,,,,,,,,,harmony,48,130,silent,old,blue,853.3799512,None,853.3799512,None,6,0.7456103,853.3799512,None,0.7456103,854.1548723,None,854.6597682,None,854.6597682,None,r,0.0497886,854.6597682,None,0.0497886,,,Oct24Silent2,64,2022_Oct_24_1552,ProdSingRedoBetween,2021.2.3,60.05342354
,,,,130,0,130,0,,,,,,,,,,,,,,,,,,,,,,856.6395927,None,,,,,,,,,,,,,,,,,whole,118,131,silent,new,null,855.2380506,None,855.2380506,None,6,0.6634758,855.2380506,None,0.6634758,855.9224264,None,856.4275229,None,856.4275229,None,r,0.1939597,856.4275229,None,0.1939597,,,Oct24Silent2,64,2022_Oct_24_1552,ProdSingRedoBetween,2021.2.3,60.05342354
,,,,131,0,131,0,,,,,,,,,,,,,,,,,,,,,,858.8918203,None,,,,,,,,,,,,,,,,,guard,170,132,silent,new,null,857.1495797,None,857.1495797,None,3,1.0238886,857.1495797,None,1.0238886,858.1939721,None,858.7172084,None,858.7172084,None,f,0.1443183,858.7172084,None,0.1443183,,,Oct24Silent2,64,2022_Oct_24_1552,ProdSingRedoBetween,2021.2.3,60.05342354
,,,,132,0,132,0,,,,,,,,,,,,,,,,,,,,,,860.9773979,None,,,,,,,,,,,,,,,,,touch,68,133,silent,old,red,859.3948912,None,859.3948912,None,2,0.9866603,859.3948912,None,0.9866603,860.4105212,None,860.9150018,None,860.9150018,None,f,0.0344698,860.9150018,None,0.0344698,,,Oct24Silent2,64,2022_Oct_24_1552,ProdSingRedoBetween,2021.2.3,60.05342354
,,,,133,0,133,0,,,,,,,,,,,,,,,,,,,,,,864.5809562,None,,,,,,,,,,,,,,,,,household,64,134,silent,old,red,861.480887,None,861.480887,None,6,2.2126402,861.480887,None,2.2126402,863.7164453,None,864.2326728,None,864.2326728,None,r,0.3328591,864.2326728,None,0.3328591,,,Oct24Silent2,64,2022_Oct_24_1552,ProdSingRedoBetween,2021.2.3,60.05342354
,,,,134,0,134,0,,,,,,,,,,,,,,,,,,,,,,867.7339521,None,,,,,,,,,,,,,,,,,bright,166,135,silent,new,null,865.08409,None,865.08409,None,2,1.7214588,865.08409,None,1.7214588,866.8361294,None,867.3504266,None,867.3504266,None,n,0.3671749,867.3504266,None,0.3671749,,,Oct24Silent2,64,2022_Oct_24_1552,ProdSingRedoBetween,2021.2.3,60.05342354
,,,,135,0,135,0,,,,,,,,,,,,,,,,,,,,,,870.9038931,None,,,,,,,,,,,,,,,,,appeal,53,136,silent,old,blue,868.2384961,None,868.2384961,None,6,2.0630978,868.2384961,None,2.0630978,870.321668,None,870.8372282,None,870.8372282,None,r,0.048254,870.8372282,None,0.048254,,,Oct24Silent2,64,2022_Oct_24_1552,ProdSingRedoBetween,2021.2.3,60.05342354
,,,,136,0,136,0,,,,,,,,,,,,,,,,,,,,,,873.5565014,None,,,,,,,,,,,,,,,,,broad,150,137,silent,new,null,871.4183232,None,871.4183232,None,3,1.4353179,871.4183232,None,1.4353179,872.8805907,None,873.3897913,None,873.3897913,None,f,0.135781,873.3897913,None,0.135781,,,Oct24Silent2,64,2022_Oct_24_1552,ProdSingRedoBetween,2021.2.3,60.05342354
,,,,137,0,137,0,,,,,,,,,,,,,,,,,,,,,,875.8421768,None,,,,,,,,,,,,,,,,,discovery,128,138,silent,new,null,874.0681626,None,874.0681626,None,3,1.1853446,874.0681626,None,1.1853446,875.2773735,None,875.7962049,None,875.7962049,None,f,0.0255391,875.7962049,None,0.0255391,,,Oct24Silent2,64,2022_Oct_24_1552,ProdSingRedoBetween,2021.2.3,60.05342354
,,,,138,0,138,0,,,,,,,,,,,,,,,,,,,,,,878.4447281,None,,,,,,,,,,,,,,,,,running,156,139,silent,new,null,876.3427797,None,876.3427797,None,6,1.2067771,876.3427797,None,1.2067771,877.5801957,None,878.0994922,None,878.0994922,None,r,0.3220648,878.0994922,None,0.3220648,,,Oct24Silent2,64,2022_Oct_24_1552,ProdSingRedoBetween,2021.2.3,60.05342354
,,,,139,0,139,0,,,,,,,,,,,,,,,,,,,,,,880.7636364,None,,,,,,,,,,,,,,,,,member,7,140,silent,old,yellow,878.9490516,None,878.9490516,None,6,1.0484202,878.9490516,None,1.0484202,880.0138595,None,880.5135236,None,880.5135236,None,r,0.2280324,880.5135236,None,0.2280324,,,Oct24Silent2,64,2022_Oct_24_1552,ProdSingRedoBetween,2021.2.3,60.05342354
,,,,140,0,140,0,,,,,,,,,,,,,,,,,,,,,,882.8324353,None,,,,,,,,,,,,,,,,,brilliant,164,141,silent,new,null,881.272573,None,881.272573,None,6,0.7889111,881.272573,None,0.7889111,882.0827088,None,882.582287,None,882.582287,None,r,0.2312591,882.582287,None,0.2312591,,,Oct24Silent2,64,2022_Oct_24_1552,ProdSingRedoBetween,2021.2.3,60.05342354
,,,,141,0,141,0,,,,,,,,,,,,,,,,,,,,,,885.3681415,None,,,,,,,,,,,,,,,,,spoke,155,142,silent,new,null,883.3445615,None,883.3445615,None,1,1.4288406,883.3445615,None,1.4288406,884.8038009,None,885.318226,None,885.318226,None,n,0.0231895,885.318226,None,0.0231895,,,Oct24Silent2,64,2022_Oct_24_1552,ProdSingRedoBetween,2021.2.3,60.05342354
,,,,142,0,142,0,,,,,,,,,,,,,,,,,,,,,,887.1710879,None,,,,,,,,,,,,,,,,,crowd,137,143,silent,new,null,885.8689132,None,885.8689132,None,1,0.6806305,885.8689132,None,0.6806305,886.5722599,None,887.0887563,None,887.0887563,None,n,0.0529071,887.0887563,None,0.0529071,,,Oct24Silent2,64,2022_Oct_24_1552,ProdSingRedoBetween,2021.2.3,60.05342354
,,,,143,0,143,0,,,,,,,,,,,,,,,,,,,,,,889.2220709,None,,,,,,,,,,,,,,,,,concern,125,144,silent,new,null,887.6707383,None,887.6707383,None,1,0.9349124,887.6707383,None,0.9349124,888.6240311,None,889.1406556,None,889.1406556,None,n,0.056899,889.1406556,None,0.056899,,,Oct24Silent2,64,2022_Oct_24_1552,ProdSingRedoBetween,2021.2.3,60.05342354
,,,,144,0,144,0,,,,,,,,,,,,,,,,,,,,,,892.8757135,None,,,,,,,,,,,,,,,,,service,176,145,silent,new,null,889.7338795,None,889.7338795,None,1,2.4796415,889.7338795,None,2.4796415,892.2418837,None,892.7425044,None,892.7425044,None,n,0.1029713,892.7425044,None,0.1029713,,,Oct24Silent2,64,2022_Oct_24_1552,ProdSingRedoBetween,2021.2.3,60.05342354
,,,,145,0,145,0,,,,,,,,,,,,,,,,,,,,,,895.5784986,None,,,,,,,,,,,,,,,,,people,23,146,silent,old,yellow,893.3877621,None,893.3877621,None,3,1.5857116,893.3877621,None,1.5857116,894.9977934,None,895.5138605,None,895.5138605,None,f,0.0436626,895.5138605,None,0.0436626,,,Oct24Silent2,64,2022_Oct_24_1552,ProdSingRedoBetween,2021.2.3,60.05342354
,,,,146,0,146,0,,,,,,,,,,,,,,,,,,,,,,898.3852999,None,,,,,,,,,,,,,,,,,light,178,147,silent,new,null,896.0852691,None,896.0852691,None,4,1.7361598,896.0852691,None,1.7361598,897.8472135,None,898.3570834,None,898.3570834,None,f,0.0084119,898.3570834,None,0.0084119,,,Oct24Silent2,64,2022_Oct_24_1552,ProdSingRedoBetween,2021.2.3,60.05342354
,,,,147,0,147,0,,,,,,,,,,,,,,,,,,,,,,901.5341473,None,,,,,,,,,,,,,,,,,republic,91,148,silent,new,null,898.9079625,None,898.9079625,None,1,2.0094896,898.9079625,None,2.0094896,900.9349263,None,901.4404213,None,901.4404213,None,n,0.0690367,901.4404213,None,0.0690367,,,Oct24Silent2,64,2022_Oct_24_1552,ProdSingRedoBetween,2021.2.3,60.05342354
,,,,148,0,148,0,,,,,,,,,,,,,,,,,,,,,,904.1536881,None,,,,,,,,,,,,,,,,,graduate,87,149,silent,old,red,902.0447607,None,902.0447607,None,6,1.4407436,902.0447607,None,1.4407436,903.5041473,None,904.0062913,None,904.0062913,None,r,0.1272104,904.0062913,None,0.1272104,,,Oct24Silent2,64,2022_Oct_24_1552,ProdSingRedoBetween,2021.2.3,60.05342354
,,,,149,0,149,0,,,,,,,,,,,,,,,,,,,,,,906.8396644,None,,,,,,,,,,,,,,,,,silence,140,150,silent,new,null,904.6651657,None,904.6651657,None,6,1.5322845,904.6651657,None,1.5322845,906.2238142,None,906.7271687,None,906.7271687,None,r,0.0941728,906.7271687,None,0.0941728,,,Oct24Silent2,64,2022_Oct_24_1552,ProdSingRedoBetween,2021.2.3,60.05342354
,,,,150,0,150,0,,,,,,,,,,,,,,,,,,,,,,908.8584056,None,,,,,,,,,,,,,,,,,resistance,51,151,silent,old,blue,907.3403304,None,907.3403304,None,6,0.8652227,907.3403304,None,0.8652227,908.2250642,None,908.7280152,None,908.7280152,None,r,0.1095183,908.7280152,None,0.1095183,,,Oct24Silent2,64,2022_Oct_24_1552,ProdSingRedoBetween,2021.2.3,60.05342354
,,,,151,0,151,0,,,,,,,,,,,,,,,,,,,,,,911.7612742,None,,,,,,,,,,,,,,,,,report,37,152,silent,old,blue,909.3591726,None,909.3591726,None,1,1.4862742,909.3591726,None,1.4862742,910.8616634,None,911.361707,None,911.361707,None,n,0.371673,911.361707,None,0.371673,,,Oct24Silent2,64,2022_Oct_24_1552,ProdSingRedoBetween,2021.2.3,60.05342354
,,,,152,0,152,0,,,,,,,,,,,,,,,,,,,,,,914.2180669,None,,,,,,,,,,,,,,,,,present,157,153,silent,new,null,912.2728,None,912.2728,None,6,1.2286546,912.2728,None,1.2286546,913.531081,None,914.0352991,None,914.0352991,None,r,0.1541935,914.0352991,None,0.1541935,,,Oct24Silent2,64,2022_Oct_24_1552,ProdSingRedoBetween,2021.2.3,60.05342354
,,,,153,0,153,0,,,,,,,,,,,,,,,,,,,,,,916.2511245,None,,,,,,,,,,,,,,,,,century,79,154,silent,old,red,914.7382211,None,914.7382211,None,6,0.7791149,914.7382211,None,0.7791149,915.5482649,None,916.0552655,None,916.0552655,None,r,0.1741981,916.0552655,None,0.1741981,,,Oct24Silent2,64,2022_Oct_24_1552,ProdSingRedoBetween,2021.2.3,60.05342354
,,,,154,0,154,0,,,,,,,,,,,,,,,,,,,,,,918.2678155,None,,,,,,,,,,,,,,,,,rapid,81,155,silent,old,red,916.7777455,None,916.7777455,None,6,0.7317606,916.7777455,None,0.7317606,917.5397618,None,918.0566283,None,918.0566283,None,r,0.1808646,918.0566283,None,0.1808646,,,Oct24Silent2,64,2022_Oct_24_1552,ProdSingRedoBetween,2021.2.3,60.05342354
,,,,155,0,155,0,,,,,,,,,,,,,,,,,,,,,,920.0361999,None,,,,,,,,,,,,,,,,,frank,58,156,silent,old,blue,918.7830175,None,918.7830175,None,6,0.6626317,918.7830175,None,0.6626317,919.4769814,None,919.9862316,None,919.9862316,None,r,0.035221,919.9862316,None,0.035221,,,Oct24Silent2,64,2022_Oct_24_1552,ProdSingRedoBetween,2021.2.3,60.05342354
,,,,156,0,156,0,,,,,,,,,,,,,,,,,,,,,,921.8213359,None,,,,,,,,,,,,,,,,,generation,4,157,silent,old,yellow,920.5460123,None,920.5460123,None,6,0.5714514,920.5460123,None,0.5714514,921.1382952,None,921.637899,None,921.637899,None,r,0.1596501,921.637899,None,0.1596501,,,Oct24Silent2,64,2022_Oct_24_1552,ProdSingRedoBetween,2021.2.3,60.05342354
,,,,157,0,157,0,,,,,,,,,,,,,,,,,,,,,,923.9401608,None,,,,,,,,,,,,,,,,,profession,33,158,silent,old,blue,922.3298677,None,922.3298677,None,6,0.9796759,922.3298677,None,0.9796759,923.3403574,None,923.8437521,None,923.8437521,None,r,0.0656581,923.8437521,None,0.0656581,,,Oct24Silent2,64,2022_Oct_24_1552,ProdSingRedoBetween,2021.2.3,60.05342354
,,,,158,0,158,0,,,,,,,,,,,,,,,,,,,,,,926.3258104,None,,,,,,,,,,,,,,,,,detective,113,159,silent,new,null,924.4555405,None,924.4555405,None,6,1.1418411,924.4555405,None,1.1418411,925.6269446,None,926.1424292,None,926.1424292,None,r,0.1670065,926.1424292,None,0.1670065,,,Oct24Silent2,64,2022_Oct_24_1552,ProdSingRedoBetween,2021.2.3,60.05342354
,,,,159,0,159,0,,,,,,,,,,,,,,,,,,,,,,928.9782688,None,,,,,,,,,,,,,,,,,stranger,18,160,silent,old,yellow,926.8340932,None,926.8340932,None,1,1.443303,926.8340932,None,1.443303,928.2996998,None,928.8117522,None,928.8117522,None,n,0.1457524,928.8117522,None,0.1457524,,,Oct24Silent2,64,2022_Oct_24_1552,ProdSingRedoBetween,2021.2.3,60.05342354
,,,,160,0,160,0,,,,,,,,,,,,,,,,,,,,,,931.2972463,None,,,,,,,,,,,,,,,,,escape,168,161,silent,new,null,929.4837366,None,929.4837366,None,6,1.1696151,929.4837366,None,1.1696151,930.6811612,None,931.180747,None,931.180747,None,r,0.0886955,931.180747,None,0.0886955,,,Oct24Silent2,64,2022_Oct_24_1552,ProdSingRedoBetween,2021.2.3,60.05342354
,,,,161,0,161,0,,,,,,,,,,,,,,,,,,,,,,933.2694893,None,,,,,,,,,,,,,,,,,appearance,100,162,silent,new,null,931.8083718,None,931.8083718,None,6,0.7969734,931.8083718,None,0.7969734,932.6331063,None,933.1385695,None,933.1385695,None,r,0.0990182,933.1385695,None,0.0990182,,,Oct24Silent2,64,2022_Oct_24_1552,ProdSingRedoBetween,2021.2.3,60.05342354
,,,,162,0,162,0,,,,,,,,,,,,,,,,,,,,,,936.0853624,None,,,,,,,,,,,,,,,,,discussion,26,163,silent,old,yellow,933.7924808,None,933.7924808,None,6,1.6049184,933.7924808,None,1.6049184,935.4206029,None,935.9354761,None,935.9354761,None,r,0.1260298,935.9354761,None,0.1260298,,,Oct24Silent2,64,2022_Oct_24_1552,ProdSingRedoBetween,2021.2.3,60.05342354
,,,,163,0,163,0,,,,,,,,,,,,,,,,,,,,,,938.0544667,None,,,,,,,,,,,,,,,,,union,129,164,silent,new,null,936.5925609,None,936.5925609,None,6,0.7088194,936.5925609,None,0.7088194,937.3199137,None,937.8205452,None,937.8205452,None,r,0.216902,937.8205452,None,0.216902,,,Oct24Silent2,64,2022_Oct_24_1552,ProdSingRedoBetween,2021.2.3,60.05342354
,,,,164,0,164,0,,,,,,,,,,,,,,,,,,,,,,940.2897136,None,,,,,,,,,,,,,,,,,corner,122,165,silent,new,null,938.554601,None,938.554601,None,1,1.0989027,938.554601,None,1.0989027,939.6732112,None,940.1732357,None,940.1732357,None,n,0.08818,940.1732357,None,0.08818,,,Oct24Silent2,64,2022_Oct_24_1552,ProdSingRedoBetween,2021.2.3,60.05342354
,,,,165,0,165,0,,,,,,,,,,,,,,,,,,,,,,942.5086805,None,,,,,,,,,,,,,,,,,employment,1,166,silent,old,yellow,940.7941513,None,940.7941513,None,6,1.1072368,940.7941513,None,1.1072368,941.9259778,None,942.4253122,None,942.4253122,None,r,0.0680921,942.4253122,None,0.0680921,,,Oct24Silent2,64,2022_Oct_24_1552,ProdSingRedoBetween,2021.2.3,60.05342354
,,,,166,0,166,0,,,,,,,,,,,,,,,,,,,,,,945.1825514,None,,,,,,,,,,,,,,,,,meeting,104,167,silent,new,null,943.0164697,None,943.0164697,None,1,1.2208887,943.0164697,None,1.2208887,944.2622941,None,944.7793038,None,944.7793038,None,n,0.3779609,944.7793038,None,0.3779609,,,Oct24Silent2,64,2022_Oct_24_1552,ProdSingRedoBetween,2021.2.3,60.05342354
,,,,167,0,167,0,,,,,,,,,,,,,,,,,,,,,,947.3632741,None,,,,,,,,,,,,,,,,,alert,45,168,silent,old,blue,945.6952627,None,945.6952627,None,6,0.9982271,945.6952627,None,0.9982271,946.7137759,None,947.2180239,None,947.2180239,None,r,0.1234004,947.2180239,None,0.1234004,,,Oct24Silent2,64,2022_Oct_24_1552,ProdSingRedoBetween,2021.2.3,60.05342354
,,,,168,0,168,0,,,,,,,,,,,,,,,,,,,,,,949.9993936,None,,,,,,,,,,,,,,,,,command,152,169,silent,new,null,947.8708172,None,947.8708172,None,1,1.2385773,947.8708172,None,1.2385773,949.1328664,None,949.632487,None,949.632487,None,n,0.3488404,949.632487,None,0.3488404,,,Oct24Silent2,64,2022_Oct_24_1552,ProdSingRedoBetween,2021.2.3,60.05342354
,,,,169,0,169,0,,,,,,,,,,,,,,,,,,,,,,952.5519593,None,,,,,,,,,,,,,,,,,motion,174,170,silent,new,null,950.5061087,None,950.5061087,None,1,1.251215,950.5061087,None,1.251215,951.7852859,None,952.2893979,None,952.2893979,None,n,0.2360697,952.2893979,None,0.2360697,,,Oct24Silent2,64,2022_Oct_24_1552,ProdSingRedoBetween,2021.2.3,60.05342354
,,,,170,0,170,0,,,,,,,,,,,,,,,,,,,,,,955.1211676,None,,,,,,,,,,,,,,,,,vision,114,171,silent,new,null,953.0629799,None,953.0629799,None,1,1.3824423,953.0629799,None,1.3824423,954.4708887,None,954.9711571,None,954.9711571,None,n,0.1303428,954.9711571,None,0.1303428,,,Oct24Silent2,64,2022_Oct_24_1552,ProdSingRedoBetween,2021.2.3,60.05342354
,,,,171,0,171,0,,,,,,,,,,,,,,,,,,,,,,957.9740828,None,,,,,,,,,,,,,,,,,second,99,172,silent,new,null,955.6396671,None,955.6396671,None,6,1.5817168,955.6396671,None,1.5817168,957.2412442,None,957.7485888,None,957.7485888,None,r,0.2008646,957.7485888,None,0.2008646,,,Oct24Silent2,64,2022_Oct_24_1552,ProdSingRedoBetween,2021.2.3,60.05342354
,,,,172,0,172,0,,,,,,,,,,,,,,,,,,,,,,959.8926405,None,,,,,,,,,,,,,,,,,little,5,173,silent,old,yellow,958.4746587,None,958.4746587,None,6,0.6907643,958.4746587,None,0.6907643,959.1935589,None,959.709295,None,959.709295,None,r,0.1681594,959.709295,None,0.1681594,,,Oct24Silent2,64,2022_Oct_24_1552,ProdSingRedoBetween,2021.2.3,60.05342354
,,,,173,0,173,0,,,,,,,,,,,,,,,,,,,,,,962.5619466,None,,,,,,,,,,,,,,,,,sweet,159,174,silent,new,null,960.4030051,None,960.4030051,None,1,1.4983073,960.4030051,None,1.4983073,961.9289548,None,962.4286579,None,962.4286579,None,n,0.1128001,962.4286579,None,0.1128001,,,Oct24Silent2,64,2022_Oct_24_1552,ProdSingRedoBetween,2021.2.3,60.05342354
,,,,174,0,174,0,,,,,,,,,,,,,,,,,,,,,,964.8141647,None,,,,,,,,,,,,,,,,,object,24,175,silent,old,yellow,963.0703664,None,963.0703664,None,6,0.9989334,963.0703664,None,0.9989334,964.0978087,None,964.6021319,None,964.6021319,None,r,0.1951644,964.6021319,None,0.1951644,,,Oct24Silent2,64,2022_Oct_24_1552,ProdSingRedoBetween,2021.2.3,60.05342354
,,,,175,0,175,0,,,,,,,,,,,,,,,,,,,,,,966.6993537,None,,,,,,,,,,,,,,,,,marriage,10,176,silent,old,yellow,965.3235818,None,965.3235818,None,6,0.6818131,965.3235818,None,0.6818131,966.0352022,None,966.5493203,None,966.5493203,None,r,0.1280892,966.5493203,None,0.1280892,,,Oct24Silent2,64,2022_Oct_24_1552,ProdSingRedoBetween,2021.2.3,60.05342354
,,,,176,0,176,0,,,,,,,,,,,,,,,,,,,,,,968.9850794,None,,,,,,,,,,,,,,,,,bitter,139,177,silent,new,null,967.2031103,None,967.2031103,None,1,1.1622319,967.2031103,None,1.1622319,968.3848257,None,968.8881849,None,968.8881849,None,n,0.0771545,968.8881849,None,0.0771545,,,Oct24Silent2,64,2022_Oct_24_1552,ProdSingRedoBetween,2021.2.3,60.05342354
,,,,177,0,177,0,,,,,,,,,,,,,,,,,,,,,,971.4040679,None,,,,,,,,,,,,,,,,,attack,71,178,silent,old,red,969.4949117,None,969.4949117,None,6,1.2064335,969.4949117,None,1.2064335,970.7214069,None,971.2206533,None,971.2206533,None,r,0.1526698,971.2206533,None,0.1526698,,,Oct24Silent2,64,2022_Oct_24_1552,ProdSingRedoBetween,2021.2.3,60.05342354
,,,,178,0,178,0,,,,,,,,,,,,,,,,,,,,,,974.0733901,None,,,,,,,,,,,,,,,,,couch,94,179,silent,new,null,971.9138827,None,971.9138827,None,4,1.3634353,971.9138827,None,1.3634353,973.3067233,None,973.8085201,None,973.8085201,None,f,0.2449191,973.8085201,None,0.2449191,,,Oct24Silent2,64,2022_Oct_24_1552,ProdSingRedoBetween,2021.2.3,60.05342354
,,,,179,0,179,0,,,,,,,,,,,,,,,,,,,,,,976.2756153,None,,,,,,,,,,,,,,,,,exchange,39,180,silent,old,blue,974.5738544,None,974.5738544,None,4,1.0394427,974.5738544,None,1.0394427,975.6415295,None,976.1451986,None,976.1451986,None,f,0.1002281,976.1451986,None,0.1002281,,,Oct24Silent2,64,2022_Oct_24_1552,ProdSingRedoBetween,2021.2.3,60.05342354
,,,,,,,,,,,,,,,,,,,,,,,,,,,,,,,,,,,,,,,,,,,,,,,,,,,,,,,,,,,,,,,,,,,,,,,,,976.7767893,None,,,,,,
