StudyLoop.thisRepN,StudyLoop.thisTrialN,StudyLoop.thisN,StudyLoop.thisIndex,TestLoop.thisRepN,TestLoop.thisTrialN,TestLoop.thisN,TestLoop.thisIndex,textCondition.started,textCondition.stopped,keyCondition.keys,keyCondition.rt,keyCondition.started,keyCondition.stopped,Condition,textWelcome.started,textWelcome.stopped,keyWelcome.keys,keyWelcome.rt,keyWelcome.started,keyWelcome.stopped,textAloud.started,textAloud.stopped,textSilent.started,textSilent.stopped,textSing.started,textSing.stopped,conditional_text.started,conditional_text.stopped,textBlank500.started,textBlank500.stopped,study_word,study_num,study_order,study_type,word_color,textStudy.started,textStudy.stopped,keyStudy.keys,keyStudy.started,keyStudy.stopped,keyStudy.rt,textTestInstructions.started,textTestInstructions.stopped,key_resp_3.keys,key_resp_3.rt,key_resp_3.started,key_resp_3.stopped,test_word,test_num,test_order,test_condition,old_new_test,test_word_original_color,textConf.started,textConf.stopped,textConfScale.started,textConfScale.stopped,keyConf.keys,keyConf.rt,keyConf.started,keyConf.stopped,confidence response time,textTestBlank.started,textTestBlank.stopped,textRKN.started,textRKN.stopped,textRKNScale.started,textRKNScale.stopped,keyRKN.keys,keyRKN.rt,keyRKN.started,keyRKN.stopped,rkn response time,textEnd.started,textEnd.stopped,participant,session,date,expName,psychopyVersion,frameRate
,,,,,,,,22.0572675,None,a,110.7540089,22.0572675,None,,,,,,,,,,,,,,,,,,,,,,,,,,,,,,,,,,,,,,,,,,,,,,,,,,,,,,,,,,,,,,,Sep30Silent1,58,2022_Sep_30_1430,ProdSingRedoBetween,2021.2.3,59.93267161
,,,,,,,,,,,,,,SilentTest,132.889199,None,space,16.8739174,132.889199,None,,,,,,,,,,,,,,,,,,,,,,,,,,,,,,,,,,,,,,,,,,,,,,,,,,,,,,,,Sep30Silent1,58,2022_Sep_30_1430,ProdSingRedoBetween,2021.2.3,59.93267161
0,0,0,0,,,,,,,,,,,,,,,,,,132.889199,None,132.889199,None,132.889199,None,132.889199,None,152.310153,None,quarter,62,1,silent,red,150.3019145,None,None,150.3019145,None,,,,,,,,,,,,,,,,,,,,,,,,,,,,,,,,,,,,Sep30Silent1,58,2022_Sep_30_1430,ProdSingRedoBetween,2021.2.3,59.93267161
1,0,1,0,,,,,,,,,,,,,,,,,,,,,,,,,,154.8127517,None,general,1,2,silent,yellow,152.8114205,None,space,152.8114205,None,1.7039317,,,,,,,,,,,,,,,,,,,,,,,,,,,,,,,,,,,Sep30Silent1,58,2022_Sep_30_1430,ProdSingRedoBetween,2021.2.3,59.93267161
2,0,2,0,,,,,,,,,,,,,,,,,,,,,,,,,,157.3318662,None,error,5,3,silent,yellow,155.3176436,None,space,155.3176436,None,1.1894131,,,,,,,,,,,,,,,,,,,,,,,,,,,,,,,,,,,Sep30Silent1,58,2022_Sep_30_1430,ProdSingRedoBetween,2021.2.3,59.93267161
3,0,3,0,,,,,,,,,,,,,,,,,,,,,,,,,,159.8341253,None,welcome,38,4,silent,blue,157.8321373,None,space,157.8321373,None,1.2750169,,,,,,,,,,,,,,,,,,,,,,,,,,,,,,,,,,,Sep30Silent1,58,2022_Sep_30_1430,ProdSingRedoBetween,2021.2.3,59.93267161
4,0,4,0,,,,,,,,,,,,,,,,,,,,,,,,,,162.3535337,None,clear,48,5,silent,blue,160.3380568,None,space,160.3380568,None,1.1770075,,,,,,,,,,,,,,,,,,,,,,,,,,,,,,,,,,,Sep30Silent1,58,2022_Sep_30_1430,ProdSingRedoBetween,2021.2.3,59.93267161
5,0,5,0,,,,,,,,,,,,,,,,,,,,,,,,,,164.8560295,None,problem,14,6,silent,yellow,162.8554124,None,space,162.8554124,None,1.1799154,,,,,,,,,,,,,,,,,,,,,,,,,,,,,,,,,,,Sep30Silent1,58,2022_Sep_30_1430,ProdSingRedoBetween,2021.2.3,59.93267161
6,0,6,0,,,,,,,,,,,,,,,,,,,,,,,,,,167.3751348,None,victory,83,7,silent,red,165.365216,None,space,165.365216,None,1.4538173,,,,,,,,,,,,,,,,,,,,,,,,,,,,,,,,,,,Sep30Silent1,58,2022_Sep_30_1430,ProdSingRedoBetween,2021.2.3,59.93267161
7,0,7,0,,,,,,,,,,,,,,,,,,,,,,,,,,169.8778001,None,front,57,8,silent,blue,167.8786918,None,space,167.8786918,None,1.4203469,,,,,,,,,,,,,,,,,,,,,,,,,,,,,,,,,,,Sep30Silent1,58,2022_Sep_30_1430,ProdSingRedoBetween,2021.2.3,59.93267161
8,0,8,0,,,,,,,,,,,,,,,,,,,,,,,,,,172.3810162,None,month,49,9,silent,blue,170.3779534,None,space,170.3779534,None,1.3131148,,,,,,,,,,,,,,,,,,,,,,,,,,,,,,,,,,,Sep30Silent1,58,2022_Sep_30_1430,ProdSingRedoBetween,2021.2.3,59.93267161
9,0,9,0,,,,,,,,,,,,,,,,,,,,,,,,,,174.8823118,None,suspect,3,10,silent,yellow,172.881311,None,space,172.881311,None,1.9376339,,,,,,,,,,,,,,,,,,,,,,,,,,,,,,,,,,,Sep30Silent1,58,2022_Sep_30_1430,ProdSingRedoBetween,2021.2.3,59.93267161
10,0,10,0,,,,,,,,,,,,,,,,,,,,,,,,,,177.4025641,None,period,29,11,silent,blue,175.3864569,None,space,175.3864569,None,0.9126823,,,,,,,,,,,,,,,,,,,,,,,,,,,,,,,,,,,Sep30Silent1,58,2022_Sep_30_1430,ProdSingRedoBetween,2021.2.3,59.93267161
11,0,11,0,,,,,,,,,,,,,,,,,,,,,,,,,,179.9209851,None,heavy,11,12,silent,yellow,177.9055963,None,space,177.9055963,None,0.9374413,,,,,,,,,,,,,,,,,,,,,,,,,,,,,,,,,,,Sep30Silent1,58,2022_Sep_30_1430,ProdSingRedoBetween,2021.2.3,59.93267161
12,0,12,0,,,,,,,,,,,,,,,,,,,,,,,,,,182.4233905,None,religion,39,13,silent,blue,180.4215134,None,space,180.4215134,None,0.3578131,,,,,,,,,,,,,,,,,,,,,,,,,,,,,,,,,,,Sep30Silent1,58,2022_Sep_30_1430,ProdSingRedoBetween,2021.2.3,59.93267161
13,0,13,0,,,,,,,,,,,,,,,,,,,,,,,,,,184.9260264,None,degree,81,14,silent,red,182.9262479,None,space,182.9262479,None,0.796784,,,,,,,,,,,,,,,,,,,,,,,,,,,,,,,,,,,Sep30Silent1,58,2022_Sep_30_1430,ProdSingRedoBetween,2021.2.3,59.93267161
14,0,14,0,,,,,,,,,,,,,,,,,,,,,,,,,,187.4450859,None,suggestion,25,15,silent,yellow,185.431877,None,space,185.431877,None,0.4112679,,,,,,,,,,,,,,,,,,,,,,,,,,,,,,,,,,,Sep30Silent1,58,2022_Sep_30_1430,ProdSingRedoBetween,2021.2.3,59.93267161
15,0,15,0,,,,,,,,,,,,,,,,,,,,,,,,,,189.9477441,None,resistance,82,16,silent,red,187.9455641,None,space,187.9455641,None,1.4177465,,,,,,,,,,,,,,,,,,,,,,,,,,,,,,,,,,,Sep30Silent1,58,2022_Sep_30_1430,ProdSingRedoBetween,2021.2.3,59.93267161
16,0,16,0,,,,,,,,,,,,,,,,,,,,,,,,,,192.4665759,None,instrument,20,17,silent,yellow,190.4540583,None,space,190.4540583,None,0.740878,,,,,,,,,,,,,,,,,,,,,,,,,,,,,,,,,,,Sep30Silent1,58,2022_Sep_30_1430,ProdSingRedoBetween,2021.2.3,59.93267161
17,0,17,0,,,,,,,,,,,,,,,,,,,,,,,,,,194.9693798,None,state,15,18,silent,yellow,192.9670622,None,space,192.9670622,None,0.5719666,,,,,,,,,,,,,,,,,,,,,,,,,,,,,,,,,,,Sep30Silent1,58,2022_Sep_30_1430,ProdSingRedoBetween,2021.2.3,59.93267161
18,0,18,0,,,,,,,,,,,,,,,,,,,,,,,,,,197.4718793,None,pressure,4,19,silent,yellow,195.4726468,None,space,195.4726468,None,0.6828054,,,,,,,,,,,,,,,,,,,,,,,,,,,,,,,,,,,Sep30Silent1,58,2022_Sep_30_1430,ProdSingRedoBetween,2021.2.3,59.93267161
19,0,19,0,,,,,,,,,,,,,,,,,,,,,,,,,,199.9741731,None,gesture,55,20,silent,blue,197.9724405,None,space,197.9724405,None,0.614603,,,,,,,,,,,,,,,,,,,,,,,,,,,,,,,,,,,Sep30Silent1,58,2022_Sep_30_1430,ProdSingRedoBetween,2021.2.3,59.93267161
20,0,20,0,,,,,,,,,,,,,,,,,,,,,,,,,,202.4768847,None,voice,7,21,silent,yellow,200.4776442,None,space,200.4776442,None,0.5413544,,,,,,,,,,,,,,,,,,,,,,,,,,,,,,,,,,,Sep30Silent1,58,2022_Sep_30_1430,ProdSingRedoBetween,2021.2.3,59.93267161
21,0,21,0,,,,,,,,,,,,,,,,,,,,,,,,,,204.9959213,None,agreement,59,22,silent,yellow,202.9816095,None,space,202.9816095,None,1.9733848,,,,,,,,,,,,,,,,,,,,,,,,,,,,,,,,,,,Sep30Silent1,58,2022_Sep_30_1430,ProdSingRedoBetween,2021.2.3,59.93267161
22,0,22,0,,,,,,,,,,,,,,,,,,,,,,,,,,207.4983868,None,damage,27,23,silent,yellow,205.4985824,None,space,205.4985824,None,0.9446908,,,,,,,,,,,,,,,,,,,,,,,,,,,,,,,,,,,Sep30Silent1,58,2022_Sep_30_1430,ProdSingRedoBetween,2021.2.3,59.93267161
23,0,23,0,,,,,,,,,,,,,,,,,,,,,,,,,,210.0175434,None,south,13,24,silent,yellow,208.0039506,None,space,208.0039506,None,0.8073037,,,,,,,,,,,,,,,,,,,,,,,,,,,,,,,,,,,Sep30Silent1,58,2022_Sep_30_1430,ProdSingRedoBetween,2021.2.3,59.93267161
24,0,24,0,,,,,,,,,,,,,,,,,,,,,,,,,,212.5369755,None,commercial,79,25,silent,red,210.5243755,None,space,210.5243755,None,0.7427435,,,,,,,,,,,,,,,,,,,,,,,,,,,,,,,,,,,Sep30Silent1,58,2022_Sep_30_1430,ProdSingRedoBetween,2021.2.3,59.93267161
25,0,25,0,,,,,,,,,,,,,,,,,,,,,,,,,,215.0395123,None,career,51,26,silent,blue,213.0374819,None,space,213.0374819,None,0.7176718,,,,,,,,,,,,,,,,,,,,,,,,,,,,,,,,,,,Sep30Silent1,58,2022_Sep_30_1430,ProdSingRedoBetween,2021.2.3,59.93267161
26,0,26,0,,,,,,,,,,,,,,,,,,,,,,,,,,217.5418976,None,command,32,27,silent,blue,215.5417647,None,space,215.5417647,None,0.8534906,,,,,,,,,,,,,,,,,,,,,,,,,,,,,,,,,,,Sep30Silent1,58,2022_Sep_30_1430,ProdSingRedoBetween,2021.2.3,59.93267161
27,0,27,0,,,,,,,,,,,,,,,,,,,,,,,,,,220.0443674,None,still,80,28,silent,red,218.0421888,None,space,218.0421888,None,0.6170652,,,,,,,,,,,,,,,,,,,,,,,,,,,,,,,,,,,Sep30Silent1,58,2022_Sep_30_1430,ProdSingRedoBetween,2021.2.3,59.93267161
28,0,28,0,,,,,,,,,,,,,,,,,,,,,,,,,,222.5468314,None,staff,34,29,silent,blue,220.5447381,None,space,220.5447381,None,1.6022049,,,,,,,,,,,,,,,,,,,,,,,,,,,,,,,,,,,Sep30Silent1,58,2022_Sep_30_1430,ProdSingRedoBetween,2021.2.3,59.93267161
29,0,29,0,,,,,,,,,,,,,,,,,,,,,,,,,,225.0491326,None,report,78,30,silent,red,223.0473659,None,space,223.0473659,None,1.5959412,,,,,,,,,,,,,,,,,,,,,,,,,,,,,,,,,,,Sep30Silent1,58,2022_Sep_30_1430,ProdSingRedoBetween,2021.2.3,59.93267161
30,0,30,0,,,,,,,,,,,,,,,,,,,,,,,,,,227.5520505,None,broad,84,31,silent,red,225.5514514,None,space,225.5514514,None,1.5794426,,,,,,,,,,,,,,,,,,,,,,,,,,,,,,,,,,,Sep30Silent1,58,2022_Sep_30_1430,ProdSingRedoBetween,2021.2.3,59.93267161
31,0,31,0,,,,,,,,,,,,,,,,,,,,,,,,,,230.0543913,None,disease,85,32,silent,red,228.0543565,None,space,228.0543565,None,1.0686718,,,,,,,,,,,,,,,,,,,,,,,,,,,,,,,,,,,Sep30Silent1,58,2022_Sep_30_1430,ProdSingRedoBetween,2021.2.3,59.93267161
32,0,32,0,,,,,,,,,,,,,,,,,,,,,,,,,,232.573359,None,union,56,33,silent,blue,230.558242,None,space,230.558242,None,1.1966635,,,,,,,,,,,,,,,,,,,,,,,,,,,,,,,,,,,Sep30Silent1,58,2022_Sep_30_1430,ProdSingRedoBetween,2021.2.3,59.93267161
33,0,33,0,,,,,,,,,,,,,,,,,,,,,,,,,,235.0756947,None,death,53,34,silent,blue,233.0738218,None,space,233.0738218,None,1.5851489,,,,,,,,,,,,,,,,,,,,,,,,,,,,,,,,,,,Sep30Silent1,58,2022_Sep_30_1430,ProdSingRedoBetween,2021.2.3,59.93267161
34,0,34,0,,,,,,,,,,,,,,,,,,,,,,,,,,237.5784135,None,silence,88,35,silent,red,235.576235,None,space,235.576235,None,1.1305892,,,,,,,,,,,,,,,,,,,,,,,,,,,,,,,,,,,Sep30Silent1,58,2022_Sep_30_1430,ProdSingRedoBetween,2021.2.3,59.93267161
35,0,35,0,,,,,,,,,,,,,,,,,,,,,,,,,,240.0806928,None,leader,2,36,silent,yellow,238.0788706,None,space,238.0788706,None,1.1722723,,,,,,,,,,,,,,,,,,,,,,,,,,,,,,,,,,,Sep30Silent1,58,2022_Sep_30_1430,ProdSingRedoBetween,2021.2.3,59.93267161
36,0,36,0,,,,,,,,,,,,,,,,,,,,,,,,,,242.5834608,None,substance,18,37,silent,yellow,240.5814424,None,space,240.5814424,None,1.5333994,,,,,,,,,,,,,,,,,,,,,,,,,,,,,,,,,,,Sep30Silent1,58,2022_Sep_30_1430,ProdSingRedoBetween,2021.2.3,59.93267161
37,0,37,0,,,,,,,,,,,,,,,,,,,,,,,,,,245.1027707,None,scale,71,38,silent,red,243.0881476,None,space,243.0881476,None,1.4753178,,,,,,,,,,,,,,,,,,,,,,,,,,,,,,,,,,,Sep30Silent1,58,2022_Sep_30_1430,ProdSingRedoBetween,2021.2.3,59.93267161
38,0,38,0,,,,,,,,,,,,,,,,,,,,,,,,,,247.6218767,None,course,74,39,silent,red,245.6062626,None,space,245.6062626,None,1.724706,,,,,,,,,,,,,,,,,,,,,,,,,,,,,,,,,,,Sep30Silent1,58,2022_Sep_30_1430,ProdSingRedoBetween,2021.2.3,59.93267161
39,0,39,0,,,,,,,,,,,,,,,,,,,,,,,,,,250.124332,None,present,6,40,silent,yellow,248.1223676,None,space,248.1223676,None,0.8246141,,,,,,,,,,,,,,,,,,,,,,,,,,,,,,,,,,,Sep30Silent1,58,2022_Sep_30_1430,ProdSingRedoBetween,2021.2.3,59.93267161
40,0,40,0,,,,,,,,,,,,,,,,,,,,,,,,,,252.6435497,None,court,8,41,silent,yellow,250.6337166,None,space,250.6337166,None,1.1452163,,,,,,,,,,,,,,,,,,,,,,,,,,,,,,,,,,,Sep30Silent1,58,2022_Sep_30_1430,ProdSingRedoBetween,2021.2.3,59.93267161
41,0,41,0,,,,,,,,,,,,,,,,,,,,,,,,,,255.1625595,None,enemy,33,42,silent,blue,253.15539,None,space,253.15539,None,0.92763,,,,,,,,,,,,,,,,,,,,,,,,,,,,,,,,,,,Sep30Silent1,58,2022_Sep_30_1430,ProdSingRedoBetween,2021.2.3,59.93267161
42,0,42,0,,,,,,,,,,,,,,,,,,,,,,,,,,257.6654578,None,beginning,67,43,silent,red,255.6632284,None,space,255.6632284,None,1.2676075,,,,,,,,,,,,,,,,,,,,,,,,,,,,,,,,,,,Sep30Silent1,58,2022_Sep_30_1430,ProdSingRedoBetween,2021.2.3,59.93267161
43,0,43,0,,,,,,,,,,,,,,,,,,,,,,,,,,260.1843646,None,design,16,44,silent,yellow,258.169286,None,space,258.169286,None,0.8258157,,,,,,,,,,,,,,,,,,,,,,,,,,,,,,,,,,,Sep30Silent1,58,2022_Sep_30_1430,ProdSingRedoBetween,2021.2.3,59.93267161
44,0,44,0,,,,,,,,,,,,,,,,,,,,,,,,,,262.6869263,None,strength,47,45,silent,blue,260.6847829,None,space,260.6847829,None,0.6141142,,,,,,,,,,,,,,,,,,,,,,,,,,,,,,,,,,,Sep30Silent1,58,2022_Sep_30_1430,ProdSingRedoBetween,2021.2.3,59.93267161
45,0,45,0,,,,,,,,,,,,,,,,,,,,,,,,,,265.206031,None,volume,35,46,silent,blue,263.1918655,None,space,263.1918655,None,0.7871013,,,,,,,,,,,,,,,,,,,,,,,,,,,,,,,,,,,Sep30Silent1,58,2022_Sep_30_1430,ProdSingRedoBetween,2021.2.3,59.93267161
46,0,46,0,,,,,,,,,,,,,,,,,,,,,,,,,,267.7085504,None,service,64,47,silent,red,265.7065898,None,space,265.7065898,None,0.4563587,,,,,,,,,,,,,,,,,,,,,,,,,,,,,,,,,,,Sep30Silent1,58,2022_Sep_30_1430,ProdSingRedoBetween,2021.2.3,59.93267161
47,0,47,0,,,,,,,,,,,,,,,,,,,,,,,,,,270.2111091,None,ground,36,48,silent,blue,268.2091058,None,space,268.2091058,None,0.505813,,,,,,,,,,,,,,,,,,,,,,,,,,,,,,,,,,,Sep30Silent1,58,2022_Sep_30_1430,ProdSingRedoBetween,2021.2.3,59.93267161
48,0,48,0,,,,,,,,,,,,,,,,,,,,,,,,,,272.7302484,None,store,40,49,silent,blue,270.7162468,None,space,270.7162468,None,0.5026528,,,,,,,,,,,,,,,,,,,,,,,,,,,,,,,,,,,Sep30Silent1,58,2022_Sep_30_1430,ProdSingRedoBetween,2021.2.3,59.93267161
49,0,49,0,,,,,,,,,,,,,,,,,,,,,,,,,,275.2327459,None,solution,50,50,silent,blue,273.2305544,None,space,273.2305544,None,0.5485205,,,,,,,,,,,,,,,,,,,,,,,,,,,,,,,,,,,Sep30Silent1,58,2022_Sep_30_1430,ProdSingRedoBetween,2021.2.3,59.93267161
50,0,50,0,,,,,,,,,,,,,,,,,,,,,,,,,,277.7518669,None,tragedy,63,51,silent,red,275.7381843,None,space,275.7381843,None,0.3846095,,,,,,,,,,,,,,,,,,,,,,,,,,,,,,,,,,,Sep30Silent1,58,2022_Sep_30_1430,ProdSingRedoBetween,2021.2.3,59.93267161
51,0,51,0,,,,,,,,,,,,,,,,,,,,,,,,,,280.2710545,None,property,44,52,silent,blue,278.2571821,None,space,278.2571821,None,0.5376823,,,,,,,,,,,,,,,,,,,,,,,,,,,,,,,,,,,Sep30Silent1,58,2022_Sep_30_1430,ProdSingRedoBetween,2021.2.3,59.93267161
52,0,52,0,,,,,,,,,,,,,,,,,,,,,,,,,,282.7735322,None,thing,66,53,silent,red,280.7714311,None,space,280.7714311,None,0.6716144,,,,,,,,,,,,,,,,,,,,,,,,,,,,,,,,,,,Sep30Silent1,58,2022_Sep_30_1430,ProdSingRedoBetween,2021.2.3,59.93267161
53,0,53,0,,,,,,,,,,,,,,,,,,,,,,,,,,285.292823,None,mechanical,68,54,silent,red,283.2774043,None,space,283.2774043,None,0.5094459,,,,,,,,,,,,,,,,,,,,,,,,,,,,,,,,,,,Sep30Silent1,58,2022_Sep_30_1430,ProdSingRedoBetween,2021.2.3,59.93267161
54,0,54,0,,,,,,,,,,,,,,,,,,,,,,,,,,287.7952529,None,whole,43,55,silent,blue,285.7933434,None,space,285.7933434,None,0.5215783,,,,,,,,,,,,,,,,,,,,,,,,,,,,,,,,,,,Sep30Silent1,58,2022_Sep_30_1430,ProdSingRedoBetween,2021.2.3,59.93267161
55,0,55,0,,,,,,,,,,,,,,,,,,,,,,,,,,290.2977787,None,department,28,56,silent,yellow,288.2981334,None,space,288.2981334,None,0.7049082,,,,,,,,,,,,,,,,,,,,,,,,,,,,,,,,,,,Sep30Silent1,58,2022_Sep_30_1430,ProdSingRedoBetween,2021.2.3,59.93267161
56,0,56,0,,,,,,,,,,,,,,,,,,,,,,,,,,292.8003077,None,couch,86,57,silent,red,290.7987533,None,space,290.7987533,None,1.5086383,,,,,,,,,,,,,,,,,,,,,,,,,,,,,,,,,,,Sep30Silent1,58,2022_Sep_30_1430,ProdSingRedoBetween,2021.2.3,59.93267161
57,0,57,0,,,,,,,,,,,,,,,,,,,,,,,,,,295.302782,None,story,60,58,silent,red,293.3033388,None,space,293.3033388,None,1.0355963,,,,,,,,,,,,,,,,,,,,,,,,,,,,,,,,,,,Sep30Silent1,58,2022_Sep_30_1430,ProdSingRedoBetween,2021.2.3,59.93267161
58,0,58,0,,,,,,,,,,,,,,,,,,,,,,,,,,297.8052582,None,graduate,87,59,silent,red,295.8060138,None,space,295.8060138,None,0.8369411,,,,,,,,,,,,,,,,,,,,,,,,,,,,,,,,,,,Sep30Silent1,58,2022_Sep_30_1430,ProdSingRedoBetween,2021.2.3,59.93267161
59,0,59,0,,,,,,,,,,,,,,,,,,,,,,,,,,300.3244209,None,thick,22,60,silent,yellow,298.3125334,None,space,298.3125334,None,0.7304904,,,,,,,,,,,,,,,,,,,,,,,,,,,,,,,,,,,Sep30Silent1,58,2022_Sep_30_1430,ProdSingRedoBetween,2021.2.3,59.93267161
60,0,60,0,,,,,,,,,,,,,,,,,,,,,,,,,,302.8435496,None,republic,0,61,silent,yellow,300.8298989,None,space,300.8298989,None,0.7009354,,,,,,,,,,,,,,,,,,,,,,,,,,,,,,,,,,,Sep30Silent1,58,2022_Sep_30_1430,ProdSingRedoBetween,2021.2.3,59.93267161
61,0,61,0,,,,,,,,,,,,,,,,,,,,,,,,,,305.3461003,None,accident,37,62,silent,blue,303.344112,None,space,303.344112,None,0.3950029,,,,,,,,,,,,,,,,,,,,,,,,,,,,,,,,,,,Sep30Silent1,58,2022_Sep_30_1430,ProdSingRedoBetween,2021.2.3,59.93267161
62,0,62,0,,,,,,,,,,,,,,,,,,,,,,,,,,307.8484291,None,hunger,21,63,silent,yellow,305.8470585,None,space,305.8470585,None,0.6118347,,,,,,,,,,,,,,,,,,,,,,,,,,,,,,,,,,,Sep30Silent1,58,2022_Sep_30_1430,ProdSingRedoBetween,2021.2.3,59.93267161
63,0,63,0,,,,,,,,,,,,,,,,,,,,,,,,,,310.3510488,None,season,45,64,silent,blue,308.3510722,None,space,308.3510722,None,0.3476858,,,,,,,,,,,,,,,,,,,,,,,,,,,,,,,,,,,Sep30Silent1,58,2022_Sep_30_1430,ProdSingRedoBetween,2021.2.3,59.93267161
64,0,64,0,,,,,,,,,,,,,,,,,,,,,,,,,,312.8702345,None,testimony,69,65,silent,red,310.8601816,None,space,310.8601816,None,0.4388601,,,,,,,,,,,,,,,,,,,,,,,,,,,,,,,,,,,Sep30Silent1,58,2022_Sep_30_1430,ProdSingRedoBetween,2021.2.3,59.93267161
65,0,65,0,,,,,,,,,,,,,,,,,,,,,,,,,,315.3727897,None,piece,24,66,silent,yellow,313.3736111,None,space,313.3736111,None,0.8132449,,,,,,,,,,,,,,,,,,,,,,,,,,,,,,,,,,,Sep30Silent1,58,2022_Sep_30_1430,ProdSingRedoBetween,2021.2.3,59.93267161
66,0,66,0,,,,,,,,,,,,,,,,,,,,,,,,,,317.8916268,None,signal,58,67,silent,blue,315.8840093,None,space,315.8840093,None,1.7746479,,,,,,,,,,,,,,,,,,,,,,,,,,,,,,,,,,,Sep30Silent1,58,2022_Sep_30_1430,ProdSingRedoBetween,2021.2.3,59.93267161
67,0,67,0,,,,,,,,,,,,,,,,,,,,,,,,,,320.3944562,None,narrow,75,68,silent,red,318.3924305,None,space,318.3924305,None,0.5783951,,,,,,,,,,,,,,,,,,,,,,,,,,,,,,,,,,,Sep30Silent1,58,2022_Sep_30_1430,ProdSingRedoBetween,2021.2.3,59.93267161
68,0,68,0,,,,,,,,,,,,,,,,,,,,,,,,,,322.8968786,None,device,46,69,silent,blue,320.8977622,None,space,320.8977622,None,0.4571349,,,,,,,,,,,,,,,,,,,,,,,,,,,,,,,,,,,Sep30Silent1,58,2022_Sep_30_1430,ProdSingRedoBetween,2021.2.3,59.93267161
69,0,69,0,,,,,,,,,,,,,,,,,,,,,,,,,,325.4161026,None,trial,70,70,silent,red,323.401008,None,space,323.401008,None,0.4178434,,,,,,,,,,,,,,,,,,,,,,,,,,,,,,,,,,,Sep30Silent1,58,2022_Sep_30_1430,ProdSingRedoBetween,2021.2.3,59.93267161
70,0,70,0,,,,,,,,,,,,,,,,,,,,,,,,,,327.9186222,None,quick,31,71,silent,blue,325.9165489,None,space,325.9165489,None,0.3904106,,,,,,,,,,,,,,,,,,,,,,,,,,,,,,,,,,,Sep30Silent1,58,2022_Sep_30_1430,ProdSingRedoBetween,2021.2.3,59.93267161
71,0,71,0,,,,,,,,,,,,,,,,,,,,,,,,,,330.4211111,None,poetry,26,72,silent,yellow,328.4209728,None,space,328.4209728,None,0.3020172,,,,,,,,,,,,,,,,,,,,,,,,,,,,,,,,,,,Sep30Silent1,58,2022_Sep_30_1430,ProdSingRedoBetween,2021.2.3,59.93267161
72,0,72,0,,,,,,,,,,,,,,,,,,,,,,,,,,332.9236647,None,stand,65,73,silent,red,330.9222576,None,space,330.9222576,None,0.3446005,,,,,,,,,,,,,,,,,,,,,,,,,,,,,,,,,,,Sep30Silent1,58,2022_Sep_30_1430,ProdSingRedoBetween,2021.2.3,59.93267161
73,0,73,0,,,,,,,,,,,,,,,,,,,,,,,,,,335.4428427,None,personnel,73,74,silent,red,333.4301495,None,space,333.4301495,None,0.6126375,,,,,,,,,,,,,,,,,,,,,,,,,,,,,,,,,,,Sep30Silent1,58,2022_Sep_30_1430,ProdSingRedoBetween,2021.2.3,59.93267161
74,0,74,0,,,,,,,,,,,,,,,,,,,,,,,,,,337.9452539,None,drama,72,75,silent,red,335.9432737,None,space,335.9432737,None,0.5874984,,,,,,,,,,,,,,,,,,,,,,,,,,,,,,,,,,,Sep30Silent1,58,2022_Sep_30_1430,ProdSingRedoBetween,2021.2.3,59.93267161
75,0,75,0,,,,,,,,,,,,,,,,,,,,,,,,,,340.4477986,None,drove,10,76,silent,yellow,338.4457214,None,space,338.4457214,None,0.5012966,,,,,,,,,,,,,,,,,,,,,,,,,,,,,,,,,,,Sep30Silent1,58,2022_Sep_30_1430,ProdSingRedoBetween,2021.2.3,59.93267161
76,0,76,0,,,,,,,,,,,,,,,,,,,,,,,,,,342.9502747,None,bicycle,12,77,silent,yellow,340.9501594,None,space,340.9501594,None,1.4687622,,,,,,,,,,,,,,,,,,,,,,,,,,,,,,,,,,,Sep30Silent1,58,2022_Sep_30_1430,ProdSingRedoBetween,2021.2.3,59.93267161
77,0,77,0,,,,,,,,,,,,,,,,,,,,,,,,,,345.4527719,None,dream,23,78,silent,yellow,343.4517685,None,space,343.4517685,None,0.5591932,,,,,,,,,,,,,,,,,,,,,,,,,,,,,,,,,,,Sep30Silent1,58,2022_Sep_30_1430,ProdSingRedoBetween,2021.2.3,59.93267161
78,0,78,0,,,,,,,,,,,,,,,,,,,,,,,,,,347.9553927,None,committee,77,79,silent,red,345.9538848,None,space,345.9538848,None,0.5369246,,,,,,,,,,,,,,,,,,,,,,,,,,,,,,,,,,,Sep30Silent1,58,2022_Sep_30_1430,ProdSingRedoBetween,2021.2.3,59.93267161
79,0,79,0,,,,,,,,,,,,,,,,,,,,,,,,,,350.4742946,None,school,30,80,silent,blue,348.4657293,None,space,348.4657293,None,0.5690017,,,,,,,,,,,,,,,,,,,,,,,,,,,,,,,,,,,Sep30Silent1,58,2022_Sep_30_1430,ProdSingRedoBetween,2021.2.3,59.93267161
80,0,80,0,,,,,,,,,,,,,,,,,,,,,,,,,,352.9770253,None,bureau,42,81,silent,blue,350.975711,None,space,350.975711,None,0.4192931,,,,,,,,,,,,,,,,,,,,,,,,,,,,,,,,,,,Sep30Silent1,58,2022_Sep_30_1430,ProdSingRedoBetween,2021.2.3,59.93267161
81,0,81,0,,,,,,,,,,,,,,,,,,,,,,,,,,355.496117,None,breath,61,82,silent,red,353.4886501,None,space,353.4886501,None,0.5301574,,,,,,,,,,,,,,,,,,,,,,,,,,,,,,,,,,,Sep30Silent1,58,2022_Sep_30_1430,ProdSingRedoBetween,2021.2.3,59.93267161
82,0,82,0,,,,,,,,,,,,,,,,,,,,,,,,,,357.9985516,None,dance,76,83,silent,red,355.9964677,None,space,355.9964677,None,0.3665595,,,,,,,,,,,,,,,,,,,,,,,,,,,,,,,,,,,Sep30Silent1,58,2022_Sep_30_1430,ProdSingRedoBetween,2021.2.3,59.93267161
83,0,83,0,,,,,,,,,,,,,,,,,,,,,,,,,,360.5177896,None,straight,54,84,silent,blue,358.5024115,None,space,358.5024115,None,0.4043762,,,,,,,,,,,,,,,,,,,,,,,,,,,,,,,,,,,Sep30Silent1,58,2022_Sep_30_1430,ProdSingRedoBetween,2021.2.3,59.93267161
84,0,84,0,,,,,,,,,,,,,,,,,,,,,,,,,,363.0370323,None,conference,89,85,silent,red,361.02311,None,space,361.02311,None,0.3316327,,,,,,,,,,,,,,,,,,,,,,,,,,,,,,,,,,,Sep30Silent1,58,2022_Sep_30_1430,ProdSingRedoBetween,2021.2.3,59.93267161
85,0,85,0,,,,,,,,,,,,,,,,,,,,,,,,,,365.5394738,None,generation,19,86,silent,yellow,363.538585,None,space,363.538585,None,0.2244232,,,,,,,,,,,,,,,,,,,,,,,,,,,,,,,,,,,Sep30Silent1,58,2022_Sep_30_1430,ProdSingRedoBetween,2021.2.3,59.93267161
86,0,86,0,,,,,,,,,,,,,,,,,,,,,,,,,,368.0419897,None,pretty,17,87,silent,yellow,366.0423293,None,space,366.0423293,None,0.3443872,,,,,,,,,,,,,,,,,,,,,,,,,,,,,,,,,,,Sep30Silent1,58,2022_Sep_30_1430,ProdSingRedoBetween,2021.2.3,59.93267161
87,0,87,0,,,,,,,,,,,,,,,,,,,,,,,,,,370.5611113,None,review,52,88,silent,blue,368.5494319,None,space,368.5494319,None,0.3414481,,,,,,,,,,,,,,,,,,,,,,,,,,,,,,,,,,,Sep30Silent1,58,2022_Sep_30_1430,ProdSingRedoBetween,2021.2.3,59.93267161
88,0,88,0,,,,,,,,,,,,,,,,,,,,,,,,,,373.0803662,None,murder,9,89,silent,yellow,371.0682806,None,space,371.0682806,None,0.3185818,,,,,,,,,,,,,,,,,,,,,,,,,,,,,,,,,,,Sep30Silent1,58,2022_Sep_30_1430,ProdSingRedoBetween,2021.2.3,59.93267161
89,0,89,0,,,,,,,,,,,,,,,,,,,,,,,,,,375.5828689,None,passage,41,90,silent,blue,373.581737,None,space,373.581737,None,0.4129723,,,,,,,,,,,,,,,,,,,,,,,,,,,,,,,,,,,Sep30Silent1,58,2022_Sep_30_1430,ProdSingRedoBetween,2021.2.3,59.93267161
,,,,,,,,,,,,,,,,,,,,,,,,,,,,,,,,,,,,,,,,,,376.0836244,None,k,87.2392229,376.0836244,None,,,,,,,,,,,,,,,,,,,,,,,,,,,,,Sep30Silent1,58,2022_Sep_30_1430,ProdSingRedoBetween,2021.2.3,59.93267161
,,,,0,0,0,0,,,,,,,,,,,,,,,,,,,,,,499.5776088,None,,,,,,,,,,,,,,,,,,store,40,1,silent,old,blue,463.8656864,None,463.8656864,None,1,29.6248617,463.8656864,None,29.6248617,493.5241812,None,494.0344118,None,494.0344118,None,f,5.5120155,494.0344118,None,5.5120155,,,Sep30Silent1,58,2022_Sep_30_1430,ProdSingRedoBetween,2021.2.3,59.93267161
,,,,1,0,1,0,,,,,,,,,,,,,,,,,,,,,,507.147077,None,,,,,,,,,,,,,,,,,,welcome,38,2,silent,old,blue,500.0911039,None,500.0911039,None,6,3.4553843,500.0911039,None,3.4553843,503.5789032,None,504.0961393,None,504.0961393,None,r,3.0263239,504.0961393,None,3.0263239,,,Sep30Silent1,58,2022_Sep_30_1430,ProdSingRedoBetween,2021.2.3,59.93267161
,,,,2,0,2,0,,,,,,,,,,,,,,,,,,,,,,514.1042524,None,,,,,,,,,,,,,,,,,,report,78,3,silent,old,red,507.654743,None,507.654743,None,1,2.4357501,507.654743,None,2.4357501,510.1199518,None,510.6342432,None,510.6342432,None,f,3.4402099,510.6342432,None,3.4402099,,,Sep30Silent1,58,2022_Sep_30_1430,ProdSingRedoBetween,2021.2.3,59.93267161
,,,,3,0,3,0,,,,,,,,,,,,,,,,,,,,,,518.1749822,None,,,,,,,,,,,,,,,,,,mechanical,68,4,silent,old,red,514.6074385,None,514.6074385,None,1,1.8432505,514.6074385,None,1.8432505,516.4779718,None,516.9973646,None,516.9973646,None,n,1.1571114,516.9973646,None,1.1571114,,,Sep30Silent1,58,2022_Sep_30_1430,ProdSingRedoBetween,2021.2.3,59.93267161
,,,,4,0,4,0,,,,,,,,,,,,,,,,,,,,,,525.0063661,None,,,,,,,,,,,,,,,,,,scale,71,5,silent,old,red,518.6796915,None,518.6796915,None,5,4.2747803,518.6796915,None,4.2747803,522.9833531,None,523.4970621,None,523.4970621,None,f,1.4814471,523.4970621,None,1.4814471,,,Sep30Silent1,58,2022_Sep_30_1430,ProdSingRedoBetween,2021.2.3,59.93267161
,,,,5,0,5,0,,,,,,,,,,,,,,,,,,,,,,530.9543777,None,,,,,,,,,,,,,,,,,,fight,132,6,silent,new,null,525.5243286,None,525.5243286,None,1,1.9022997,525.5243286,None,1.9022997,527.4528548,None,527.9681833,None,527.9681833,None,n,2.962542,527.9681833,None,2.962542,,,Sep30Silent1,58,2022_Sep_30_1430,ProdSingRedoBetween,2021.2.3,59.93267161
,,,,6,0,6,0,,,,,,,,,,,,,,,,,,,,,,537.7278549,None,,,,,,,,,,,,,,,,,,produce,137,7,silent,new,null,531.4579949,None,531.4579949,None,2,3.5604717,531.4579949,None,3.5604717,535.0448727,None,535.5635578,None,535.5635578,None,n,2.1429467,535.5635578,None,2.1429467,,,Sep30Silent1,58,2022_Sep_30_1430,ProdSingRedoBetween,2021.2.3,59.93267161
,,,,7,0,7,0,,,,,,,,,,,,,,,,,,,,,,541.0311018,None,,,,,,,,,,,,,,,,,,bitter,122,8,silent,new,null,538.2284977,None,538.2284977,None,1,1.4859142,538.2284977,None,1.4859142,539.7308308,None,540.2305019,None,540.2305019,None,n,0.7799926,540.2305019,None,0.7799926,,,Sep30Silent1,58,2022_Sep_30_1430,ProdSingRedoBetween,2021.2.3,59.93267161
,,,,8,0,8,0,,,,,,,,,,,,,,,,,,,,,,545.3187474,None,,,,,,,,,,,,,,,,,,write,179,9,silent,new,null,541.5366198,None,541.5366198,None,1,2.5378865,541.5366198,None,2.5378865,544.1021222,None,544.6100324,None,544.6100324,None,n,0.6804278,544.6100324,None,0.6804278,,,Sep30Silent1,58,2022_Sep_30_1430,ProdSingRedoBetween,2021.2.3,59.93267161
,,,,9,0,9,0,,,,,,,,,,,,,,,,,,,,,,548.3049451,None,,,,,,,,,,,,,,,,,,property,44,10,silent,old,blue,545.822576,None,545.822576,None,1,1.7319032,545.822576,None,1.7319032,547.5707354,None,548.0715361,None,548.0715361,None,n,0.2109064,548.0715361,None,0.2109064,,,Sep30Silent1,58,2022_Sep_30_1430,ProdSingRedoBetween,2021.2.3,59.93267161
,,,,10,0,10,0,,,,,,,,,,,,,,,,,,,,,,553.2266229,None,,,,,,,,,,,,,,,,,,smooth,164,11,silent,new,null,548.8086723,None,548.8086723,None,1,3.1297226,548.8086723,None,3.1297226,551.9599271,None,552.4598595,None,552.4598595,None,f,0.7425664,552.4598595,None,0.7425664,,,Sep30Silent1,58,2022_Sep_30_1430,ProdSingRedoBetween,2021.2.3,59.93267161
,,,,11,0,11,0,,,,,,,,,,,,,,,,,,,,,,557.4995285,None,,,,,,,,,,,,,,,,,,hearing,95,12,silent,new,null,553.733388,None,553.733388,None,1,1.7331554,553.733388,None,1.7331554,555.5027337,None,556.0128618,None,556.0128618,None,n,1.469509,556.0128618,None,1.469509,,,Sep30Silent1,58,2022_Sep_30_1430,ProdSingRedoBetween,2021.2.3,59.93267161
,,,,12,0,12,0,,,,,,,,,,,,,,,,,,,,,,562.8028166,None,,,,,,,,,,,,,,,,,,narrow,75,13,silent,old,red,558.0208998,None,558.0208998,None,6,3.1494296,558.0208998,None,3.1494296,561.2021369,None,561.7061359,None,561.7061359,None,r,1.0802401,561.7061359,None,1.0802401,,,Sep30Silent1,58,2022_Sep_30_1430,ProdSingRedoBetween,2021.2.3,59.93267161
,,,,13,0,13,0,,,,,,,,,,,,,,,,,,,,,,571.2946081,None,,,,,,,,,,,,,,,,,,thick,22,14,silent,old,yellow,563.3106241,None,563.3106241,None,1,6.4517081,563.3106241,None,6.4517081,569.7941253,None,570.2981986,None,570.2981986,None,n,0.968188,570.2981986,None,0.968188,,,Sep30Silent1,58,2022_Sep_30_1430,ProdSingRedoBetween,2021.2.3,59.93267161
,,,,14,0,14,0,,,,,,,,,,,,,,,,,,,,,,576.1161093,None,,,,,,,,,,,,,,,,,,owner,152,15,silent,new,null,571.8017924,None,571.8017924,None,3,2.8405593,571.8017924,None,2.8405593,574.664575,None,575.1682229,None,575.1682229,None,f,0.9300699,575.1682229,None,0.9300699,,,Sep30Silent1,58,2022_Sep_30_1430,ProdSingRedoBetween,2021.2.3,59.93267161
,,,,15,0,15,0,,,,,,,,,,,,,,,,,,,,,,579.852937,None,,,,,,,,,,,,,,,,,,drama,72,16,silent,old,red,576.6249688,None,576.6249688,None,1,1.4653185,576.6249688,None,1.4653185,578.1181173,None,578.6316795,None,578.6316795,None,n,1.1947046,578.6316795,None,1.1947046,,,Sep30Silent1,58,2022_Sep_30_1430,ProdSingRedoBetween,2021.2.3,59.93267161
,,,,16,0,16,0,,,,,,,,,,,,,,,,,,,,,,584.5411401,None,,,,,,,,,,,,,,,,,,range,145,17,silent,new,null,580.3554278,None,580.3554278,None,1,2.4469098,580.3554278,None,2.4469098,582.822642,None,583.3235733,None,583.3235733,None,n,1.190718,583.3235733,None,1.190718,,,Sep30Silent1,58,2022_Sep_30_1430,ProdSingRedoBetween,2021.2.3,59.93267161
,,,,17,0,17,0,,,,,,,,,,,,,,,,,,,,,,589.6796068,None,,,,,,,,,,,,,,,,,,management,174,18,silent,new,null,585.054975,None,585.054975,None,4,3.0354378,585.054975,None,3.0354378,588.1183236,None,588.6310111,None,588.6310111,None,f,1.0193265,588.6310111,None,1.0193265,,,Sep30Silent1,58,2022_Sep_30_1430,ProdSingRedoBetween,2021.2.3,59.93267161
,,,,18,0,18,0,,,,,,,,,,,,,,,,,,,,,,592.8325199,None,,,,,,,,,,,,,,,,,,straight,54,19,silent,old,blue,590.1880483,None,590.1880483,None,1,1.6462183,590.1880483,None,1.6462183,591.8661776,None,592.3723276,None,592.3723276,None,n,0.4300109,592.3723276,None,0.4300109,,,Sep30Silent1,58,2022_Sep_30_1430,ProdSingRedoBetween,2021.2.3,59.93267161
,,,,19,0,19,0,,,,,,,,,,,,,,,,,,,,,,596.7364424,None,,,,,,,,,,,,,,,,,,state,15,20,silent,old,yellow,593.341418,None,593.341418,None,1,2.18087,593.341418,None,2.18087,595.5532551,None,596.0527202,None,596.0527202,None,n,0.6616578,596.0527202,None,0.6616578,,,Sep30Silent1,58,2022_Sep_30_1430,ProdSingRedoBetween,2021.2.3,59.93267161
,,,,20,0,20,0,,,,,,,,,,,,,,,,,,,,,,601.3412655,None,,,,,,,,,,,,,,,,,,quick,31,21,silent,old,blue,597.2406933,None,597.2406933,None,6,2.0816662,597.2406933,None,2.0816662,599.3403833,None,599.8440786,None,599.8440786,None,r,1.4701948,599.8440786,None,1.4701948,,,Sep30Silent1,58,2022_Sep_30_1430,ProdSingRedoBetween,2021.2.3,59.93267161
,,,,21,0,21,0,,,,,,,,,,,,,,,,,,,,,,605.8457296,None,,,,,,,,,,,,,,,,,,court,8,22,silent,old,yellow,601.8500925,None,601.8500925,None,6,2.4721831,601.8500925,None,2.4721831,604.3440136,None,604.8513022,None,604.8513022,None,r,0.9750137,604.8513022,None,0.9750137,,,Sep30Silent1,58,2022_Sep_30_1430,ProdSingRedoBetween,2021.2.3,59.93267161
,,,,22,0,22,0,,,,,,,,,,,,,,,,,,,,,,609.3490789,None,,,,,,,,,,,,,,,,,,atmosphere,110,23,silent,new,null,606.3540907,None,606.3540907,None,1,1.4563311,606.3540907,None,1.4563311,607.8397611,None,608.3535087,None,608.3535087,None,n,0.9768777,608.3535087,None,0.9768777,,,Sep30Silent1,58,2022_Sep_30_1430,ProdSingRedoBetween,2021.2.3,59.93267161
,,,,23,0,23,0,,,,,,,,,,,,,,,,,,,,,,613.8370458,None,,,,,,,,,,,,,,,,,,graduate,87,24,silent,old,red,609.864275,None,609.864275,None,1,2.362011,609.864275,None,2.362011,612.2531006,None,612.756425,None,612.756425,None,n,1.0538203,612.756425,None,1.0538203,,,Sep30Silent1,58,2022_Sep_30_1430,ProdSingRedoBetween,2021.2.3,59.93267161
,,,,24,0,24,0,,,,,,,,,,,,,,,,,,,,,,616.7571123,None,,,,,,,,,,,,,,,,,,suggestion,25,25,silent,old,yellow,614.3376044,None,614.3376044,None,1,1.8006696,614.3376044,None,1.8006696,616.1573113,None,616.6568896,None,616.6568896,None,n,0.0813482,616.6568896,None,0.0813482,,,Sep30Silent1,58,2022_Sep_30_1430,ProdSingRedoBetween,2021.2.3,59.93267161
,,,,25,0,25,0,,,,,,,,,,,,,,,,,,,,,,622.1284301,None,,,,,,,,,,,,,,,,,,primary,168,26,silent,new,null,617.257376,None,617.257376,None,6,1.9129238,617.257376,None,1.9129238,619.1961873,None,619.713779,None,619.713779,None,r,2.3845371,619.713779,None,2.3845371,,,Sep30Silent1,58,2022_Sep_30_1430,ProdSingRedoBetween,2021.2.3,59.93267161
,,,,26,0,26,0,,,,,,,,,,,,,,,,,,,,,,627.3004871,None,,,,,,,,,,,,,,,,,,bureau,42,27,silent,old,blue,622.6299843,None,622.6299843,None,6,3.2202846,622.6299843,None,3.2202846,625.8667075,None,626.3663019,None,626.3663019,None,r,0.9159135,626.3663019,None,0.9159135,,,Sep30Silent1,58,2022_Sep_30_1430,ProdSingRedoBetween,2021.2.3,59.93267161
,,,,27,0,27,0,,,,,,,,,,,,,,,,,,,,,,631.4843739,None,,,,,,,,,,,,,,,,,,order,144,28,silent,new,null,627.8010626,None,627.8010626,None,3,2.7373182,627.8010626,None,2.7373182,630.553642,None,631.0540465,None,631.0540465,None,f,0.3881605,631.0540465,None,0.3881605,,,Sep30Silent1,58,2022_Sep_30_1430,ProdSingRedoBetween,2021.2.3,59.93267161
,,,,28,0,28,0,,,,,,,,,,,,,,,,,,,,,,634.7245612,None,,,,,,,,,,,,,,,,,,audience,104,29,silent,new,null,631.98859,None,631.98859,None,3,1.7737803,631.98859,None,1.7737803,633.7967292,None,634.307518,None,634.307518,None,f,0.3987026,634.307518,None,0.3987026,,,Sep30Silent1,58,2022_Sep_30_1430,ProdSingRedoBetween,2021.2.3,59.93267161
,,,,29,0,29,0,,,,,,,,,,,,,,,,,,,,,,638.9808371,None,,,,,,,,,,,,,,,,,,universal,163,30,silent,new,null,635.2372007,None,635.2372007,None,2,2.0370091,635.2372007,None,2.0370091,637.2968728,None,637.815378,None,637.815378,None,f,1.1469094,637.815378,None,1.1469094,,,Sep30Silent1,58,2022_Sep_30_1430,ProdSingRedoBetween,2021.2.3,59.93267161
,,,,30,0,30,0,,,,,,,,,,,,,,,,,,,,,,642.2019603,None,,,,,,,,,,,,,,,,,,weather,94,31,silent,new,null,639.4990925,None,639.4990925,None,1,1.7031482,639.4990925,None,1.7031482,641.232488,None,641.7344231,None,641.7344231,None,n,0.4437323,641.7344231,None,0.4437323,,,Sep30Silent1,58,2022_Sep_30_1430,ProdSingRedoBetween,2021.2.3,59.93267161
,,,,31,0,31,0,,,,,,,,,,,,,,,,,,,,,,646.7198515,None,,,,,,,,,,,,,,,,,,disease,85,32,silent,old,red,642.7157766,None,642.7157766,None,6,1.6864632,642.7157766,None,1.6864632,644.420631,None,644.9348103,None,644.9348103,None,r,1.7554256,644.9348103,None,1.7554256,,,Sep30Silent1,58,2022_Sep_30_1430,ProdSingRedoBetween,2021.2.3,59.93267161
,,,,32,0,32,0,,,,,,,,,,,,,,,,,,,,,,650.1399267,None,,,,,,,,,,,,,,,,,,curve,162,33,silent,new,null,647.2205679,None,647.2205679,None,1,1.605642,647.2205679,None,1.605642,648.8551221,None,649.3597704,None,649.3597704,None,n,0.7544502,649.3597704,None,0.7544502,,,Sep30Silent1,58,2022_Sep_30_1430,ProdSingRedoBetween,2021.2.3,59.93267161
,,,,33,0,33,0,,,,,,,,,,,,,,,,,,,,,,652.8440396,None,,,,,,,,,,,,,,,,,,childhood,92,34,silent,new,null,650.6465198,None,650.6465198,None,1,1.5157605,650.6465198,None,1.5157605,652.1960814,None,652.7118417,None,652.7118417,None,n,0.1144382,652.7118417,None,0.1144382,,,Sep30Silent1,58,2022_Sep_30_1430,ProdSingRedoBetween,2021.2.3,59.93267161
,,,,34,0,34,0,,,,,,,,,,,,,,,,,,,,,,657.0319584,None,,,,,,,,,,,,,,,,,,signal,58,35,silent,old,blue,653.3560971,None,653.3560971,None,6,2.2941196,653.3560971,None,2.2941196,655.6796532,None,656.1852491,None,656.1852491,None,r,0.8250359,656.1852491,None,0.8250359,,,Sep30Silent1,58,2022_Sep_30_1430,ProdSingRedoBetween,2021.2.3,59.93267161
,,,,35,0,35,0,,,,,,,,,,,,,,,,,,,,,,664.1872392,None,,,,,,,,,,,,,,,,,,passage,41,36,silent,old,blue,657.5474469,None,657.5474469,None,3,5.1187581,657.5474469,None,5.1187581,662.6886372,None,663.21057,None,663.21057,None,f,0.9595917,663.21057,None,0.9595917,,,Sep30Silent1,58,2022_Sep_30_1430,ProdSingRedoBetween,2021.2.3,59.93267161
,,,,36,0,36,0,,,,,,,,,,,,,,,,,,,,,,667.3403553,None,,,,,,,,,,,,,,,,,,growth,118,37,silent,new,null,664.6902589,None,664.6902589,None,3,1.7039526,664.6902589,None,1.7039526,666.4238092,None,666.9234446,None,666.9234446,None,f,0.3908648,666.9234446,None,0.3908648,,,Sep30Silent1,58,2022_Sep_30_1430,ProdSingRedoBetween,2021.2.3,59.93267161
,,,,37,0,37,0,,,,,,,,,,,,,,,,,,,,,,671.0441059,None,,,,,,,,,,,,,,,,,,shape,120,38,silent,new,null,667.8427569,None,667.8427569,None,6,2.2554776,667.8427569,None,2.2554776,670.12658,None,670.6271447,None,670.6271447,None,n,0.3990119,670.6271447,None,0.3990119,,,Sep30Silent1,58,2022_Sep_30_1430,ProdSingRedoBetween,2021.2.3,59.93267161
,,,,38,0,38,0,,,,,,,,,,,,,,,,,,,,,,677.7674288,None,,,,,,,,,,,,,,,,,,production,100,39,silent,new,null,671.5503157,None,671.5503157,None,6,5.2438141,671.5503157,None,5.2438141,676.8187558,None,677.3340432,None,677.3340432,None,r,0.4122479,677.3340432,None,0.4122479,,,Sep30Silent1,58,2022_Sep_30_1430,ProdSingRedoBetween,2021.2.3,59.93267161
,,,,39,0,39,0,,,,,,,,,,,,,,,,,,,,,,681.0711596,None,,,,,,,,,,,,,,,,,,tragedy,63,40,silent,old,red,678.2775657,None,678.2775657,None,6,1.8685845,678.2775657,None,1.8685845,680.1750497,None,680.6871931,None,680.6871931,None,r,0.3631025,680.6871931,None,0.3631025,,,Sep30Silent1,58,2022_Sep_30_1430,ProdSingRedoBetween,2021.2.3,59.93267161
,,,,40,0,40,0,,,,,,,,,,,,,,,,,,,,,,685.458471,None,,,,,,,,,,,,,,,,,,working,125,41,silent,new,null,681.581421,None,681.581421,None,1,1.5167681,681.581421,None,1.5167681,683.1284926,None,683.6401106,None,683.6401106,None,n,1.8020079,683.6401106,None,1.8020079,,,Sep30Silent1,58,2022_Sep_30_1430,ProdSingRedoBetween,2021.2.3,59.93267161
,,,,41,0,41,0,,,,,,,,,,,,,,,,,,,,,,688.7117397,None,,,,,,,,,,,,,,,,,,staff,34,42,silent,old,blue,685.9687031,None,685.9687031,None,1,1.6654764,685.9687031,None,1.6654764,687.663548,None,688.1811433,None,688.1811433,None,n,0.5010392,688.1811433,None,0.5010392,,,Sep30Silent1,58,2022_Sep_30_1430,ProdSingRedoBetween,2021.2.3,59.93267161
,,,,42,0,42,0,,,,,,,,,,,,,,,,,,,,,,691.4980116,None,,,,,,,,,,,,,,,,,,light,165,43,silent,new,null,689.2220307,None,689.2220307,None,1,1.2601001,689.2220307,None,1.2601001,690.5160118,None,691.0308987,None,691.0308987,None,n,0.4433177,691.0308987,None,0.4433177,,,Sep30Silent1,58,2022_Sep_30_1430,ProdSingRedoBetween,2021.2.3,59.93267161
,,,,43,0,43,0,,,,,,,,,,,,,,,,,,,,,,694.0837143,None,,,,,,,,,,,,,,,,,,sunset,141,44,silent,new,null,692.0023497,None,692.0023497,None,1,1.2557347,692.0023497,None,1.2557347,693.288164,None,693.7999517,None,693.7999517,None,n,0.2661371,693.7999517,None,0.2661371,,,Sep30Silent1,58,2022_Sep_30_1430,ProdSingRedoBetween,2021.2.3,59.93267161
,,,,44,0,44,0,,,,,,,,,,,,,,,,,,,,,,697.2869456,None,,,,,,,,,,,,,,,,,,mankind,154,45,silent,new,null,694.5849094,None,694.5849094,None,1,1.3052532,694.5849094,None,1.3052532,695.9205119,None,696.4396547,None,696.4396547,None,n,0.8264927,696.4396547,None,0.8264927,,,Sep30Silent1,58,2022_Sep_30_1430,ProdSingRedoBetween,2021.2.3,59.93267161
,,,,45,0,45,0,,,,,,,,,,,,,,,,,,,,,,701.4410554,None,,,,,,,,,,,,,,,,,,general,1,46,silent,old,yellow,697.801254,None,697.801254,None,6,1.6168881,697.801254,None,1.6168881,699.4414091,None,699.9572837,None,699.9572837,None,r,1.468854,699.9572837,None,1.468854,,,Sep30Silent1,58,2022_Sep_30_1430,ProdSingRedoBetween,2021.2.3,59.93267161
,,,,46,0,46,0,,,,,,,,,,,,,,,,,,,,,,706.9963044,None,,,,,,,,,,,,,,,,,,strain,126,47,silent,new,null,701.9543723,None,701.9543723,None,3,2.2397088,701.9543723,None,2.2397088,704.2121605,None,704.7277793,None,704.7277793,None,f,2.2422424,704.7277793,None,2.2422424,,,Sep30Silent1,58,2022_Sep_30_1430,ProdSingRedoBetween,2021.2.3,59.93267161
,,,,47,0,47,0,,,,,,,,,,,,,,,,,,,,,,710.7837353,None,,,,,,,,,,,,,,,,,,instrument,20,48,silent,old,yellow,707.4972413,None,707.4972413,None,6,1.984828,707.4972413,None,1.984828,709.5004958,None,710.0048354,None,710.0048354,None,r,0.7573332,710.0048354,None,0.7573332,,,Sep30Silent1,58,2022_Sep_30_1430,ProdSingRedoBetween,2021.2.3,59.93267161
,,,,48,0,48,0,,,,,,,,,,,,,,,,,,,,,,714.253826,None,,,,,,,,,,,,,,,,,,generation,19,49,silent,old,yellow,711.2925023,None,711.2925023,None,6,1.9336388,711.2925023,None,1.9336388,713.253351,None,713.7570359,None,713.7570359,None,r,0.4690592,713.7570359,None,0.4690592,,,Sep30Silent1,58,2022_Sep_30_1430,ProdSingRedoBetween,2021.2.3,59.93267161
,,,,49,0,49,0,,,,,,,,,,,,,,,,,,,,,,717.1400849,None,,,,,,,,,,,,,,,,,,youth,96,50,silent,new,null,714.7679644,None,714.7679644,None,1,1.5221478,714.7679644,None,1.5221478,716.3072511,None,716.8065256,None,716.8065256,None,n,0.3075222,716.8065256,None,0.3075222,,,Sep30Silent1,58,2022_Sep_30_1430,ProdSingRedoBetween,2021.2.3,59.93267161
,,,,50,0,50,0,,,,,,,,,,,,,,,,,,,,,,720.2268337,None,,,,,,,,,,,,,,,,,,pretty,17,51,silent,old,yellow,717.6474586,None,717.6474586,None,6,1.6826576,717.6474586,None,1.6826576,719.3598606,None,719.8636925,None,719.8636925,None,r,0.346431,719.8636925,None,0.346431,,,Sep30Silent1,58,2022_Sep_30_1430,ProdSingRedoBetween,2021.2.3,59.93267161
,,,,51,0,51,0,,,,,,,,,,,,,,,,,,,,,,725.0646964,None,,,,,,,,,,,,,,,,,,interview,155,52,silent,new,null,720.7400638,None,720.7400638,None,4,3.3739622,720.7400638,None,3.3739622,724.1320074,None,724.647628,None,724.647628,None,f,0.3944937,724.647628,None,0.3944937,,,Sep30Silent1,58,2022_Sep_30_1430,ProdSingRedoBetween,2021.2.3,59.93267161
,,,,52,0,52,0,,,,,,,,,,,,,,,,,,,,,,728.1677521,None,,,,,,,,,,,,,,,,,,empty,91,53,silent,new,null,725.5739649,None,725.5739649,None,4,1.7641481,725.5739649,None,1.7641481,727.371851,None,727.8882889,None,727.8882889,None,f,0.2579286,727.8882889,None,0.2579286,,,Sep30Silent1,58,2022_Sep_30_1430,ProdSingRedoBetween,2021.2.3,59.93267161
,,,,53,0,53,0,,,,,,,,,,,,,,,,,,,,,,731.904797,None,,,,,,,,,,,,,,,,,,bicycle,12,54,silent,old,yellow,728.6726916,None,728.6726916,None,1,1.505358,728.6726916,None,1.505358,730.2048707,None,730.720348,None,730.720348,None,n,1.161816,730.720348,None,1.161816,,,Sep30Silent1,58,2022_Sep_30_1430,ProdSingRedoBetween,2021.2.3,59.93267161
,,,,54,0,54,0,,,,,,,,,,,,,,,,,,,,,,735.9125891,None,,,,,,,,,,,,,,,,,,quarter,62,55,silent,old,red,732.4070291,None,732.4070291,None,6,2.5551137,732.4070291,None,2.5551137,734.9920247,None,735.4988736,None,735.4988736,None,r,0.3832424,735.4988736,None,0.3832424,,,Sep30Silent1,58,2022_Sep_30_1430,ProdSingRedoBetween,2021.2.3,59.93267161
,,,,55,0,55,0,,,,,,,,,,,,,,,,,,,,,,740.0462973,None,,,,,,,,,,,,,,,,,,gesture,55,56,silent,old,blue,736.4322843,None,736.4322843,None,6,2.6977738,736.4322843,None,2.6977738,739.1475093,None,739.6627096,None,739.6627096,None,r,0.355376,739.6627096,None,0.355376,,,Sep30Silent1,58,2022_Sep_30_1430,ProdSingRedoBetween,2021.2.3,59.93267161
,,,,56,0,56,0,,,,,,,,,,,,,,,,,,,,,,743.7499425,None,,,,,,,,,,,,,,,,,,school,30,57,silent,old,blue,740.5498047,None,740.5498047,None,2,2.2684818,740.5498047,None,2.2684818,742.8548217,None,743.3668563,None,743.3668563,None,n,0.3632326,743.3668563,None,0.3632326,,,Sep30Silent1,58,2022_Sep_30_1430,ProdSingRedoBetween,2021.2.3,59.93267161
,,,,57,0,57,0,,,,,,,,,,,,,,,,,,,,,,748.2876148,None,,,,,,,,,,,,,,,,,,count,170,58,silent,new,null,744.2505452,None,744.2505452,None,1,2.1035128,744.2505452,None,2.1035128,746.3702081,None,746.8698503,None,746.8698503,None,n,1.3962906,746.8698503,None,1.3962906,,,Sep30Silent1,58,2022_Sep_30_1430,ProdSingRedoBetween,2021.2.3,59.93267161
,,,,58,0,58,0,,,,,,,,,,,,,,,,,,,,,,751.1603061,None,,,,,,,,,,,,,,,,,,resistance,82,59,silent,old,red,748.7918416,None,748.7918416,None,6,1.6342135,748.7918416,None,1.6342135,750.4575915,None,750.9622659,None,750.9622659,None,r,0.1760704,750.9622659,None,0.1760704,,,Sep30Silent1,58,2022_Sep_30_1430,ProdSingRedoBetween,2021.2.3,59.93267161
,,,,59,0,59,0,,,,,,,,,,,,,,,,,,,,,,754.928367,None,,,,,,,,,,,,,,,,,,harmony,108,60,silent,new,null,751.6822379,None,751.6822379,None,1,2.2880569,751.6822379,None,2.2880569,754.0019255,None,754.5136258,None,754.5136258,None,n,0.3843186,754.5136258,None,0.3843186,,,Sep30Silent1,58,2022_Sep_30_1430,ProdSingRedoBetween,2021.2.3,59.93267161
,,,,60,0,60,0,,,,,,,,,,,,,,,,,,,,,,757.5470231,None,,,,,,,,,,,,,,,,,,century,123,61,silent,new,null,755.4283488,None,755.4283488,None,1,1.2456891,755.4283488,None,1.2456891,756.6974515,None,757.1968602,None,757.1968602,None,n,0.3331568,757.1968602,None,0.3331568,,,Sep30Silent1,58,2022_Sep_30_1430,ProdSingRedoBetween,2021.2.3,59.93267161
,,,,61,0,61,0,,,,,,,,,,,,,,,,,,,,,,760.0509757,None,,,,,,,,,,,,,,,,,,period,29,62,silent,old,blue,758.055535,None,758.055535,None,1,1.3066148,758.055535,None,1.3066148,759.3893363,None,759.8994713,None,759.8994713,None,n,0.1266663,759.8994713,None,0.1266663,,,Sep30Silent1,58,2022_Sep_30_1430,ProdSingRedoBetween,2021.2.3,59.93267161
,,,,62,0,62,0,,,,,,,,,,,,,,,,,,,,,,762.4519799,None,,,,,,,,,,,,,,,,,,still,80,63,silent,old,red,760.5549197,None,760.5549197,None,1,1.1831776,760.5549197,None,1.1831776,761.7749326,None,762.2852005,None,762.2852005,None,n,0.1487891,762.2852005,None,0.1487891,,,Sep30Silent1,58,2022_Sep_30_1430,ProdSingRedoBetween,2021.2.3,59.93267161
,,,,63,0,63,0,,,,,,,,,,,,,,,,,,,,,,765.3881608,None,,,,,,,,,,,,,,,,,,pressure,4,64,silent,old,yellow,762.9597771,None,762.9597771,None,6,1.5943016,762.9597771,None,1.5943016,764.5711665,None,765.0766592,None,765.0766592,None,r,0.285311,765.0766592,None,0.285311,,,Sep30Silent1,58,2022_Sep_30_1430,ProdSingRedoBetween,2021.2.3,59.93267161
,,,,64,0,64,0,,,,,,,,,,,,,,,,,,,,,,768.891682,None,,,,,,,,,,,,,,,,,,watch,107,65,silent,new,null,765.9021844,None,765.9021844,None,3,2.1158245,765.9021844,None,2.1158245,768.0421577,None,768.5414465,None,768.5414465,None,f,0.3246341,768.5414465,None,0.3246341,,,Sep30Silent1,58,2022_Sep_30_1430,ProdSingRedoBetween,2021.2.3,59.93267161
,,,,65,0,65,0,,,,,,,,,,,,,,,,,,,,,,772.6467205,None,,,,,,,,,,,,,,,,,,strength,47,66,silent,old,blue,769.3985584,None,769.3985584,None,5,2.187451,769.3985584,None,2.187451,771.6123132,None,772.1158028,None,772.1158028,None,f,0.510278,772.1158028,None,0.510278,,,Sep30Silent1,58,2022_Sep_30_1430,ProdSingRedoBetween,2021.2.3,59.93267161
,,,,66,0,66,0,,,,,,,,,,,,,,,,,,,,,,776.1488856,None,,,,,,,,,,,,,,,,,,heavy,11,67,silent,old,yellow,773.1509654,None,773.1509654,None,5,2.4030053,773.1509654,None,2.4030053,775.5833939,None,776.1003847,None,776.1003847,None,f,0.0297184,776.1003847,None,0.0297184,,,Sep30Silent1,58,2022_Sep_30_1430,ProdSingRedoBetween,2021.2.3,59.93267161
,,,,67,0,67,0,,,,,,,,,,,,,,,,,,,,,,779.3359321,None,,,,,,,,,,,,,,,,,,front,57,68,silent,old,blue,776.6563683,None,776.6563683,None,6,1.7617625,776.6563683,None,1.7617625,778.4411733,None,778.9518247,None,778.9518247,None,r,0.3542027,778.9518247,None,0.3542027,,,Sep30Silent1,58,2022_Sep_30_1430,ProdSingRedoBetween,2021.2.3,59.93267161
,,,,68,0,68,0,,,,,,,,,,,,,,,,,,,,,,783.4395027,None,,,,,,,,,,,,,,,,,,exchange,151,69,silent,new,null,779.8416652,None,779.8416652,None,3,2.2165668,779.8416652,None,2.2165668,782.0881466,None,782.5887578,None,782.5887578,None,f,0.8212706,782.5887578,None,0.8212706,,,Sep30Silent1,58,2022_Sep_30_1430,ProdSingRedoBetween,2021.2.3,59.93267161
,,,,69,0,69,0,,,,,,,,,,,,,,,,,,,,,,785.9754036,None,,,,,,,,,,,,,,,,,,trail,133,70,silent,new,null,783.9472124,None,783.9472124,None,6,1.4467751,783.9472124,None,1.4467751,785.4257313,None,785.9277711,None,785.9277711,None,r,0.0182273,785.9277711,None,0.0182273,,,Sep30Silent1,58,2022_Sep_30_1430,ProdSingRedoBetween,2021.2.3,59.93267161
,,,,70,0,70,0,,,,,,,,,,,,,,,,,,,,,,789.912579,None,,,,,,,,,,,,,,,,,,crisis,159,71,silent,new,null,786.478718,None,786.478718,None,2,2.227398,786.478718,None,2.227398,788.7365238,None,789.2500761,None,789.2500761,None,n,0.6318972,789.2500761,None,0.6318972,,,Sep30Silent1,58,2022_Sep_30_1430,ProdSingRedoBetween,2021.2.3,59.93267161
,,,,71,0,71,0,,,,,,,,,,,,,,,,,,,,,,793.850087,None,,,,,,,,,,,,,,,,,,clear,48,72,silent,old,blue,790.4192504,None,790.4192504,None,2,2.2627187,790.4192504,None,2.2627187,792.7005604,None,793.2160461,None,793.2160461,None,n,0.6101087,793.2160461,None,0.6101087,,,Sep30Silent1,58,2022_Sep_30_1430,ProdSingRedoBetween,2021.2.3,59.93267161
,,,,72,0,72,0,,,,,,,,,,,,,,,,,,,,,,797.3702967,None,,,,,,,,,,,,,,,,,,trash,114,73,silent,new,null,794.3606849,None,794.3606849,None,5,2.1373351,794.3606849,None,2.1373351,796.5226477,None,797.0364053,None,797.0364053,None,f,0.317465,797.0364053,None,0.317465,,,Sep30Silent1,58,2022_Sep_30_1430,ProdSingRedoBetween,2021.2.3,59.93267161
,,,,73,0,73,0,,,,,,,,,,,,,,,,,,,,,,800.172865,None,,,,,,,,,,,,,,,,,,health,172,74,silent,new,null,797.8705051,None,797.8705051,None,3,1.4274681,797.8705051,None,1.4274681,799.3218735,None,799.8251488,None,799.8251488,None,f,0.3207756,799.8251488,None,0.3207756,,,Sep30Silent1,58,2022_Sep_30_1430,ProdSingRedoBetween,2021.2.3,59.93267161
,,,,74,0,74,0,,,,,,,,,,,,,,,,,,,,,,802.7754864,None,,,,,,,,,,,,,,,,,,agreement,59,75,silent,old,yellow,800.6733832,None,800.6733832,None,3,1.464985,800.6733832,None,1.464985,802.171527,None,802.6797996,None,802.6797996,None,f,0.0664238,802.6797996,None,0.0664238,,,Sep30Silent1,58,2022_Sep_30_1430,ProdSingRedoBetween,2021.2.3,59.93267161
,,,,75,0,75,0,,,,,,,,,,,,,,,,,,,,,,805.4136675,None,,,,,,,,,,,,,,,,,,device,46,76,silent,old,blue,803.2788342,None,803.2788342,None,6,1.1791165,803.2788342,None,1.1791165,804.4782517,None,804.9800057,None,804.9800057,None,r,0.4060137,804.9800057,None,0.4060137,,,Sep30Silent1,58,2022_Sep_30_1430,ProdSingRedoBetween,2021.2.3,59.93267161
,,,,76,0,76,0,,,,,,,,,,,,,,,,,,,,,,809.4320693,None,,,,,,,,,,,,,,,,,,portion,130,77,silent,new,null,805.9351591,None,805.9351591,None,1,2.5867359,805.9351591,None,2.5867359,808.5485436,None,809.0576304,None,809.0576304,None,f,0.344345,809.0576304,None,0.344345,,,Sep30Silent1,58,2022_Sep_30_1430,ProdSingRedoBetween,2021.2.3,59.93267161
,,,,77,0,77,0,,,,,,,,,,,,,,,,,,,,,,814.3703806,None,,,,,,,,,,,,,,,,,,course,74,78,silent,old,red,809.9433501,None,809.9433501,None,5,3.6265939,809.9433501,None,3.6265939,813.5908154,None,814.1095021,None,814.1095021,None,f,0.2444067,814.1095021,None,0.2444067,,,Sep30Silent1,58,2022_Sep_30_1430,ProdSingRedoBetween,2021.2.3,59.93267161
,,,,78,0,78,0,,,,,,,,,,,,,,,,,,,,,,819.9975664,None,,,,,,,,,,,,,,,,,,accident,37,79,silent,old,blue,814.8780754,None,814.8780754,None,4,4.4358726,814.8780754,None,4.4358726,819.3426701,None,819.8426059,None,819.8426059,None,f,0.1193377,819.8426059,None,0.1193377,,,Sep30Silent1,58,2022_Sep_30_1430,ProdSingRedoBetween,2021.2.3,59.93267161
,,,,79,0,79,0,,,,,,,,,,,,,,,,,,,,,,823.0957341,None,,,,,,,,,,,,,,,,,,rural,176,80,silent,new,null,820.5159639,None,820.5159639,None,4,1.9019229,820.5159639,None,1.9019229,822.4457719,None,822.9453958,None,822.9453958,None,f,0.1204382,822.9453958,None,0.1204382,,,Sep30Silent1,58,2022_Sep_30_1430,ProdSingRedoBetween,2021.2.3,59.93267161
,,,,80,0,80,0,,,,,,,,,,,,,,,,,,,,,,826.3991305,None,,,,,,,,,,,,,,,,,,brilliant,99,81,silent,new,null,823.5980573,None,823.5980573,None,2,1.6118869,823.5980573,None,1.6118869,825.2321958,None,825.7318066,None,825.7318066,None,n,0.6381989,825.7318066,None,0.6381989,,,Sep30Silent1,58,2022_Sep_30_1430,ProdSingRedoBetween,2021.2.3,59.93267161
,,,,81,0,81,0,,,,,,,,,,,,,,,,,,,,,,829.1351146,None,,,,,,,,,,,,,,,,,,entrance,97,82,silent,new,null,826.9051971,None,826.9051971,None,2,1.4487187,826.9051971,None,1.4487187,828.3850124,None,828.8880364,None,828.8880364,None,n,0.2259097,828.8880364,None,0.2259097,,,Sep30Silent1,58,2022_Sep_30_1430,ProdSingRedoBetween,2021.2.3,59.93267161
,,,,82,0,82,0,,,,,,,,,,,,,,,,,,,,,,832.155041,None,,,,,,,,,,,,,,,,,,solution,50,83,silent,old,blue,829.6492019,None,829.6492019,None,3,1.7286651,829.6492019,None,1.7286651,831.4071359,None,831.9243568,None,831.9243568,None,f,0.2135971,831.9243568,None,0.2135971,,,Sep30Silent1,58,2022_Sep_30_1430,ProdSingRedoBetween,2021.2.3,59.93267161
,,,,83,0,83,0,,,,,,,,,,,,,,,,,,,,,,836.4757664,None,,,,,,,,,,,,,,,,,,republic,0,84,silent,old,yellow,832.6583527,None,832.6583527,None,1,2.9674664,832.6583527,None,2.9674664,835.6437065,None,836.1639194,None,836.1639194,None,n,0.2859415,836.1639194,None,0.2859415,,,Sep30Silent1,58,2022_Sep_30_1430,ProdSingRedoBetween,2021.2.3,59.93267161
,,,,84,0,84,0,,,,,,,,,,,,,,,,,,,,,,840.1128014,None,,,,,,,,,,,,,,,,,,smell,106,85,silent,new,null,836.9792796,None,836.9792796,None,1,2.4787094,836.9792796,None,2.4787094,839.4840715,None,839.9959835,None,839.9959835,None,n,0.1019168,839.9959835,None,0.1019168,,,Sep30Silent1,58,2022_Sep_30_1430,ProdSingRedoBetween,2021.2.3,59.93267161
,,,,85,0,85,0,,,,,,,,,,,,,,,,,,,,,,847.3365794,None,,,,,,,,,,,,,,,,,,committee,77,86,silent,old,red,840.6196594,None,840.6196594,None,1,5.7343169,840.6196594,None,5.7343169,846.3759175,None,846.8910247,None,846.8910247,None,n,0.4148626,846.8910247,None,0.4148626,,,Sep30Silent1,58,2022_Sep_30_1430,ProdSingRedoBetween,2021.2.3,59.93267161
,,,,86,0,86,0,,,,,,,,,,,,,,,,,,,,,,850.422929,None,,,,,,,,,,,,,,,,,,career,51,87,silent,old,blue,847.8461429,None,847.8461429,None,3,1.7477456,847.8461429,None,1.7477456,849.6231993,None,850.1269334,None,850.1269334,None,f,0.2670397,850.1269334,None,0.2670397,,,Sep30Silent1,58,2022_Sep_30_1430,ProdSingRedoBetween,2021.2.3,59.93267161
,,,,87,0,87,0,,,,,,,,,,,,,,,,,,,,,,854.1266838,None,,,,,,,,,,,,,,,,,,addition,150,88,silent,new,null,850.9300417,None,850.9300417,None,2,2.3039612,850.9300417,None,2.3039612,853.2625473,None,853.7849114,None,853.7849114,None,n,0.3209395,853.7849114,None,0.3209395,,,Sep30Silent1,58,2022_Sep_30_1430,ProdSingRedoBetween,2021.2.3,59.93267161
,,,,88,0,88,0,,,,,,,,,,,,,,,,,,,,,,861.8843799,None,,,,,,,,,,,,,,,,,,foundation,142,89,silent,new,null,854.63257,None,854.63257,None,3,6.5372997,854.63257,None,6.5372997,861.2013543,None,861.7009853,None,861.7009853,None,f,0.1568404,861.7009853,None,0.1568404,,,Sep30Silent1,58,2022_Sep_30_1430,ProdSingRedoBetween,2021.2.3,59.93267161
,,,,89,0,89,0,,,,,,,,,,,,,,,,,,,,,,864.9708439,None,,,,,,,,,,,,,,,,,,breath,61,90,silent,old,red,862.3955284,None,862.3955284,None,3,1.3747324,862.3955284,None,1.3747324,863.8061894,None,864.3221824,None,864.3221824,None,n,0.6316753,864.3221824,None,0.6316753,,,Sep30Silent1,58,2022_Sep_30_1430,ProdSingRedoBetween,2021.2.3,59.93267161
,,,,90,0,90,0,,,,,,,,,,,,,,,,,,,,,,868.8580717,None,,,,,,,,,,,,,,,,,,design,16,91,silent,old,yellow,865.4811001,None,865.4811001,None,6,2.3767418,865.4811001,None,2.3767418,867.8750643,None,868.3743664,None,868.3743664,None,r,0.4595206,868.3743664,None,0.4595206,,,Sep30Silent1,58,2022_Sep_30_1430,ProdSingRedoBetween,2021.2.3,59.93267161
,,,,91,0,91,0,,,,,,,,,,,,,,,,,,,,,,873.28105,None,,,,,,,,,,,,,,,,,,sight,148,92,silent,new,null,869.3597213,None,869.3597213,None,4,2.4022694,869.3597213,None,2.4022694,871.7851196,None,872.2948636,None,872.2948636,None,f,0.963328,872.2948636,None,0.963328,,,Sep30Silent1,58,2022_Sep_30_1430,ProdSingRedoBetween,2021.2.3,59.93267161
,,,,92,0,92,0,,,,,,,,,,,,,,,,,,,,,,877.1329479,None,,,,,,,,,,,,,,,,,,quantity,139,93,silent,new,null,873.8033817,None,873.8033817,None,5,2.3185881,873.8033817,None,2.3185881,876.1592556,None,876.6699642,None,876.6699642,None,f,0.4358323,876.6699642,None,0.4358323,,,Sep30Silent1,58,2022_Sep_30_1430,ProdSingRedoBetween,2021.2.3,59.93267161
,,,,93,0,93,0,,,,,,,,,,,,,,,,,,,,,,880.1720882,None,,,,,,,,,,,,,,,,,,payment,136,94,silent,new,null,877.6412169,None,877.6412169,None,2,1.6086245,877.6412169,None,1.6086245,879.2696738,None,879.7690171,None,879.7690171,None,n,0.3687783,879.7690171,None,0.3687783,,,Sep30Silent1,58,2022_Sep_30_1430,ProdSingRedoBetween,2021.2.3,59.93267161
,,,,94,0,94,0,,,,,,,,,,,,,,,,,,,,,,883.9230757,None,,,,,,,,,,,,,,,,,,guest,143,95,silent,new,null,880.6908148,None,880.6908148,None,1,2.5669091,880.6908148,None,2.5669091,883.2888516,None,883.7940301,None,883.7940301,None,n,0.1118796,883.7940301,None,0.1118796,,,Sep30Silent1,58,2022_Sep_30_1430,ProdSingRedoBetween,2021.2.3,59.93267161
,,,,95,0,95,0,,,,,,,,,,,,,,,,,,,,,,892.9652042,None,,,,,,,,,,,,,,,,,,medicine,135,96,silent,new,null,884.4341079,None,884.4341079,None,3,1.5757655,884.4341079,None,1.5757655,886.0310312,None,886.5464026,None,886.5464026,None,f,6.3994729,886.5464026,None,6.3994729,,,Sep30Silent1,58,2022_Sep_30_1430,ProdSingRedoBetween,2021.2.3,59.93267161
,,,,96,0,96,0,,,,,,,,,,,,,,,,,,,,,,896.2019591,None,,,,,,,,,,,,,,,,,,employment,103,97,silent,new,null,893.4660565,None,893.4660565,None,1,2.1757209,893.4660565,None,2.1757209,895.6692534,None,896.1770668,None,896.1770668,None,n,0.0086421,896.1770668,None,0.0086421,,,Sep30Silent1,58,2022_Sep_30_1430,ProdSingRedoBetween,2021.2.3,59.93267161
,,,,97,0,97,0,,,,,,,,,,,,,,,,,,,,,,899.0881274,None,,,,,,,,,,,,,,,,,,present,6,98,silent,old,yellow,896.7054107,None,896.7054107,None,4,1.5445835,896.7054107,None,1.5445835,898.2758828,None,898.7912068,None,898.7912068,None,f,0.2666209,898.7912068,None,0.2666209,,,Sep30Silent1,58,2022_Sep_30_1430,ProdSingRedoBetween,2021.2.3,59.93267161
,,,,98,0,98,0,,,,,,,,,,,,,,,,,,,,,,903.0754982,None,,,,,,,,,,,,,,,,,,crowd,175,99,silent,new,null,899.5988204,None,899.5988204,None,1,2.7710412,899.5988204,None,2.7710412,902.3968158,None,902.9133626,None,902.9133626,None,n,0.1443645,902.9133626,None,0.1443645,,,Sep30Silent1,58,2022_Sep_30_1430,ProdSingRedoBetween,2021.2.3,59.93267161
,,,,99,0,99,0,,,,,,,,,,,,,,,,,,,,,,905.5279047,None,,,,,,,,,,,,,,,,,,shear,109,100,silent,new,null,903.5822907,None,903.5822907,None,1,1.2355119,903.5822907,None,1.2355119,904.8452624,None,905.3476883,None,905.3476883,None,n,0.1500667,905.3476883,None,0.1500667,,,Sep30Silent1,58,2022_Sep_30_1430,ProdSingRedoBetween,2021.2.3,59.93267161
,,,,100,0,100,0,,,,,,,,,,,,,,,,,,,,,,907.9970726,None,,,,,,,,,,,,,,,,,,minor,153,101,silent,new,null,906.0357603,None,906.0357603,None,1,1.2540469,906.0357603,None,1.2540469,907.3128861,None,907.8135532,None,907.8135532,None,n,0.1645804,907.8135532,None,0.1645804,,,Sep30Silent1,58,2022_Sep_30_1430,ProdSingRedoBetween,2021.2.3,59.93267161
,,,,101,0,101,0,,,,,,,,,,,,,,,,,,,,,,910.9851918,None,,,,,,,,,,,,,,,,,,story,60,102,silent,old,red,908.4974583,None,908.4974583,None,4,1.8323625,908.4974583,None,1.8323625,910.3528917,None,910.8667311,None,910.8667311,None,f,0.0952268,910.8667311,None,0.0952268,,,Sep30Silent1,58,2022_Sep_30_1430,ProdSingRedoBetween,2021.2.3,59.93267161
,,,,102,0,102,0,,,,,,,,,,,,,,,,,,,,,,913.4624583,None,,,,,,,,,,,,,,,,,,captain,121,103,silent,new,null,911.5025912,None,911.5025912,None,1,1.3551474,911.5025912,None,1.3551474,912.8863235,None,913.3978429,None,913.3978429,None,n,0.0366118,913.3978429,None,0.0366118,,,Sep30Silent1,58,2022_Sep_30_1430,ProdSingRedoBetween,2021.2.3,59.93267161
,,,,103,0,103,0,,,,,,,,,,,,,,,,,,,,,,918.4773395,None,,,,,,,,,,,,,,,,,,finance,93,104,silent,new,null,913.9802454,None,913.9802454,None,1,1.6375207,913.9802454,None,1.6375207,915.639113,None,916.1414112,None,916.1414112,None,n,2.3084831,916.1414112,None,2.3084831,,,Sep30Silent1,58,2022_Sep_30_1430,ProdSingRedoBetween,2021.2.3,59.93267161
,,,,104,0,104,0,,,,,,,,,,,,,,,,,,,,,,921.827539,None,,,,,,,,,,,,,,,,,,month,49,105,silent,old,blue,918.9940201,None,918.9940201,None,1,1.391697,918.9940201,None,1.391697,920.4103618,None,920.9100836,None,920.9100836,None,n,0.8916723,920.9100836,None,0.8916723,,,Sep30Silent1,58,2022_Sep_30_1430,ProdSingRedoBetween,2021.2.3,59.93267161
,,,,105,0,105,0,,,,,,,,,,,,,,,,,,,,,,924.8304116,None,,,,,,,,,,,,,,,,,,title,156,106,silent,new,null,922.3379608,None,922.3379608,None,1,1.5597717,922.3379608,None,1.5597717,923.9139285,None,924.4135744,None,924.4135744,None,n,0.3881915,924.4135744,None,0.3881915,,,Sep30Silent1,58,2022_Sep_30_1430,ProdSingRedoBetween,2021.2.3,59.93267161
,,,,106,0,106,0,,,,,,,,,,,,,,,,,,,,,,932.7717552,None,,,,,,,,,,,,,,,,,,budget,149,107,silent,new,null,925.3310978,None,925.3310978,None,2,4.2785485,925.3310978,None,4.2785485,929.6363125,None,930.139849,None,930.139849,None,n,2.6059415,930.139849,None,2.6059415,,,Sep30Silent1,58,2022_Sep_30_1430,ProdSingRedoBetween,2021.2.3,59.93267161
,,,,107,0,107,0,,,,,,,,,,,,,,,,,,,,,,935.7080848,None,,,,,,,,,,,,,,,,,,command,32,108,silent,old,blue,933.2795542,None,933.2795542,None,4,1.6981531,933.2795542,None,1.6981531,935.007327,None,935.5078506,None,935.5078506,None,f,0.1819437,935.5078506,None,0.1819437,,,Sep30Silent1,58,2022_Sep_30_1430,ProdSingRedoBetween,2021.2.3,59.93267161
,,,,108,0,108,0,,,,,,,,,,,,,,,,,,,,,,938.8954215,None,,,,,,,,,,,,,,,,,,poetry,26,109,silent,old,yellow,936.2121874,None,936.2121874,None,3,2.0695518,936.2121874,None,2.0695518,938.3120658,None,938.8140835,None,938.8140835,None,f,0.0596853,938.8140835,None,0.0596853,,,Sep30Silent1,58,2022_Sep_30_1430,ProdSingRedoBetween,2021.2.3,59.93267161
,,,,109,0,109,0,,,,,,,,,,,,,,,,,,,,,,942.3477778,None,,,,,,,,,,,,,,,,,,danger,115,110,silent,new,null,939.4029891,None,939.4029891,None,1,1.4547163,939.4029891,None,1.4547163,940.8808547,None,941.38044,None,941.38044,None,n,0.9492868,941.38044,None,0.9492868,,,Sep30Silent1,58,2022_Sep_30_1430,ProdSingRedoBetween,2021.2.3,59.93267161
,,,,110,0,110,0,,,,,,,,,,,,,,,,,,,,,,945.0505307,None,,,,,,,,,,,,,,,,,,dozen,124,111,silent,new,null,942.8605177,None,942.8605177,None,1,1.4611159,942.8605177,None,1.4611159,944.3515237,None,944.867258,None,944.867258,None,n,0.1584338,944.867258,None,0.1584338,,,Sep30Silent1,58,2022_Sep_30_1430,ProdSingRedoBetween,2021.2.3,59.93267161
,,,,111,0,111,0,,,,,,,,,,,,,,,,,,,,,,948.0036493,None,,,,,,,,,,,,,,,,,,guard,161,112,silent,new,null,945.5580046,None,945.5580046,None,3,1.8436269,945.5580046,None,1.8436269,947.4222586,None,947.9402319,None,947.9402319,None,f,0.0376354,947.9402319,None,0.0376354,,,Sep30Silent1,58,2022_Sep_30_1430,ProdSingRedoBetween,2021.2.3,59.93267161
,,,,112,0,112,0,,,,,,,,,,,,,,,,,,,,,,952.5915409,None,,,,,,,,,,,,,,,,,,season,45,113,silent,old,blue,948.5145682,None,948.5145682,None,1,2.0152102,948.5145682,None,2.0152102,950.5571652,None,951.0665114,None,951.0665114,None,n,1.4952258,951.0665114,None,1.4952258,,,Sep30Silent1,58,2022_Sep_30_1430,ProdSingRedoBetween,2021.2.3,59.93267161
,,,,113,0,113,0,,,,,,,,,,,,,,,,,,,,,,955.3943374,None,,,,,,,,,,,,,,,,,,problem,14,114,silent,old,yellow,953.0949236,None,953.0949236,None,5,1.6028184,953.0949236,None,1.6028184,954.7316018,None,955.2442678,None,955.2442678,None,f,0.133395,955.2442678,None,0.133395,,,Sep30Silent1,58,2022_Sep_30_1430,ProdSingRedoBetween,2021.2.3,59.93267161
,,,,114,0,114,0,,,,,,,,,,,,,,,,,,,,,,960.5994995,None,,,,,,,,,,,,,,,,,,voice,7,115,silent,old,yellow,955.9063794,None,955.9063794,None,1,3.967301,955.9063794,None,3.967301,959.9000977,None,960.4056403,None,960.4056403,None,n,0.1720745,960.4056403,None,0.1720745,,,Sep30Silent1,58,2022_Sep_30_1430,ProdSingRedoBetween,2021.2.3,59.93267161
,,,,115,0,115,0,,,,,,,,,,,,,,,,,,,,,,963.2539458,None,,,,,,,,,,,,,,,,,,trial,70,116,silent,old,red,961.1070828,None,961.1070828,None,6,1.2785346,961.1070828,None,1.2785346,962.4189621,None,962.9286679,None,962.9286679,None,r,0.305044,962.9286679,None,0.305044,,,Sep30Silent1,58,2022_Sep_30_1430,ProdSingRedoBetween,2021.2.3,59.93267161
,,,,116,0,116,0,,,,,,,,,,,,,,,,,,,,,,966.3719421,None,,,,,,,,,,,,,,,,,,whole,43,117,silent,old,blue,963.7814441,None,963.7814441,None,1,1.6202161,963.7814441,None,1.6202161,965.4223413,None,965.9251178,None,965.9251178,None,n,0.4206277,965.9251178,None,0.4206277,,,Sep30Silent1,58,2022_Sep_30_1430,ProdSingRedoBetween,2021.2.3,59.93267161
,,,,117,0,117,0,,,,,,,,,,,,,,,,,,,,,,971.1600285,None,,,,,,,,,,,,,,,,,,under,158,118,silent,new,null,966.8741086,None,966.8741086,None,6,1.855566,966.8741086,None,1.855566,968.7576562,None,969.2636552,None,969.2636552,None,f,1.8659967,969.2636552,None,1.8659967,,,Sep30Silent1,58,2022_Sep_30_1430,ProdSingRedoBetween,2021.2.3,59.93267161
,,,,118,0,118,0,,,,,,,,,,,,,,,,,,,,,,974.0648918,None,,,,,,,,,,,,,,,,,,enemy,33,119,silent,old,blue,971.6674994,None,971.6674994,None,6,1.4542411,971.6674994,None,1.4542411,973.1505556,None,973.6626976,None,973.6626976,None,r,0.3790636,973.6626976,None,0.3790636,,,Sep30Silent1,58,2022_Sep_30_1430,ProdSingRedoBetween,2021.2.3,59.93267161
,,,,119,0,119,0,,,,,,,,,,,,,,,,,,,,,,977.4830915,None,,,,,,,,,,,,,,,,,,hunger,21,120,silent,old,yellow,974.5965026,None,974.5965026,None,6,1.5011517,974.5965026,None,1.5011517,976.1148256,None,976.6176598,None,976.6176598,None,r,0.8398564,976.6176598,None,0.8398564,,,Sep30Silent1,58,2022_Sep_30_1430,ProdSingRedoBetween,2021.2.3,59.93267161
,,,,120,0,120,0,,,,,,,,,,,,,,,,,,,,,,981.3535862,None,,,,,,,,,,,,,,,,,,symbol,167,121,silent,new,null,977.9928499,None,977.9928499,None,4,2.4968469,977.9928499,None,2.4968469,980.5225548,None,981.0365671,None,981.0365671,None,f,0.3010405,981.0365671,None,0.3010405,,,Sep30Silent1,58,2022_Sep_30_1430,ProdSingRedoBetween,2021.2.3,59.93267161
,,,,121,0,121,0,,,,,,,,,,,,,,,,,,,,,,987.8290695,None,,,,,,,,,,,,,,,,,,beginning,67,122,silent,old,red,981.8567115,None,981.8567115,None,3,4.5609825,981.8567115,None,4.5609825,986.4452299,None,986.9605077,None,986.9605077,None,f,0.8412463,986.9605077,None,0.8412463,,,Sep30Silent1,58,2022_Sep_30_1430,ProdSingRedoBetween,2021.2.3,59.93267161
,,,,122,0,122,0,,,,,,,,,,,,,,,,,,,,,,990.64617,None,,,,,,,,,,,,,,,,,,judge,166,123,silent,new,null,988.3500017,None,988.3500017,None,1,1.5556331,988.3500017,None,1.5556331,989.9300639,None,990.4293976,None,990.4293976,None,n,0.1963348,990.4293976,None,0.1963348,,,Sep30Silent1,58,2022_Sep_30_1430,ProdSingRedoBetween,2021.2.3,59.93267161
,,,,123,0,123,0,,,,,,,,,,,,,,,,,,,,,,993.0651359,None,,,,,,,,,,,,,,,,,,discovery,127,124,silent,new,null,991.150798,None,991.150798,None,6,1.2667725,991.150798,None,1.2667725,992.4497168,None,992.9653492,None,992.9653492,None,r,0.0843957,992.9653492,None,0.0843957,,,Sep30Silent1,58,2022_Sep_30_1430,ProdSingRedoBetween,2021.2.3,59.93267161
,,,,124,0,124,0,,,,,,,,,,,,,,,,,,,,,,995.5841756,None,,,,,,,,,,,,,,,,,,error,5,125,silent,old,yellow,993.5804027,None,993.5804027,None,6,1.213218,993.5804027,None,1.213218,994.8180731,None,995.3175528,None,995.3175528,None,r,0.2444085,995.3175528,None,0.2444085,,,Sep30Silent1,58,2022_Sep_30_1430,ProdSingRedoBetween,2021.2.3,59.93267161
,,,,125,0,125,0,,,,,,,,,,,,,,,,,,,,,,998.2203711,None,,,,,,,,,,,,,,,,,,scene,178,126,silent,new,null,996.0885708,None,996.0885708,None,6,0.9609098,996.0885708,None,0.9609098,997.0710912,None,997.5865767,None,997.5865767,None,r,0.6070138,997.5865767,None,0.6070138,,,Sep30Silent1,58,2022_Sep_30_1430,ProdSingRedoBetween,2021.2.3,59.93267161
,,,,126,0,126,0,,,,,,,,,,,,,,,,,,,,,,1001.291474,None,,,,,,,,,,,,,,,,,,company,102,127,silent,new,null,998.7237034,None,998.7237034,None,6,1.67002,998.7237034,None,1.67002,1000.426987,None,1000.943806,None,1000.943806,None,r,0.3299024,1000.943806,None,0.3299024,,,Sep30Silent1,58,2022_Sep_30_1430,ProdSingRedoBetween,2021.2.3,59.93267161
,,,,127,0,127,0,,,,,,,,,,,,,,,,,,,,,,1004.346524,None,,,,,,,,,,,,,,,,,,suspect,3,128,silent,old,yellow,1001.795433,None,1001.795433,None,4,1.726175,1001.795433,None,1.726175,1003.543679,None,1004.046826,None,1004.046826,None,f,0.2669081,1004.046826,None,0.2669081,,,Sep30Silent1,58,2022_Sep_30_1430,ProdSingRedoBetween,2021.2.3,59.93267161
,,,,128,0,128,0,,,,,,,,,,,,,,,,,,,,,,1007.629622,None,,,,,,,,,,,,,,,,,,death,53,129,silent,old,blue,1004.860707,None,1004.860707,None,6,1.2848252,1004.860707,None,1.2848252,1006.163242,None,1006.678805,None,1006.678805,None,f,0.9307306,1006.678805,None,0.9307306,,,Sep30Silent1,58,2022_Sep_30_1430,ProdSingRedoBetween,2021.2.3,59.93267161
,,,,129,0,129,0,,,,,,,,,,,,,,,,,,,,,,1013.068519,None,,,,,,,,,,,,,,,,,,background,128,130,silent,new,null,1008.133379,None,1008.133379,None,3,4.2602583,1008.133379,None,4.2602583,1012.423861,None,1012.939274,None,1012.939274,None,f,0.1103527,1012.939274,None,0.1103527,,,Sep30Silent1,58,2022_Sep_30_1430,ProdSingRedoBetween,2021.2.3,59.93267161
,,,,130,0,130,0,,,,,,,,,,,,,,,,,,,,,,1017.756474,None,,,,,,,,,,,,,,,,,,fashion,111,131,silent,new,null,1013.57298,None,1013.57298,None,2,1.3966476,1013.57298,None,1.3966476,1014.989729,None,1015.504412,None,1015.504412,None,f,2.2332637,1015.504412,None,2.2332637,,,Sep30Silent1,58,2022_Sep_30_1430,ProdSingRedoBetween,2021.2.3,59.93267161
,,,,131,0,131,0,,,,,,,,,,,,,,,,,,,,,,1020.675832,None,,,,,,,,,,,,,,,,,,evidence,116,132,silent,new,null,1018.26433,None,1018.26433,None,4,1.6013843,1018.26433,None,1.6013843,1019.893331,None,1020.398095,None,1020.398095,None,f,0.2515019,1020.398095,None,0.2515019,,,Sep30Silent1,58,2022_Sep_30_1430,ProdSingRedoBetween,2021.2.3,59.93267161
,,,,132,0,132,0,,,,,,,,,,,,,,,,,,,,,,1023.71258,None,,,,,,,,,,,,,,,,,,silence,88,133,silent,old,red,1021.179382,None,1021.179382,None,3,1.9262022,1021.179382,None,1.9262022,1023.129921,None,1023.636108,None,1023.636108,None,f,0.0615423,1023.636108,None,0.0615423,,,Sep30Silent1,58,2022_Sep_30_1430,ProdSingRedoBetween,2021.2.3,59.93267161
,,,,133,0,133,0,,,,,,,,,,,,,,,,,,,,,,1026.265017,None,,,,,,,,,,,,,,,,,,drove,10,134,silent,old,yellow,1024.221889,None,1024.221889,None,1,1.3718266,1024.221889,None,1.3718266,1025.622003,None,1026.131621,None,1026.131621,None,n,0.1101577,1026.131621,None,0.1101577,,,Sep30Silent1,58,2022_Sep_30_1430,ProdSingRedoBetween,2021.2.3,59.93267161
,,,,134,0,134,0,,,,,,,,,,,,,,,,,,,,,,1028.80084,None,,,,,,,,,,,,,,,,,,dream,23,135,silent,old,yellow,1026.771667,None,1026.771667,None,5,1.3819131,1026.771667,None,1.3819131,1028.183599,None,1028.684203,None,1028.684203,None,f,0.1013522,1028.684203,None,0.1013522,,,Sep30Silent1,58,2022_Sep_30_1430,ProdSingRedoBetween,2021.2.3,59.93267161
,,,,135,0,135,0,,,,,,,,,,,,,,,,,,,,,,1031.253331,None,,,,,,,,,,,,,,,,,,degree,81,136,silent,old,red,1029.310123,None,1029.310123,None,5,1.2753782,1029.310123,None,1.2753782,1030.602612,None,1031.105777,None,1031.105777,None,f,0.1197158,1031.105777,None,0.1197158,,,Sep30Silent1,58,2022_Sep_30_1430,ProdSingRedoBetween,2021.2.3,59.93267161
,,,,136,0,136,0,,,,,,,,,,,,,,,,,,,,,,1033.690844,None,,,,,,,,,,,,,,,,,,society,169,137,silent,new,null,1031.7641,None,1031.7641,None,2,1.2454454,1031.7641,None,1.2454454,1033.041324,None,1033.556502,None,1033.556502,None,n,0.1171415,1033.556502,None,0.1171415,,,Sep30Silent1,58,2022_Sep_30_1430,ProdSingRedoBetween,2021.2.3,59.93267161
,,,,137,0,137,0,,,,,,,,,,,,,,,,,,,,,,1036.860945,None,,,,,,,,,,,,,,,,,,master,147,138,silent,new,null,1034.210754,None,1034.210754,None,1,1.9267917,1034.210754,None,1.9267917,1036.160277,None,1036.681487,None,1036.681487,None,n,0.1520695,1036.681487,None,0.1520695,,,Sep30Silent1,58,2022_Sep_30_1430,ProdSingRedoBetween,2021.2.3,59.93267161
,,,,138,0,138,0,,,,,,,,,,,,,,,,,,,,,,1039.094293,None,,,,,,,,,,,,,,,,,,thing,66,139,silent,old,red,1037.376371,None,1037.376371,None,1,1.0811068,1037.376371,None,1.0811068,1038.477126,None,1038.981534,None,1038.981534,None,n,0.0841499,1038.981534,None,0.0841499,,,Sep30Silent1,58,2022_Sep_30_1430,ProdSingRedoBetween,2021.2.3,59.93267161
,,,,139,0,139,0,,,,,,,,,,,,,,,,,,,,,,1041.99738,None,,,,,,,,,,,,,,,,,,meeting,138,140,silent,new,null,1039.595135,None,1039.595135,None,1,1.574317,1039.595135,None,1.574317,1041.196588,None,1041.701539,None,1041.701539,None,n,0.275993,1041.701539,None,0.275993,,,Sep30Silent1,58,2022_Sep_30_1430,ProdSingRedoBetween,2021.2.3,59.93267161
,,,,140,0,140,0,,,,,,,,,,,,,,,,,,,,,,1046.585298,None,,,,,,,,,,,,,,,,,,review,52,141,silent,old,blue,1042.509116,None,1042.509116,None,4,2.1723046,1042.509116,None,2.1723046,1044.701659,None,1045.217416,None,1045.217416,None,f,1.3441477,1045.217416,None,1.3441477,,,Sep30Silent1,58,2022_Sep_30_1430,ProdSingRedoBetween,2021.2.3,59.93267161
,,,,141,0,141,0,,,,,,,,,,,,,,,,,,,,,,1050.005339,None,,,,,,,,,,,,,,,,,,south,13,142,silent,old,yellow,1047.096465,None,1047.096465,None,3,2.153146,1047.096465,None,2.153146,1049.272598,None,1049.775538,None,1049.775538,None,f,0.2019486,1049.775538,None,0.2019486,,,Sep30Silent1,58,2022_Sep_30_1430,ProdSingRedoBetween,2021.2.3,59.93267161
,,,,142,0,142,0,,,,,,,,,,,,,,,,,,,,,,1052.541217,None,,,,,,,,,,,,,,,,,,little,101,143,silent,new,null,1050.511961,None,1050.511961,None,1,1.1854925,1050.511961,None,1.1854925,1051.723731,None,1052.228338,None,1052.228338,None,n,0.2851838,1052.228338,None,0.2851838,,,Sep30Silent1,58,2022_Sep_30_1430,ProdSingRedoBetween,2021.2.3,59.93267161
,,,,143,0,143,0,,,,,,,,,,,,,,,,,,,,,,1055.110391,None,,,,,,,,,,,,,,,,,,junior,113,144,silent,new,null,1053.04855,None,1053.04855,None,1,1.2409676,1053.04855,None,1.2409676,1054.310883,None,1054.814495,None,1054.814495,None,n,0.2750993,1054.814495,None,0.2750993,,,Sep30Silent1,58,2022_Sep_30_1430,ProdSingRedoBetween,2021.2.3,59.93267161
,,,,144,0,144,0,,,,,,,,,,,,,,,,,,,,,,1058.347024,None,,,,,,,,,,,,,,,,,,private,134,145,silent,new,null,1055.624375,None,1055.624375,None,3,1.9291345,1055.624375,None,1.9291345,1057.580784,None,1058.091598,None,1058.091598,None,n,0.2378233,1058.091598,None,0.2378233,,,Sep30Silent1,58,2022_Sep_30_1430,ProdSingRedoBetween,2021.2.3,59.93267161
,,,,145,0,145,0,,,,,,,,,,,,,,,,,,,,,,1061.168311,None,,,,,,,,,,,,,,,,,,commercial,79,146,silent,old,red,1058.857843,None,1058.857843,None,6,1.3037004,1058.857843,None,1.3037004,1060.186703,None,1060.706135,None,1060.706135,None,r,0.4315909,1060.706135,None,0.4315909,,,Sep30Silent1,58,2022_Sep_30_1430,ProdSingRedoBetween,2021.2.3,59.93267161
,,,,146,0,146,0,,,,,,,,,,,,,,,,,,,,,,1063.972606,None,,,,,,,,,,,,,,,,,,volume,35,147,silent,old,blue,1061.694067,None,1061.694067,None,3,1.5714273,1061.694067,None,1.5714273,1063.288767,None,1063.809751,None,1063.809751,None,f,0.1356323,1063.809751,None,0.1356323,,,Sep30Silent1,58,2022_Sep_30_1430,ProdSingRedoBetween,2021.2.3,59.93267161
,,,,147,0,147,0,,,,,,,,,,,,,,,,,,,,,,1066.539007,None,,,,,,,,,,,,,,,,,,damage,27,148,silent,old,yellow,1064.494468,None,1064.494468,None,6,1.3072428,1064.494468,None,1.3072428,1065.829459,None,1066.338243,None,1066.338243,None,r,0.1833364,1066.338243,None,0.1833364,,,Sep30Silent1,58,2022_Sep_30_1430,ProdSingRedoBetween,2021.2.3,59.93267161
,,,,148,0,148,0,,,,,,,,,,,,,,,,,,,,,,1069.307884,None,,,,,,,,,,,,,,,,,,dance,76,149,silent,old,red,1067.042451,None,1067.042451,None,4,1.5910321,1067.042451,None,1.5910321,1068.657422,None,1069.157644,None,1069.157644,None,f,0.1238951,1069.157644,None,0.1238951,,,Sep30Silent1,58,2022_Sep_30_1430,ProdSingRedoBetween,2021.2.3,59.93267161
,,,,149,0,149,0,,,,,,,,,,,,,,,,,,,,,,1075.130448,None,,,,,,,,,,,,,,,,,,broad,84,150,silent,old,red,1069.808596,None,1069.808596,None,5,4.456865,1069.808596,None,4.456865,1074.296915,None,1074.799816,None,1074.799816,None,f,0.3136263,1074.799816,None,0.3136263,,,Sep30Silent1,58,2022_Sep_30_1430,ProdSingRedoBetween,2021.2.3,59.93267161
,,,,150,0,150,0,,,,,,,,,,,,,,,,,,,,,,1077.699627,None,,,,,,,,,,,,,,,,,,substance,18,151,silent,old,yellow,1075.640869,None,1075.640869,None,5,1.3765975,1075.640869,None,1.3765975,1077.033579,None,1077.536224,None,1077.536224,None,f,0.1452051,1077.536224,None,0.1452051,,,Sep30Silent1,58,2022_Sep_30_1430,ProdSingRedoBetween,2021.2.3,59.93267161
,,,,151,0,151,0,,,,,,,,,,,,,,,,,,,,,,1081.670157,None,,,,,,,,,,,,,,,,,,ground,36,152,silent,old,blue,1078.200268,None,1078.200268,None,1,2.3772417,1078.200268,None,2.3772417,1080.603505,None,1081.103251,None,1081.103251,None,n,0.5463376,1081.103251,None,0.5463376,,,Sep30Silent1,58,2022_Sep_30_1430,ProdSingRedoBetween,2021.2.3,59.93267161
,,,,152,0,152,0,,,,,,,,,,,,,,,,,,,,,,1085.435535,None,,,,,,,,,,,,,,,,,,science,177,153,silent,new,null,1082.177227,None,1082.177227,None,2,2.408335,1082.177227,None,2.408335,1084.613124,None,1085.123814,None,1085.123814,None,n,0.2777008,1085.123814,None,0.2777008,,,Sep30Silent1,58,2022_Sep_30_1430,ProdSingRedoBetween,2021.2.3,59.93267161
,,,,153,0,153,0,,,,,,,,,,,,,,,,,,,,,,1089.044237,None,,,,,,,,,,,,,,,,,,leader,2,154,silent,old,yellow,1085.963969,None,1085.963969,None,1,2.3175172,1085.963969,None,2.3175172,1088.310856,None,1088.810857,None,1088.810857,None,n,0.2066639,1088.810857,None,0.2066639,,,Sep30Silent1,58,2022_Sep_30_1430,ProdSingRedoBetween,2021.2.3,59.93267161
,,,,154,0,154,0,,,,,,,,,,,,,,,,,,,,,,1092.447699,None,,,,,,,,,,,,,,,,,,opening,131,155,silent,new,null,1089.561603,None,1089.561603,None,1,2.2478504,1089.561603,None,2.2478504,1091.831581,None,1092.337167,None,1092.337167,None,n,0.088312,1092.337167,None,0.088312,,,Sep30Silent1,58,2022_Sep_30_1430,ProdSingRedoBetween,2021.2.3,59.93267161
,,,,155,0,155,0,,,,,,,,,,,,,,,,,,,,,,1095.70095,None,,,,,,,,,,,,,,,,,,angle,105,156,silent,new,null,1092.95027,None,1092.95027,None,1,1.8273742,1092.95027,None,1.8273742,1094.806077,None,1095.318369,None,1095.318369,None,n,0.355031,1095.318369,None,0.355031,,,Sep30Silent1,58,2022_Sep_30_1430,ProdSingRedoBetween,2021.2.3,59.93267161
,,,,156,0,156,0,,,,,,,,,,,,,,,,,,,,,,1098.388309,None,,,,,,,,,,,,,,,,,,murder,9,157,silent,old,yellow,1096.209064,None,1096.209064,None,1,1.4803535,1096.209064,None,1.4803535,1097.72176,None,1098.23696,None,1098.23696,None,n,0.1326582,1098.23696,None,0.1326582,,,Sep30Silent1,58,2022_Sep_30_1430,ProdSingRedoBetween,2021.2.3,59.93267161
,,,,157,0,157,0,,,,,,,,,,,,,,,,,,,,,,1101.356441,None,,,,,,,,,,,,,,,,,,chief,140,158,silent,new,null,1098.891074,None,1098.891074,None,3,1.7343702,1098.891074,None,1.7343702,1100.655868,None,1101.164985,None,1101.164985,None,n,0.1724717,1101.164985,None,0.1724717,,,Sep30Silent1,58,2022_Sep_30_1430,ProdSingRedoBetween,2021.2.3,59.93267161
,,,,158,0,158,0,,,,,,,,,,,,,,,,,,,,,,1103.949091,None,,,,,,,,,,,,,,,,,,drink,119,159,silent,new,null,1101.85911,None,1101.85911,None,1,1.4544014,1101.85911,None,1.4544014,1103.345145,None,1103.860091,None,1103.860091,None,n,0.0535398,1103.860091,None,0.0535398,,,Sep30Silent1,58,2022_Sep_30_1430,ProdSingRedoBetween,2021.2.3,59.93267161
,,,,159,0,159,0,,,,,,,,,,,,,,,,,,,,,,1108.964168,None,,,,,,,,,,,,,,,,,,department,28,160,silent,old,yellow,1104.460263,None,1104.460263,None,1,2.8373152,1104.460263,None,2.8373152,1107.320674,None,1107.830436,None,1107.830436,None,n,1.1149928,1107.830436,None,1.1149928,,,Sep30Silent1,58,2022_Sep_30_1430,ProdSingRedoBetween,2021.2.3,59.93267161
,,,,160,0,160,0,,,,,,,,,,,,,,,,,,,,,,1112.283896,None,,,,,,,,,,,,,,,,,,shock,157,161,silent,new,null,1109.474012,None,1109.474012,None,2,1.6794198,1109.474012,None,1.6794198,1111.186671,None,1111.704309,None,1111.704309,None,n,0.561121,1111.704309,None,0.561121,,,Sep30Silent1,58,2022_Sep_30_1430,ProdSingRedoBetween,2021.2.3,59.93267161
,,,,161,0,161,0,,,,,,,,,,,,,,,,,,,,,,1115.687585,None,,,,,,,,,,,,,,,,,,charter,129,162,silent,new,null,1112.786106,None,1112.786106,None,1,2.2792855,1112.786106,None,2.2792855,1115.087928,None,1115.587695,None,1115.587695,None,n,0.0698707,1115.587695,None,0.0698707,,,Sep30Silent1,58,2022_Sep_30_1430,ProdSingRedoBetween,2021.2.3,59.93267161
,,,,162,0,162,0,,,,,,,,,,,,,,,,,,,,,,1119.574825,None,,,,,,,,,,,,,,,,,,religion,39,163,silent,old,blue,1116.197325,None,1116.197325,None,4,2.7240806,1116.197325,None,2.7240806,1118.941966,None,1119.443958,None,1119.443958,None,f,0.1015479,1119.443958,None,0.1015479,,,Sep30Silent1,58,2022_Sep_30_1430,ProdSingRedoBetween,2021.2.3,59.93267161
,,,,163,0,163,0,,,,,,,,,,,,,,,,,,,,,,1122.243908,None,,,,,,,,,,,,,,,,,,blind,117,164,silent,new,null,1120.082897,None,1120.082897,None,1,1.510463,1120.082897,None,1.510463,1121.610952,None,1122.112734,None,1122.112734,None,n,0.1126208,1122.112734,None,0.1126208,,,Sep30Silent1,58,2022_Sep_30_1430,ProdSingRedoBetween,2021.2.3,59.93267161
,,,,164,0,164,0,,,,,,,,,,,,,,,,,,,,,,1126.481878,None,,,,,,,,,,,,,,,,,,region,171,165,silent,new,null,1122.75135,None,1122.75135,None,6,2.6100514,1122.75135,None,2.6100514,1125.381355,None,1125.884605,None,1125.884605,None,f,0.5727582,1125.884605,None,0.5727582,,,Sep30Silent1,58,2022_Sep_30_1430,ProdSingRedoBetween,2021.2.3,59.93267161
,,,,165,0,165,0,,,,,,,,,,,,,,,,,,,,,,1129.417973,None,,,,,,,,,,,,,,,,,,conference,89,166,silent,old,red,1126.986934,None,1126.986934,None,4,1.8544189,1126.986934,None,1.8544189,1128.868583,None,1129.367785,None,1129.367785,None,f,0.0337121,1129.367785,None,0.0337121,,,Sep30Silent1,58,2022_Sep_30_1430,ProdSingRedoBetween,2021.2.3,59.93267161
,,,,166,0,166,0,,,,,,,,,,,,,,,,,,,,,,1131.987137,None,,,,,,,,,,,,,,,,,,stand,65,167,silent,old,red,1129.929374,None,1129.929374,None,1,1.423916,1129.929374,None,1.423916,1131.375446,None,1131.887168,None,1131.887168,None,n,0.0821632,1131.887168,None,0.0821632,,,Sep30Silent1,58,2022_Sep_30_1430,ProdSingRedoBetween,2021.2.3,59.93267161
,,,,167,0,167,0,,,,,,,,,,,,,,,,,,,,,,1136.908691,None,,,,,,,,,,,,,,,,,,couch,86,168,silent,old,red,1132.487481,None,1132.487481,None,1,3.7619239,1132.487481,None,3.7619239,1136.274518,None,1136.779719,None,1136.779719,None,n,0.1096464,1136.779719,None,0.1096464,,,Sep30Silent1,58,2022_Sep_30_1430,ProdSingRedoBetween,2021.2.3,59.93267161
,,,,168,0,168,0,,,,,,,,,,,,,,,,,,,,,,1140.616475,None,,,,,,,,,,,,,,,,,,victory,83,169,silent,old,red,1137.412509,None,1137.412509,None,1,2.5168725,1137.412509,None,2.5168725,1139.949542,None,1140.466406,None,1140.466406,None,n,0.1270398,1140.466406,None,0.1270398,,,Sep30Silent1,58,2022_Sep_30_1430,ProdSingRedoBetween,2021.2.3,59.93267161
,,,,169,0,169,0,,,,,,,,,,,,,,,,,,,,,,1144.751506,None,,,,,,,,,,,,,,,,,,number,173,170,silent,new,null,1141.135655,None,1141.135655,None,1,2.8577182,1141.135655,None,2.8577182,1144.015753,None,1144.520435,None,1144.520435,None,n,0.2010083,1144.520435,None,0.2010083,,,Sep30Silent1,58,2022_Sep_30_1430,ProdSingRedoBetween,2021.2.3,59.93267161
,,,,170,0,170,0,,,,,,,,,,,,,,,,,,,,,,1148.119845,None,,,,,,,,,,,,,,,,,,orchestra,160,171,silent,new,null,1145.26805,None,1145.26805,None,1,2.0055611,1145.26805,None,2.0055611,1147.303382,None,1147.80887,None,1147.80887,None,n,0.2885677,1147.80887,None,0.2885677,,,Sep30Silent1,58,2022_Sep_30_1430,ProdSingRedoBetween,2021.2.3,59.93267161
,,,,171,0,171,0,,,,,,,,,,,,,,,,,,,,,,1152.843768,None,,,,,,,,,,,,,,,,,,service,64,172,silent,old,red,1148.632169,None,1148.632169,None,3,2.3291448,1148.632169,None,2.3291448,1150.991497,None,1151.508166,None,1151.508166,None,f,1.3091763,1151.508166,None,1.3091763,,,Sep30Silent1,58,2022_Sep_30_1430,ProdSingRedoBetween,2021.2.3,59.93267161
,,,,172,0,172,0,,,,,,,,,,,,,,,,,,,,,,1157.629135,None,,,,,,,,,,,,,,,,,,power,98,173,silent,new,null,1153.363951,None,1153.363951,None,1,3.3655094,1153.363951,None,3.3655094,1156.754976,None,1157.262183,None,1157.262183,None,n,0.3390849,1157.262183,None,0.3390849,,,Sep30Silent1,58,2022_Sep_30_1430,ProdSingRedoBetween,2021.2.3,59.93267161
,,,,173,0,173,0,,,,,,,,,,,,,,,,,,,,,,1160.515405,None,,,,,,,,,,,,,,,,,,government,146,174,silent,new,null,1158.129952,None,1158.129952,None,1,1.5754988,1158.129952,None,1.5754988,1159.732839,None,1160.231943,None,1160.231943,None,n,0.2573987,1160.231943,None,0.2573987,,,Sep30Silent1,58,2022_Sep_30_1430,ProdSingRedoBetween,2021.2.3,59.93267161
,,,,174,0,174,0,,,,,,,,,,,,,,,,,,,,,,1166.174591,None,,,,,,,,,,,,,,,,,,union,56,175,silent,old,blue,1161.01607,None,1161.01607,None,3,4.4816002,1161.01607,None,4.4816002,1165.52153,None,1166.02995,None,1166.02995,None,f,0.1233919,1166.02995,None,0.1233919,,,Sep30Silent1,58,2022_Sep_30_1430,ProdSingRedoBetween,2021.2.3,59.93267161
,,,,175,0,175,0,,,,,,,,,,,,,,,,,,,,,,1169.274225,None,,,,,,,,,,,,,,,,,,testimony,69,176,silent,old,red,1166.695611,None,1166.695611,None,5,1.9297255,1166.695611,None,1.9297255,1168.641636,None,1169.148232,None,1169.148232,None,f,0.1090098,1169.148232,None,0.1090098,,,Sep30Silent1,58,2022_Sep_30_1430,ProdSingRedoBetween,2021.2.3,59.93267161
,,,,176,0,176,0,,,,,,,,,,,,,,,,,,,,,,1174.212379,None,,,,,,,,,,,,,,,,,,piece,24,177,silent,old,yellow,1169.780819,None,1169.780819,None,1,3.6847202,1169.780819,None,3.6847202,1173.503447,None,1174.015268,None,1174.015268,None,n,0.1700856,1174.015268,None,0.1700856,,,Sep30Silent1,58,2022_Sep_30_1430,ProdSingRedoBetween,2021.2.3,59.93267161
,,,,177,0,177,0,,,,,,,,,,,,,,,,,,,,,,1178.516636,None,,,,,,,,,,,,,,,,,,finish,90,178,silent,new,null,1174.716107,None,1174.716107,None,1,3.0771917,1174.716107,None,3.0771917,1177.817431,None,1178.316788,None,1178.316788,None,n,0.1805712,1178.316788,None,0.1805712,,,Sep30Silent1,58,2022_Sep_30_1430,ProdSingRedoBetween,2021.2.3,59.93267161
,,,,178,0,178,0,,,,,,,,,,,,,,,,,,,,,,1185.240324,None,,,,,,,,,,,,,,,,,,personnel,73,179,silent,old,red,1179.024772,None,1179.024772,None,6,5.6085795,1179.024772,None,5.6085795,1184.657484,None,1185.161938,None,1185.161938,None,r,0.0632863,1185.161938,None,0.0632863,,,Sep30Silent1,58,2022_Sep_30_1430,ProdSingRedoBetween,2021.2.3,59.93267161
,,,,179,0,179,0,,,,,,,,,,,,,,,,,,,,,,1189.462892,None,,,,,,,,,,,,,,,,,,build,112,180,silent,new,null,1185.740538,None,1185.740538,None,1,2.8447621,1185.740538,None,2.8447621,1188.61148,None,1189.116092,None,1189.116092,None,n,0.3253344,1189.116092,None,0.3253344,,,Sep30Silent1,58,2022_Sep_30_1430,ProdSingRedoBetween,2021.2.3,59.93267161
,,,,,,,,,,,,,,,,,,,,,,,,,,,,,,,,,,,,,,,,,,,,,,,,,,,,,,,,,,,,,,,,,,,,,,,,,,1189.978945,None,,,,,,
