StudyLoop.thisRepN,StudyLoop.thisTrialN,StudyLoop.thisN,StudyLoop.thisIndex,TestLoop.thisRepN,TestLoop.thisTrialN,TestLoop.thisN,TestLoop.thisIndex,textCondition.started,textCondition.stopped,keyCondition.keys,keyCondition.rt,keyCondition.started,keyCondition.stopped,Condition,textWelcome.started,textWelcome.stopped,keyWelcome.keys,keyWelcome.rt,keyWelcome.started,keyWelcome.stopped,textAloud.started,textAloud.stopped,textSilent.started,textSilent.stopped,textSing.started,textSing.stopped,conditional_text.started,conditional_text.stopped,textBlank500.started,textBlank500.stopped,study_word,study_num,study_order,study_type,word_color,textStudy.started,textStudy.stopped,keyStudy.keys,keyStudy.started,keyStudy.stopped,textTestInstructions.started,textTestInstructions.stopped,key_resp_3.keys,key_resp_3.rt,key_resp_3.started,key_resp_3.stopped,test_word,test_num,test_order,test_condition,old_new_test,test_word_original_color,textConf.started,textConf.stopped,textConfScale.started,textConfScale.stopped,keyConf.keys,keyConf.rt,keyConf.started,keyConf.stopped,confidence response time,textTestBlank.started,textTestBlank.stopped,textRKN.started,textRKN.stopped,textRKNScale.started,textRKNScale.stopped,keyRKN.keys,keyRKN.rt,keyRKN.started,keyRKN.stopped,rkn response time,textEnd.started,textEnd.stopped,participant,session,date,expName,psychopyVersion,frameRate,
,,,,,,,,20.20567880012095,None,c,3.556993099860847,20.20567880012095,None,,,,,,,,,,,,,,,,,,,,,,,,,,,,,,,,,,,,,,,,,,,,,,,,,,,,,,,,,,,,,,Sing6,001,2022_Jul_26_0959,ProdSingRedoBetween,2021.2.3,59.96375799170103,
,,,,,,,,,,,,,,SingTest,23.83514059986919,None,space,187.41519939992577,23.83514059986919,None,,,,,,,,,,,,,,,,,,,,,,,,,,,,,,,,,,,,,,,,,,,,,,,,,,,,,,,Sing6,001,2022_Jul_26_0959,ProdSingRedoBetween,2021.2.3,59.96375799170103,
0,0,0,0,,,,,,,,,,,,,,,,,,23.83514059986919,None,23.83514059986919,None,23.83514059986919,None,23.83514059986919,None,213.79192849993706,None,narrow,17,1,sing,yellow,211.79249879997224,None,None,211.79249879997224,None,,,,,,,,,,,,,,,,,,,,,,,,,,,,,,,,,,,Sing6,001,2022_Jul_26_0959,ProdSingRedoBetween,2021.2.3,59.96375799170103,
1,0,1,0,,,,,,,,,,,,,,,,,,,,,,,,,,216.31051700003445,None,appearance,71,2,sing,red,214.30566600011662,None,None,214.30566600011662,None,,,,,,,,,,,,,,,,,,,,,,,,,,,,,,,,,,,Sing6,001,2022_Jul_26_0959,ProdSingRedoBetween,2021.2.3,59.96375799170103,
2,0,2,0,,,,,,,,,,,,,,,,,,,,,,,,,,218.8297020997852,None,master,41,3,sing,blue,216.81998609984294,None,None,216.81998609984294,None,,,,,,,,,,,,,,,,,,,,,,,,,,,,,,,,,,,Sing6,001,2022_Jul_26_0959,ProdSingRedoBetween,2021.2.3,59.96375799170103,
3,0,3,0,,,,,,,,,,,,,,,,,,,,,,,,,,221.34883939987049,None,agency,77,4,sing,red,219.34084639977664,None,None,219.34084639977664,None,,,,,,,,,,,,,,,,,,,,,,,,,,,,,,,,,,,Sing6,001,2022_Jul_26_0959,ProdSingRedoBetween,2021.2.3,59.96375799170103,
4,0,4,0,,,,,,,,,,,,,,,,,,,,,,,,,,223.8680698000826,None,hunger,72,5,sing,red,221.85818170011044,None,None,221.85818170011044,None,,,,,,,,,,,,,,,,,,,,,,,,,,,,,,,,,,,Sing6,001,2022_Jul_26_0959,ProdSingRedoBetween,2021.2.3,59.96375799170103,
5,0,5,0,,,,,,,,,,,,,,,,,,,,,,,,,,226.38723869994283,None,corner,57,6,sing,blue,224.3774266000837,None,None,224.3774266000837,None,,,,,,,,,,,,,,,,,,,,,,,,,,,,,,,,,,,Sing6,001,2022_Jul_26_0959,ProdSingRedoBetween,2021.2.3,59.96375799170103,
6,0,6,0,,,,,,,,,,,,,,,,,,,,,,,,,,228.90635879989713,None,brief,16,7,sing,yellow,226.89887609984726,None,None,226.89887609984726,None,,,,,,,,,,,,,,,,,,,,,,,,,,,,,,,,,,,Sing6,001,2022_Jul_26_0959,ProdSingRedoBetween,2021.2.3,59.96375799170103,
7,0,7,0,,,,,,,,,,,,,,,,,,,,,,,,,,231.42563749989495,None,graduate,10,8,sing,yellow,229.41642879974097,None,None,229.41642879974097,None,,,,,,,,,,,,,,,,,,,,,,,,,,,,,,,,,,,Sing6,001,2022_Jul_26_0959,ProdSingRedoBetween,2021.2.3,59.96375799170103,
8,0,8,0,,,,,,,,,,,,,,,,,,,,,,,,,,233.94450929993764,None,dance,89,9,sing,red,231.93273099977523,None,None,231.93273099977523,None,,,,,,,,,,,,,,,,,,,,,,,,,,,,,,,,,,,Sing6,001,2022_Jul_26_0959,ProdSingRedoBetween,2021.2.3,59.96375799170103,
9,0,9,0,,,,,,,,,,,,,,,,,,,,,,,,,,236.4516961001791,None,treatment,48,10,sing,blue,234.4450515997596,None,None,234.4450515997596,None,,,,,,,,,,,,,,,,,,,,,,,,,,,,,,,,,,,Sing6,001,2022_Jul_26_0959,ProdSingRedoBetween,2021.2.3,59.96375799170103,
10,0,10,0,,,,,,,,,,,,,,,,,,,,,,,,,,238.98316540010273,None,raise,51,11,sing,blue,236.9734447998926,None,None,236.9734447998926,None,,,,,,,,,,,,,,,,,,,,,,,,,,,,,,,,,,,Sing6,001,2022_Jul_26_0959,ProdSingRedoBetween,2021.2.3,59.96375799170103,
11,0,11,0,,,,,,,,,,,,,,,,,,,,,,,,,,241.50229019997641,None,comedy,87,12,sing,red,239.49492029985413,None,None,239.49492029985413,None,,,,,,,,,,,,,,,,,,,,,,,,,,,,,,,,,,,Sing6,001,2022_Jul_26_0959,ProdSingRedoBetween,2021.2.3,59.96375799170103,
12,0,12,0,,,,,,,,,,,,,,,,,,,,,,,,,,244.02150220004842,None,individual,65,13,sing,red,242.019927599933,None,None,242.019927599933,None,,,,,,,,,,,,,,,,,,,,,,,,,,,,,,,,,,,Sing6,001,2022_Jul_26_0959,ProdSingRedoBetween,2021.2.3,59.96375799170103,
13,0,13,0,,,,,,,,,,,,,,,,,,,,,,,,,,246.54068870004267,None,union,1,14,sing,yellow,244.52979640010744,None,None,244.52979640010744,None,,,,,,,,,,,,,,,,,,,,,,,,,,,,,,,,,,,Sing6,001,2022_Jul_26_0959,ProdSingRedoBetween,2021.2.3,59.96375799170103,
14,0,14,0,,,,,,,,,,,,,,,,,,,,,,,,,,249.05987509991974,None,foundation,75,15,sing,red,247.05298439972103,None,None,247.05298439972103,None,,,,,,,,,,,,,,,,,,,,,,,,,,,,,,,,,,,Sing6,001,2022_Jul_26_0959,ProdSingRedoBetween,2021.2.3,59.96375799170103,
15,0,15,0,,,,,,,,,,,,,,,,,,,,,,,,,,251.56310850009322,None,ground,84,16,sing,red,249.5623094001785,None,None,249.5623094001785,None,,,,,,,,,,,,,,,,,,,,,,,,,,,,,,,,,,,Sing6,001,2022_Jul_26_0959,ProdSingRedoBetween,2021.2.3,59.96375799170103,
16,0,16,0,,,,,,,,,,,,,,,,,,,,,,,,,,254.08155519980937,None,author,14,17,sing,yellow,252.07283800002187,None,None,252.07283800002187,None,,,,,,,,,,,,,,,,,,,,,,,,,,,,,,,,,,,Sing6,001,2022_Jul_26_0959,ProdSingRedoBetween,2021.2.3,59.96375799170103,
17,0,17,0,,,,,,,,,,,,,,,,,,,,,,,,,,256.60073830001056,None,signal,53,18,sing,blue,254.5904298000969,None,None,254.5904298000969,None,,,,,,,,,,,,,,,,,,,,,,,,,,,,,,,,,,,Sing6,001,2022_Jul_26_0959,ProdSingRedoBetween,2021.2.3,59.96375799170103,
18,0,18,0,,,,,,,,,,,,,,,,,,,,,,,,,,259.11991799995303,None,break,5,19,sing,yellow,257.11488500004634,None,None,257.11488500004634,None,,,,,,,,,,,,,,,,,,,,,,,,,,,,,,,,,,,Sing6,001,2022_Jul_26_0959,ProdSingRedoBetween,2021.2.3,59.96375799170103,
19,0,19,0,,,,,,,,,,,,,,,,,,,,,,,,,,261.6391362999566,None,straight,3,20,sing,yellow,259.631317100022,None,None,259.631317100022,None,,,,,,,,,,,,,,,,,,,,,,,,,,,,,,,,,,,Sing6,001,2022_Jul_26_0959,ProdSingRedoBetween,2021.2.3,59.96375799170103,
20,0,20,0,,,,,,,,,,,,,,,,,,,,,,,,,,264.15827880008146,None,close,58,21,sing,blue,262.1503050001338,None,None,262.1503050001338,None,,,,,,,,,,,,,,,,,,,,,,,,,,,,,,,,,,,Sing6,001,2022_Jul_26_0959,ProdSingRedoBetween,2021.2.3,59.96375799170103,
21,0,21,0,,,,,,,,,,,,,,,,,,,,,,,,,,266.67746079992503,None,account,60,22,sing,red,264.6676110001281,None,None,264.6676110001281,None,,,,,,,,,,,,,,,,,,,,,,,,,,,,,,,,,,,Sing6,001,2022_Jul_26_0959,ProdSingRedoBetween,2021.2.3,59.96375799170103,
22,0,22,0,,,,,,,,,,,,,,,,,,,,,,,,,,269.1799468998797,None,republic,29,23,sing,blue,267.1777367000468,None,None,267.1777367000468,None,,,,,,,,,,,,,,,,,,,,,,,,,,,,,,,,,,,Sing6,001,2022_Jul_26_0959,ProdSingRedoBetween,2021.2.3,59.96375799170103,
23,0,23,0,,,,,,,,,,,,,,,,,,,,,,,,,,271.6992126000114,None,column,88,24,sing,red,269.6888696998358,None,None,269.6888696998358,None,,,,,,,,,,,,,,,,,,,,,,,,,,,,,,,,,,,Sing6,001,2022_Jul_26_0959,ProdSingRedoBetween,2021.2.3,59.96375799170103,
24,0,24,0,,,,,,,,,,,,,,,,,,,,,,,,,,274.21823449991643,None,principal,13,25,sing,yellow,272.21146959997714,None,None,272.21146959997714,None,,,,,,,,,,,,,,,,,,,,,,,,,,,,,,,,,,,Sing6,001,2022_Jul_26_0959,ProdSingRedoBetween,2021.2.3,59.96375799170103,
25,0,25,0,,,,,,,,,,,,,,,,,,,,,,,,,,276.73758730012923,None,election,6,26,sing,yellow,274.7286334000528,None,None,274.7286334000528,None,,,,,,,,,,,,,,,,,,,,,,,,,,,,,,,,,,,Sing6,001,2022_Jul_26_0959,ProdSingRedoBetween,2021.2.3,59.96375799170103,
26,0,26,0,,,,,,,,,,,,,,,,,,,,,,,,,,279.2641147999093,None,private,56,27,sing,blue,277.24945610016584,None,None,277.24945610016584,None,,,,,,,,,,,,,,,,,,,,,,,,,,,,,,,,,,,Sing6,001,2022_Jul_26_0959,ProdSingRedoBetween,2021.2.3,59.96375799170103,
27,0,27,0,,,,,,,,,,,,,,,,,,,,,,,,,,281.77585860015824,None,business,36,28,sing,blue,279.7691142000258,None,None,279.7691142000258,None,,,,,,,,,,,,,,,,,,,,,,,,,,,,,,,,,,,Sing6,001,2022_Jul_26_0959,ProdSingRedoBetween,2021.2.3,59.96375799170103,
28,0,28,0,,,,,,,,,,,,,,,,,,,,,,,,,,284.29494189983234,None,threat,9,29,sing,yellow,282.29736460000277,None,None,282.29736460000277,None,,,,,,,,,,,,,,,,,,,,,,,,,,,,,,,,,,,Sing6,001,2022_Jul_26_0959,ProdSingRedoBetween,2021.2.3,59.96375799170103,
29,0,29,0,,,,,,,,,,,,,,,,,,,,,,,,,,286.81416419986635,None,quantity,27,30,sing,yellow,284.8155058999546,None,None,284.8155058999546,None,,,,,,,,,,,,,,,,,,,,,,,,,,,,,,,,,,,Sing6,001,2022_Jul_26_0959,ProdSingRedoBetween,2021.2.3,59.96375799170103,
30,0,30,0,,,,,,,,,,,,,,,,,,,,,,,,,,289.3334129001014,None,contract,34,31,sing,blue,287.32249719975516,None,None,287.32249719975516,None,,,,,,,,,,,,,,,,,,,,,,,,,,,,,,,,,,,Sing6,001,2022_Jul_26_0959,ProdSingRedoBetween,2021.2.3,59.96375799170103,
31,0,31,0,,,,,,,,,,,,,,,,,,,,,,,,,,291.85259580006823,None,display,25,32,sing,yellow,289.843934699893,None,None,289.843934699893,None,,,,,,,,,,,,,,,,,,,,,,,,,,,,,,,,,,,Sing6,001,2022_Jul_26_0959,ProdSingRedoBetween,2021.2.3,59.96375799170103,
32,0,32,0,,,,,,,,,,,,,,,,,,,,,,,,,,294.3717771000229,None,testimony,46,33,sing,blue,292.3645155997947,None,None,292.3645155997947,None,,,,,,,,,,,,,,,,,,,,,,,,,,,,,,,,,,,Sing6,001,2022_Jul_26_0959,ProdSingRedoBetween,2021.2.3,59.96375799170103,
33,0,33,0,,,,,,,,,,,,,,,,,,,,,,,,,,296.89079809980467,None,pancakes,66,34,sing,red,294.88417219975963,None,None,294.88417219975963,None,,,,,,,,,,,,,,,,,,,,,,,,,,,,,,,,,,,Sing6,001,2022_Jul_26_0959,ProdSingRedoBetween,2021.2.3,59.96375799170103,
34,0,34,0,,,,,,,,,,,,,,,,,,,,,,,,,,299.39329010015354,None,phrase,0,35,sing,yellow,297.3911521001719,None,None,297.3911521001719,None,,,,,,,,,,,,,,,,,,,,,,,,,,,,,,,,,,,Sing6,001,2022_Jul_26_0959,ProdSingRedoBetween,2021.2.3,59.96375799170103,
35,0,35,0,,,,,,,,,,,,,,,,,,,,,,,,,,301.89598619984463,None,government,18,36,sing,yellow,299.8960959999822,None,None,299.8960959999822,None,,,,,,,,,,,,,,,,,,,,,,,,,,,,,,,,,,,Sing6,001,2022_Jul_26_0959,ProdSingRedoBetween,2021.2.3,59.96375799170103,
36,0,36,0,,,,,,,,,,,,,,,,,,,,,,,,,,304.41517279995605,None,atmosphere,85,37,sing,red,302.40939779998735,None,None,302.40939779998735,None,,,,,,,,,,,,,,,,,,,,,,,,,,,,,,,,,,,Sing6,001,2022_Jul_26_0959,ProdSingRedoBetween,2021.2.3,59.96375799170103,
37,0,37,0,,,,,,,,,,,,,,,,,,,,,,,,,,306.9342458001338,None,curve,64,38,sing,red,304.92390620009974,None,None,304.92390620009974,None,,,,,,,,,,,,,,,,,,,,,,,,,,,,,,,,,,,Sing6,001,2022_Jul_26_0959,ProdSingRedoBetween,2021.2.3,59.96375799170103,
38,0,38,0,,,,,,,,,,,,,,,,,,,,,,,,,,309.4534971001558,None,welcome,78,39,sing,red,307.44353589974344,None,None,307.44353589974344,None,,,,,,,,,,,,,,,,,,,,,,,,,,,,,,,,,,,Sing6,001,2022_Jul_26_0959,ProdSingRedoBetween,2021.2.3,59.96375799170103,
39,0,39,0,,,,,,,,,,,,,,,,,,,,,,,,,,311.9725283998996,None,suspect,43,40,sing,blue,309.9614536999725,None,None,309.9614536999725,None,,,,,,,,,,,,,,,,,,,,,,,,,,,,,,,,,,,Sing6,001,2022_Jul_26_0959,ProdSingRedoBetween,2021.2.3,59.96375799170103,
40,0,40,0,,,,,,,,,,,,,,,,,,,,,,,,,,314.49186339974403,None,trail,20,41,sing,yellow,312.47948390012607,None,None,312.47948390012607,None,,,,,,,,,,,,,,,,,,,,,,,,,,,,,,,,,,,Sing6,001,2022_Jul_26_0959,ProdSingRedoBetween,2021.2.3,59.96375799170103,
41,0,41,0,,,,,,,,,,,,,,,,,,,,,,,,,,317.0110428999178,None,patient,70,42,sing,red,315.0009400001727,None,None,315.0009400001727,None,,,,,,,,,,,,,,,,,,,,,,,,,,,,,,,,,,,Sing6,001,2022_Jul_26_0959,ProdSingRedoBetween,2021.2.3,59.96375799170103,
42,0,42,0,,,,,,,,,,,,,,,,,,,,,,,,,,319.530237799976,None,period,31,43,sing,blue,317.52042859978974,None,None,317.52042859978974,None,,,,,,,,,,,,,,,,,,,,,,,,,,,,,,,,,,,Sing6,001,2022_Jul_26_0959,ProdSingRedoBetween,2021.2.3,59.96375799170103,
43,0,43,0,,,,,,,,,,,,,,,,,,,,,,,,,,322.0494157001376,None,staff,42,44,sing,blue,320.0406646998599,None,None,320.0406646998599,None,,,,,,,,,,,,,,,,,,,,,,,,,,,,,,,,,,,Sing6,001,2022_Jul_26_0959,ProdSingRedoBetween,2021.2.3,59.96375799170103,
44,0,44,0,,,,,,,,,,,,,,,,,,,,,,,,,,324.5685970997438,None,touch,83,45,sing,red,322.55666919983923,None,None,322.55666919983923,None,,,,,,,,,,,,,,,,,,,,,,,,,,,,,,,,,,,Sing6,001,2022_Jul_26_0959,ProdSingRedoBetween,2021.2.3,59.96375799170103,
45,0,45,0,,,,,,,,,,,,,,,,,,,,,,,,,,327.0877326000482,None,trial,86,46,sing,red,325.077835300006,None,None,325.077835300006,None,,,,,,,,,,,,,,,,,,,,,,,,,,,,,,,,,,,Sing6,001,2022_Jul_26_0959,ProdSingRedoBetween,2021.2.3,59.96375799170103,
46,0,46,0,,,,,,,,,,,,,,,,,,,,,,,,,,329.60697990003973,None,command,8,47,sing,yellow,327.5981060001068,None,None,327.5981060001068,None,,,,,,,,,,,,,,,,,,,,,,,,,,,,,,,,,,,Sing6,001,2022_Jul_26_0959,ProdSingRedoBetween,2021.2.3,59.96375799170103,
47,0,47,0,,,,,,,,,,,,,,,,,,,,,,,,,,332.1261338000186,None,substance,40,48,sing,blue,330.11793609987944,None,None,330.11793609987944,None,,,,,,,,,,,,,,,,,,,,,,,,,,,,,,,,,,,Sing6,001,2022_Jul_26_0959,ProdSingRedoBetween,2021.2.3,59.96375799170103,
48,0,48,0,,,,,,,,,,,,,,,,,,,,,,,,,,334.6293907999061,None,shear,26,49,sing,yellow,332.62630849983543,None,None,332.62630849983543,None,,,,,,,,,,,,,,,,,,,,,,,,,,,,,,,,,,,Sing6,001,2022_Jul_26_0959,ProdSingRedoBetween,2021.2.3,59.96375799170103,
49,0,49,0,,,,,,,,,,,,,,,,,,,,,,,,,,337.14778830017895,None,chief,4,50,sing,yellow,335.14095829986036,None,None,335.14095829986036,None,,,,,,,,,,,,,,,,,,,,,,,,,,,,,,,,,,,Sing6,001,2022_Jul_26_0959,ProdSingRedoBetween,2021.2.3,59.96375799170103,
50,0,50,0,,,,,,,,,,,,,,,,,,,,,,,,,,339.6670192000456,None,discovery,50,51,sing,blue,337.6638755998574,None,None,337.6638755998574,None,,,,,,,,,,,,,,,,,,,,,,,,,,,,,,,,,,,Sing6,001,2022_Jul_26_0959,ProdSingRedoBetween,2021.2.3,59.96375799170103,
51,0,51,0,,,,,,,,,,,,,,,,,,,,,,,,,,342.18617999972776,None,stranger,82,52,sing,red,340.1771080000326,None,None,340.1771080000326,None,,,,,,,,,,,,,,,,,,,,,,,,,,,,,,,,,,,Sing6,001,2022_Jul_26_0959,ProdSingRedoBetween,2021.2.3,59.96375799170103,
52,0,52,0,,,,,,,,,,,,,,,,,,,,,,,,,,344.6885898998007,None,bitter,73,53,sing,red,342.68774149985984,None,None,342.68774149985984,None,,,,,,,,,,,,,,,,,,,,,,,,,,,,,,,,,,,Sing6,001,2022_Jul_26_0959,ProdSingRedoBetween,2021.2.3,59.96375799170103,
53,0,53,0,,,,,,,,,,,,,,,,,,,,,,,,,,347.2078856998123,None,cross,15,54,sing,yellow,345.2013061000034,None,None,345.2013061000034,None,,,,,,,,,,,,,,,,,,,,,,,,,,,,,,,,,,,Sing6,001,2022_Jul_26_0959,ProdSingRedoBetween,2021.2.3,59.96375799170103,
54,0,54,0,,,,,,,,,,,,,,,,,,,,,,,,,,349.72704999987036,None,smooth,67,55,sing,red,347.718159600161,None,None,347.718159600161,None,,,,,,,,,,,,,,,,,,,,,,,,,,,,,,,,,,,Sing6,001,2022_Jul_26_0959,ProdSingRedoBetween,2021.2.3,59.96375799170103,
55,0,55,0,,,,,,,,,,,,,,,,,,,,,,,,,,352.24622710002586,None,working,62,56,sing,red,350.2414751998149,None,None,350.2414751998149,None,,,,,,,,,,,,,,,,,,,,,,,,,,,,,,,,,,,Sing6,001,2022_Jul_26_0959,ProdSingRedoBetween,2021.2.3,59.96375799170103,
56,0,56,0,,,,,,,,,,,,,,,,,,,,,,,,,,354.76536819990724,None,damage,7,57,sing,yellow,352.7524596997537,None,None,352.7524596997537,None,,,,,,,,,,,,,,,,,,,,,,,,,,,,,,,,,,,Sing6,001,2022_Jul_26_0959,ProdSingRedoBetween,2021.2.3,59.96375799170103,
57,0,57,0,,,,,,,,,,,,,,,,,,,,,,,,,,357.28451939998195,None,drink,59,58,sing,yellow,355.27674929983914,None,None,355.27674929983914,None,,,,,,,,,,,,,,,,,,,,,,,,,,,,,,,,,,,Sing6,001,2022_Jul_26_0959,ProdSingRedoBetween,2021.2.3,59.96375799170103,
58,0,58,0,,,,,,,,,,,,,,,,,,,,,,,,,,359.80379749974236,None,detective,37,59,sing,blue,357.79539049975574,None,None,357.79539049975574,None,,,,,,,,,,,,,,,,,,,,,,,,,,,,,,,,,,,Sing6,001,2022_Jul_26_0959,ProdSingRedoBetween,2021.2.3,59.96375799170103,
59,0,59,0,,,,,,,,,,,,,,,,,,,,,,,,,,362.3235488999635,None,clear,12,60,sing,yellow,360.3097188998945,None,None,360.3097188998945,None,,,,,,,,,,,,,,,,,,,,,,,,,,,,,,,,,,,Sing6,001,2022_Jul_26_0959,ProdSingRedoBetween,2021.2.3,59.96375799170103,
60,0,60,0,,,,,,,,,,,,,,,,,,,,,,,,,,364.82544599985704,None,medicine,24,61,sing,yellow,362.8231163001619,None,None,362.8231163001619,None,,,,,,,,,,,,,,,,,,,,,,,,,,,,,,,,,,,Sing6,001,2022_Jul_26_0959,ProdSingRedoBetween,2021.2.3,59.96375799170103,
61,0,61,0,,,,,,,,,,,,,,,,,,,,,,,,,,367.3446507998742,None,strength,23,62,sing,yellow,365.33631310006604,None,None,365.33631310006604,None,,,,,,,,,,,,,,,,,,,,,,,,,,,,,,,,,,,Sing6,001,2022_Jul_26_0959,ProdSingRedoBetween,2021.2.3,59.96375799170103,
62,0,62,0,,,,,,,,,,,,,,,,,,,,,,,,,,369.8638149998151,None,council,80,63,sing,red,367.8536387998611,None,None,367.8536387998611,None,,,,,,,,,,,,,,,,,,,,,,,,,,,,,,,,,,,Sing6,001,2022_Jul_26_0959,ProdSingRedoBetween,2021.2.3,59.96375799170103,
63,0,63,0,,,,,,,,,,,,,,,,,,,,,,,,,,372.38293209997937,None,character,54,64,sing,blue,370.3712245998904,None,None,370.3712245998904,None,,,,,,,,,,,,,,,,,,,,,,,,,,,,,,,,,,,Sing6,001,2022_Jul_26_0959,ProdSingRedoBetween,2021.2.3,59.96375799170103,
64,0,64,0,,,,,,,,,,,,,,,,,,,,,,,,,,374.902206200175,None,fight,47,65,sing,blue,372.89452670002356,None,None,372.89452670002356,None,,,,,,,,,,,,,,,,,,,,,,,,,,,,,,,,,,,Sing6,001,2022_Jul_26_0959,ProdSingRedoBetween,2021.2.3,59.96375799170103,
65,0,65,0,,,,,,,,,,,,,,,,,,,,,,,,,,377.40460749994963,None,salary,19,66,sing,yellow,375.40234290016815,None,None,375.40234290016815,None,,,,,,,,,,,,,,,,,,,,,,,,,,,,,,,,,,,Sing6,001,2022_Jul_26_0959,ProdSingRedoBetween,2021.2.3,59.96375799170103,
66,0,66,0,,,,,,,,,,,,,,,,,,,,,,,,,,379.9238740000874,None,beauty,39,67,sing,blue,377.91213950002566,None,None,377.91213950002566,None,,,,,,,,,,,,,,,,,,,,,,,,,,,,,,,,,,,Sing6,001,2022_Jul_26_0959,ProdSingRedoBetween,2021.2.3,59.96375799170103,
67,0,67,0,,,,,,,,,,,,,,,,,,,,,,,,,,382.44304279983044,None,benefit,55,68,sing,blue,380.4338842998259,None,None,380.4338842998259,None,,,,,,,,,,,,,,,,,,,,,,,,,,,,,,,,,,,Sing6,001,2022_Jul_26_0959,ProdSingRedoBetween,2021.2.3,59.96375799170103,
68,0,68,0,,,,,,,,,,,,,,,,,,,,,,,,,,384.96221019979566,None,division,44,69,sing,blue,382.9552528997883,None,None,382.9552528997883,None,,,,,,,,,,,,,,,,,,,,,,,,,,,,,,,,,,,Sing6,001,2022_Jul_26_0959,ProdSingRedoBetween,2021.2.3,59.96375799170103,
69,0,69,0,,,,,,,,,,,,,,,,,,,,,,,,,,387.48139690002427,None,position,52,70,sing,blue,385.47733459994197,None,None,385.47733459994197,None,,,,,,,,,,,,,,,,,,,,,,,,,,,,,,,,,,,Sing6,001,2022_Jul_26_0959,ProdSingRedoBetween,2021.2.3,59.96375799170103,
70,0,70,0,,,,,,,,,,,,,,,,,,,,,,,,,,390.0005390997976,None,portion,38,71,sing,blue,387.9912089998834,None,None,387.9912089998834,None,,,,,,,,,,,,,,,,,,,,,,,,,,,,,,,,,,,Sing6,001,2022_Jul_26_0959,ProdSingRedoBetween,2021.2.3,59.96375799170103,
71,0,71,0,,,,,,,,,,,,,,,,,,,,,,,,,,392.5197642999701,None,revolution,69,72,sing,red,390.5130981998518,None,None,390.5130981998518,None,,,,,,,,,,,,,,,,,,,,,,,,,,,,,,,,,,,Sing6,001,2022_Jul_26_0959,ProdSingRedoBetween,2021.2.3,59.96375799170103,
72,0,72,0,,,,,,,,,,,,,,,,,,,,,,,,,,395.0389748001471,None,burden,49,73,sing,blue,393.0296294,None,None,393.0296294,None,,,,,,,,,,,,,,,,,,,,,,,,,,,,,,,,,,,Sing6,001,2022_Jul_26_0959,ProdSingRedoBetween,2021.2.3,59.96375799170103,
73,0,73,0,,,,,,,,,,,,,,,,,,,,,,,,,,397.55823120009154,None,produce,33,74,sing,blue,395.55223210016266,None,None,395.55223210016266,None,,,,,,,,,,,,,,,,,,,,,,,,,,,,,,,,,,,Sing6,001,2022_Jul_26_0959,ProdSingRedoBetween,2021.2.3,59.96375799170103,
74,0,74,0,,,,,,,,,,,,,,,,,,,,,,,,,,400.07726980000734,None,material,32,75,sing,blue,398.06505599990487,None,None,398.06505599990487,None,,,,,,,,,,,,,,,,,,,,,,,,,,,,,,,,,,,Sing6,001,2022_Jul_26_0959,ProdSingRedoBetween,2021.2.3,59.96375799170103,
75,0,75,0,,,,,,,,,,,,,,,,,,,,,,,,,,402.5806570998393,None,conference,68,76,sing,red,400.57748419977725,None,None,400.57748419977725,None,,,,,,,,,,,,,,,,,,,,,,,,,,,,,,,,,,,Sing6,001,2022_Jul_26_0959,ProdSingRedoBetween,2021.2.3,59.96375799170103,
76,0,76,0,,,,,,,,,,,,,,,,,,,,,,,,,,405.09899079985917,None,career,28,77,sing,yellow,403.09119000006467,None,None,403.09119000006467,None,,,,,,,,,,,,,,,,,,,,,,,,,,,,,,,,,,,Sing6,001,2022_Jul_26_0959,ProdSingRedoBetween,2021.2.3,59.96375799170103,
77,0,77,0,,,,,,,,,,,,,,,,,,,,,,,,,,407.61810209974647,None,second,30,78,sing,blue,405.6087965001352,None,None,405.6087965001352,None,,,,,,,,,,,,,,,,,,,,,,,,,,,,,,,,,,,Sing6,001,2022_Jul_26_0959,ProdSingRedoBetween,2021.2.3,59.96375799170103,
78,0,78,0,,,,,,,,,,,,,,,,,,,,,,,,,,410.13735659979284,None,poetry,81,79,sing,red,408.13327710004523,None,None,408.13327710004523,None,,,,,,,,,,,,,,,,,,,,,,,,,,,,,,,,,,,Sing6,001,2022_Jul_26_0959,ProdSingRedoBetween,2021.2.3,59.96375799170103,
79,0,79,0,,,,,,,,,,,,,,,,,,,,,,,,,,412.65653220005333,None,broad,35,80,sing,blue,410.64685640018433,None,None,410.64685640018433,None,,,,,,,,,,,,,,,,,,,,,,,,,,,,,,,,,,,Sing6,001,2022_Jul_26_0959,ProdSingRedoBetween,2021.2.3,59.96375799170103,
80,0,80,0,,,,,,,,,,,,,,,,,,,,,,,,,,415.17571019986644,None,force,45,81,sing,blue,413.1650344999507,None,None,413.1650344999507,None,,,,,,,,,,,,,,,,,,,,,,,,,,,,,,,,,,,Sing6,001,2022_Jul_26_0959,ProdSingRedoBetween,2021.2.3,59.96375799170103,
81,0,81,0,,,,,,,,,,,,,,,,,,,,,,,,,,417.69489919999614,None,junior,76,82,sing,red,415.69095230009407,None,None,415.69095230009407,None,,,,,,,,,,,,,,,,,,,,,,,,,,,,,,,,,,,Sing6,001,2022_Jul_26_0959,ProdSingRedoBetween,2021.2.3,59.96375799170103,
82,0,82,0,,,,,,,,,,,,,,,,,,,,,,,,,,420.21409850008786,None,cousin,11,83,sing,yellow,418.2037464999594,None,None,418.2037464999594,None,,,,,,,,,,,,,,,,,,,,,,,,,,,,,,,,,,,Sing6,001,2022_Jul_26_0959,ProdSingRedoBetween,2021.2.3,59.96375799170103,
83,0,83,0,,,,,,,,,,,,,,,,,,,,,,,,,,422.73329340014607,None,order,79,84,sing,red,420.72350300010294,None,None,420.72350300010294,None,,,,,,,,,,,,,,,,,,,,,,,,,,,,,,,,,,,Sing6,001,2022_Jul_26_0959,ProdSingRedoBetween,2021.2.3,59.96375799170103,
84,0,84,0,,,,,,,,,,,,,,,,,,,,,,,,,,425.2520715999417,None,alert,2,85,sing,yellow,423.2420310997404,None,None,423.2420310997404,None,,,,,,,,,,,,,,,,,,,,,,,,,,,,,,,,,,,Sing6,001,2022_Jul_26_0959,ProdSingRedoBetween,2021.2.3,59.96375799170103,
85,0,85,0,,,,,,,,,,,,,,,,,,,,,,,,,,427.7713071000762,None,debate,22,86,sing,yellow,425.762995199766,None,None,425.762995199766,None,,,,,,,,,,,,,,,,,,,,,,,,,,,,,,,,,,,Sing6,001,2022_Jul_26_0959,ProdSingRedoBetween,2021.2.3,59.96375799170103,
86,0,86,0,,,,,,,,,,,,,,,,,,,,,,,,,,430.27489029988647,None,theme,21,87,sing,yellow,428.2743339999579,None,None,428.2743339999579,None,,,,,,,,,,,,,,,,,,,,,,,,,,,,,,,,,,,Sing6,001,2022_Jul_26_0959,ProdSingRedoBetween,2021.2.3,59.96375799170103,
87,0,87,0,,,,,,,,,,,,,,,,,,,,,,,,,,432.7772685000673,None,fashion,63,88,sing,red,430.7743488997221,None,None,430.7743488997221,None,,,,,,,,,,,,,,,,,,,,,,,,,,,,,,,,,,,Sing6,001,2022_Jul_26_0959,ProdSingRedoBetween,2021.2.3,59.96375799170103,
88,0,88,0,,,,,,,,,,,,,,,,,,,,,,,,,,435.2957397000864,None,write,61,89,sing,red,433.29122920008376,None,None,433.29122920008376,None,,,,,,,,,,,,,,,,,,,,,,,,,,,,,,,,,,,Sing6,001,2022_Jul_26_0959,ProdSingRedoBetween,2021.2.3,59.96375799170103,
89,0,89,0,,,,,,,,,,,,,,,,,,,,,,,,,,437.79835660010576,None,state,74,90,sing,red,435.7960640001111,None,None,435.7960640001111,None,,,,,,,,,,,,,,,,,,,,,,,,,,,,,,,,,,,Sing6,001,2022_Jul_26_0959,ProdSingRedoBetween,2021.2.3,59.96375799170103,
,,,,,,,,,,,,,,,,,,,,,,,,,,,,,,,,,,,,,,,,,438.2990057999268,None,k,12.255162599962205,438.2990057999268,None,,,,,,,,,,,,,,,,,,,,,,,,,,,,,Sing6,001,2022_Jul_26_0959,ProdSingRedoBetween,2021.2.3,59.96375799170103,
,,,,0,0,0,0,,,,,,,,,,,,,,,,,,,,,,534.8651811000891,None,,,,,,,,,,,,,,,,,taste,149,1,sing,new,null,451.10225339978933,None,451.10225339978933,None,6,79.79588099988177,451.10225339978933,None,79.79588099988177,530.9447928997688,None,531.4693652000278,None,531.4693652000278,None,f,3.372739200014621,531.4693652000278,None,3.372739200014621,,,Sing6,001,2022_Jul_26_0959,ProdSingRedoBetween,2021.2.3,59.96375799170103,
,,,,1,0,1,0,,,,,,,,,,,,,,,,,,,,,,541.9788775001653,None,,,,,,,,,,,,,,,,,edition,97,2,sing,new,null,535.3936161999591,None,535.3936161999591,None,2,4.2323988997377455,535.3936161999591,None,4.2323988997377455,539.6607484999113,None,540.1751946001314,None,540.1751946001314,None,n,1.7630289997905493,540.1751946001314,None,1.7630289997905493,,,Sing6,001,2022_Jul_26_0959,ProdSingRedoBetween,2021.2.3,59.96375799170103,
,,,,2,0,2,0,,,,,,,,,,,,,,,,,,,,,,546.428663100116,None,,,,,,,,,,,,,,,,,produce,33,3,sing,old,blue,542.5160408997908,None,542.5160408997908,None,6,2.5740151996724308,542.5160408997908,None,2.5740151996724308,545.1170164998621,None,545.6320206997916,None,545.6320206997916,None,f,0.7699815998785198,545.6320206997916,None,0.7699815998785198,,,Sing6,001,2022_Jul_26_0959,ProdSingRedoBetween,2021.2.3,59.96375799170103,
,,,,3,0,3,0,,,,,,,,,,,,,,,,,,,,,,559.2231044000946,None,,,,,,,,,,,,,,,,,clear,12,4,sing,old,yellow,546.9530289997347,None,546.9530289997347,None,3,3.144764699973166,546.9530289997347,None,3.144764699973166,550.1269160001539,None,550.6273771999404,None,550.6273771999404,None,n,8.566579800099134,550.6273771999404,None,8.566579800099134,,,Sing6,001,2022_Jul_26_0959,ProdSingRedoBetween,2021.2.3,59.96375799170103,
,,,,4,0,4,0,,,,,,,,,,,,,,,,,,,,,,565.7554119997658,None,,,,,,,,,,,,,,,,,republic,29,5,sing,old,blue,559.751479299739,None,559.751479299739,None,1,2.6985980002209544,559.751479299739,None,2.6985980002209544,562.4936609999277,None,563.0174726997502,None,563.0174726997502,None,n,2.704672500025481,563.0174726997502,None,2.704672500025481,,,Sing6,001,2022_Jul_26_0959,ProdSingRedoBetween,2021.2.3,59.96375799170103,
,,,,5,0,5,0,,,,,,,,,,,,,,,,,,,,,,573.0705586997792,None,,,,,,,,,,,,,,,,,equipment,147,6,sing,new,null,566.2758157001808,None,566.2758157001808,None,6,3.8701702998951077,566.2758157001808,None,3.8701702998951077,570.1762084001675,None,570.6905196001753,None,570.6905196001753,None,r,2.3594124000519514,570.6905196001753,None,2.3594124000519514,,,Sing6,001,2022_Jul_26_0959,ProdSingRedoBetween,2021.2.3,59.96375799170103,
,,,,6,0,6,0,,,,,,,,,,,,,,,,,,,,,,579.633375799749,None,,,,,,,,,,,,,,,,,hunger,72,7,sing,old,red,573.5952500998974,None,573.5952500998974,None,2,2.8308910001069307,573.5952500998974,None,2.8308910001069307,576.4677806999534,None,576.9766536997631,None,576.9766536997631,None,n,2.6254779999144375,576.9766536997631,None,2.6254779999144375,,,Sing6,001,2022_Jul_26_0959,ProdSingRedoBetween,2021.2.3,59.96375799170103,
,,,,7,0,7,0,,,,,,,,,,,,,,,,,,,,,,585.9293587999418,None,,,,,,,,,,,,,,,,,match,161,8,sing,new,null,580.1545607000589,None,580.1545607000589,None,1,2.7675681998953223,580.1545607000589,None,2.7675681998953223,582.9620054000989,None,583.4849211997353,None,583.4849211997353,None,n,2.413085500244051,583.4849211997353,None,2.413085500244051,,,Sing6,001,2022_Jul_26_0959,ProdSingRedoBetween,2021.2.3,59.96375799170103,
,,,,8,0,8,0,,,,,,,,,,,,,,,,,,,,,,593.3283969997428,None,,,,,,,,,,,,,,,,,signal,53,9,sing,old,blue,586.4462506999262,None,586.4462506999262,None,1,4.4837997001595795,586.4462506999262,None,4.4837997001595795,590.9510568999685,None,591.4649382000789,None,591.4649382000789,None,f,1.8250752999447286,591.4649382000789,None,1.8250752999447286,,,Sing6,001,2022_Jul_26_0959,ProdSingRedoBetween,2021.2.3,59.96375799170103,
,,,,9,0,9,0,,,,,,,,,,,,,,,,,,,,,,598.5301064001396,None,,,,,,,,,,,,,,,,,contract,34,10,sing,old,blue,593.8509748000652,None,593.8509748000652,None,1,2.759028000291437,593.8509748000652,None,2.759028000291437,596.6519063999876,None,597.1627218998037,None,597.1627218998037,None,n,1.3353614998050034,597.1627218998037,None,1.3353614998050034,,,Sing6,001,2022_Jul_26_0959,ProdSingRedoBetween,2021.2.3,59.96375799170103,
,,,,10,0,10,0,,,,,,,,,,,,,,,,,,,,,,604.2528395000845,None,,,,,,,,,,,,,,,,,chief,4,11,sing,old,yellow,599.059299599845,None,599.059299599845,None,1,3.446756700053811,599.059299599845,None,3.446756700053811,602.544326600153,None,603.0465270997956,None,603.0465270997956,None,n,1.179458299651742,603.0465270997956,None,1.179458299651742,,,Sing6,001,2022_Jul_26_0959,ProdSingRedoBetween,2021.2.3,59.96375799170103,
,,,,11,0,11,0,,,,,,,,,,,,,,,,,,,,,,611.2544378000312,None,,,,,,,,,,,,,,,,,dispute,101,12,sing,new,null,604.7764357998967,None,604.7764357998967,None,2,3.9535083998925984,604.7764357998967,None,3.9535083998925984,608.7577198999934,None,609.277509199921,None,609.277509199921,None,f,1.9482982996851206,609.277509199921,None,1.9482982996851206,,,Sing6,001,2022_Jul_26_0959,ProdSingRedoBetween,2021.2.3,59.96375799170103,
,,,,12,0,12,0,,,,,,,,,,,,,,,,,,,,,,615.4253853997216,None,,,,,,,,,,,,,,,,,interior,148,13,sing,new,null,611.7741016000509,None,611.7741016000509,None,1,2.315849300008267,611.7741016000509,None,2.315849300008267,614.122405000031,None,614.6354831997305,None,614.6354831997305,None,n,0.7583384001627564,614.6354831997305,None,0.7583384001627564,,,Sing6,001,2022_Jul_26_0959,ProdSingRedoBetween,2021.2.3,59.96375799170103,
,,,,13,0,13,0,,,,,,,,,,,,,,,,,,,,,,620.5055007999763,None,,,,,,,,,,,,,,,,,threat,9,14,sing,old,yellow,615.9258443000726,None,615.9258443000726,None,1,3.5242981002666056,615.9258443000726,None,3.5242981002666056,619.5047484999523,None,620.0246298997663,None,620.0246298997663,None,n,0.4494113000109792,620.0246298997663,None,0.4494113000109792,,,Sing6,001,2022_Jul_26_0959,ProdSingRedoBetween,2021.2.3,59.96375799170103,
,,,,14,0,14,0,,,,,,,,,,,,,,,,,,,,,,624.0514926998876,None,,,,,,,,,,,,,,,,,medicine,24,15,sing,old,yellow,621.0276946998201,None,621.0276946998201,None,1,1.662451900076121,621.0276946998201,None,1.662451900076121,622.7208420997486,None,623.2412676997483,None,623.2412676997483,None,n,0.7929302998818457,623.2412676997483,None,0.7929302998818457,,,Sing6,001,2022_Jul_26_0959,ProdSingRedoBetween,2021.2.3,59.96375799170103,
,,,,15,0,15,0,,,,,,,,,,,,,,,,,,,,,,628.9085181001574,None,,,,,,,,,,,,,,,,,shear,26,16,sing,old,yellow,624.5669205999002,None,624.5669205999002,None,3,3.1395646003074944,624.5669205999002,None,3.1395646003074944,627.7538703000173,None,628.2625812999904,None,628.2625812999904,None,f,0.6193380998447537,628.2625812999904,None,0.6193380998447537,,,Sing6,001,2022_Jul_26_0959,ProdSingRedoBetween,2021.2.3,59.96375799170103,
,,,,16,0,16,0,,,,,,,,,,,,,,,,,,,,,,633.9846652997658,None,,,,,,,,,,,,,,,,,sleep,171,17,sing,new,null,629.4391242000274,None,629.4391242000274,None,2,2.1391683002002537,629.4391242000274,None,2.1391683002002537,631.619677899871,None,632.1320007997565,None,632.1320007997565,None,f,1.8299167999066412,632.1320007997565,None,1.8299167999066412,,,Sing6,001,2022_Jul_26_0959,ProdSingRedoBetween,2021.2.3,59.96375799170103,
,,,,17,0,17,0,,,,,,,,,,,,,,,,,,,,,,637.5221247998998,None,,,,,,,,,,,,,,,,,individual,65,18,sing,old,red,634.5082049998455,None,634.5082049998455,None,1,1.7976857996545732,634.5082049998455,None,1.7976857996545732,636.334471500013,None,636.8550422000699,None,636.8550422000699,None,n,0.6432178998365998,636.8550422000699,None,0.6432178998365998,,,Sing6,001,2022_Jul_26_0959,ProdSingRedoBetween,2021.2.3,59.96375799170103,
,,,,18,0,18,0,,,,,,,,,,,,,,,,,,,,,,640.2574482997879,None,,,,,,,,,,,,,,,,,sunset,133,19,sing,new,null,638.0481814001687,None,638.0481814001687,None,1,1.305670500267297,638.0481814001687,None,1.305670500267297,639.3891011998057,None,639.9085014997981,None,639.9085014997981,None,n,0.32572019984945655,639.9085014997981,None,0.32572019984945655,,,Sing6,001,2022_Jul_26_0959,ProdSingRedoBetween,2021.2.3,59.96375799170103,
,,,,19,0,19,0,,,,,,,,,,,,,,,,,,,,,,643.4952547000721,None,,,,,,,,,,,,,,,,,corner,57,20,sing,old,blue,640.7676067999564,None,640.7676067999564,None,1,1.8265038998797536,640.7676067999564,None,1.8265038998797536,642.6321327001788,None,643.1454710001126,None,643.1454710001126,None,n,0.31271820003166795,643.1454710001126,None,0.31271820003166795,,,Sing6,001,2022_Jul_26_0959,ProdSingRedoBetween,2021.2.3,59.96375799170103,
,,,,20,0,20,0,,,,,,,,,,,,,,,,,,,,,,647.2917825998738,None,,,,,,,,,,,,,,,,,silence,99,21,sing,new,null,644.0221259999089,None,644.0221259999089,None,1,2.211906500160694,644.0221259999089,None,2.211906500160694,646.2750252000988,None,646.7844234001823,None,646.7844234001823,None,n,0.4813847001641989,646.7844234001823,None,0.4813847001641989,,,Sing6,001,2022_Jul_26_0959,ProdSingRedoBetween,2021.2.3,59.96375799170103,
,,,,21,0,21,0,,,,,,,,,,,,,,,,,,,,,,651.4446948999539,None,,,,,,,,,,,,,,,,,degree,158,22,sing,new,null,647.8074795999564,None,647.8074795999564,None,3,2.7706178999505937,647.8074795999564,None,2.7706178999505937,650.6079784999602,None,651.1170005998574,None,651.1170005998574,None,f,0.3089042999781668,651.1170005998574,None,0.3089042999781668,,,Sing6,001,2022_Jul_26_0959,ProdSingRedoBetween,2021.2.3,59.96375799170103,
,,,,22,0,22,0,,,,,,,,,,,,,,,,,,,,,,654.1666669999249,None,,,,,,,,,,,,,,,,,rural,122,23,sing,new,null,651.9613461000845,None,651.9613461000845,None,1,1.2726834998466074,651.9613461000845,None,1.2726834998466074,653.272340499796,None,653.7911026999354,None,653.7911026999354,None,n,0.3548270999453962,653.7911026999354,None,0.3548270999453962,,,Sing6,001,2022_Jul_26_0959,ProdSingRedoBetween,2021.2.3,59.96375799170103,
,,,,23,0,23,0,,,,,,,,,,,,,,,,,,,,,,658.1758245001547,None,,,,,,,,,,,,,,,,,bicycle,152,24,sing,new,null,654.6933899000287,None,654.6933899000287,None,1,1.8285763999447227,654.6933899000287,None,1.8285763999447227,656.5599239999428,None,657.0781203997321,None,657.0781203997321,None,n,1.0680889999493957,657.0781203997321,None,1.0680889999493957,,,Sing6,001,2022_Jul_26_0959,ProdSingRedoBetween,2021.2.3,59.96375799170103,
,,,,24,0,24,0,,,,,,,,,,,,,,,,,,,,,,660.9735746001825,None,,,,,,,,,,,,,,,,,fight,47,25,sing,old,blue,658.701763600111,None,658.701763600111,None,1,1.3963115001097322,658.701763600111,None,1.3963115001097322,660.1391627998091,None,660.6614471999928,None,660.6614471999928,None,n,0.29248679988086224,660.6614471999928,None,0.29248679988086224,,,Sing6,001,2022_Jul_26_0959,ProdSingRedoBetween,2021.2.3,59.96375799170103,
,,,,25,0,25,0,,,,,,,,,,,,,,,,,,,,,,664.8482971000485,None,,,,,,,,,,,,,,,,,narrow,17,26,sing,old,yellow,661.502553800121,None,661.502553800121,None,3,2.179390899837017,661.502553800121,None,2.179390899837017,663.7155530001037,None,664.231665099971,None,664.231665099971,None,f,0.5862310002557933,664.231665099971,None,0.5862310002557933,,,Sing6,001,2022_Jul_26_0959,ProdSingRedoBetween,2021.2.3,59.96375799170103,
,,,,26,0,26,0,,,,,,,,,,,,,,,,,,,,,,668.4366107997485,None,,,,,,,,,,,,,,,,,brief,16,27,sing,old,yellow,665.370012300089,None,665.370012300089,None,2,2.136000399943441,665.370012300089,None,2.136000399943441,667.5458686999045,None,668.0526499999687,None,668.0526499999687,None,f,0.35754649993032217,668.0526499999687,None,0.35754649993032217,,,Sing6,001,2022_Jul_26_0959,ProdSingRedoBetween,2021.2.3,59.96375799170103,
,,,,27,0,27,0,,,,,,,,,,,,,,,,,,,,,,671.999700000044,None,,,,,,,,,,,,,,,,,stand,164,28,sing,new,null,668.960207299795,None,668.960207299795,None,1,2.017568599898368,668.960207299795,None,2.017568599898368,671.0025520999916,None,671.5240902998485,None,671.5240902998485,None,n,0.4538219999521971,671.5240902998485,None,0.4538219999521971,,,Sing6,001,2022_Jul_26_0959,ProdSingRedoBetween,2021.2.3,59.96375799170103,
,,,,28,0,28,0,,,,,,,,,,,,,,,,,,,,,,677.1596678998321,None,,,,,,,,,,,,,,,,,region,131,29,sing,new,null,672.5202053999528,None,672.5202053999528,None,2,3.585878800135106,672.5202053999528,None,3.585878800135106,676.1505396999419,None,676.6531797000207,None,676.6531797000207,None,f,0.47686109971255064,676.6531797000207,None,0.47686109971255064,,,Sing6,001,2022_Jul_26_0959,ProdSingRedoBetween,2021.2.3,59.96375799170103,
,,,,29,0,29,0,,,,,,,,,,,,,,,,,,,,,,680.1640671999194,None,,,,,,,,,,,,,,,,,background,136,30,sing,new,null,677.6869673999026,None,677.6869673999026,None,1,1.6107723000459373,677.6869673999026,None,1.6107723000459373,679.3236611997709,None,679.8231187998317,None,679.8231187998317,None,n,0.3066994999535382,679.8231187998317,None,0.3066994999535382,,,Sing6,001,2022_Jul_26_0959,ProdSingRedoBetween,2021.2.3,59.96375799170103,
,,,,30,0,30,0,,,,,,,,,,,,,,,,,,,,,,683.0799377998337,None,,,,,,,,,,,,,,,,,leader,144,31,sing,new,null,680.6740604997613,None,680.6740604997613,None,1,1.447685300372541,680.6740604997613,None,1.447685300372541,682.1487249997444,None,682.666766599752,None,682.666766599752,None,n,0.3830383997410536,682.666766599752,None,0.3830383997410536,,,Sing6,001,2022_Jul_26_0959,ProdSingRedoBetween,2021.2.3,59.96375799170103,
,,,,31,0,31,0,,,,,,,,,,,,,,,,,,,,,,687.8388716997579,None,,,,,,,,,,,,,,,,,guest,163,32,sing,new,null,683.6085763997398,None,683.6085763997398,None,1,3.049694299697876,683.6085763997398,None,3.049694299697876,686.6874576001428,None,687.2026972998865,None,687.2026972998865,None,n,0.6075039999559522,687.2026972998865,None,0.6075039999559522,,,Sing6,001,2022_Jul_26_0959,ProdSingRedoBetween,2021.2.3,59.96375799170103,
,,,,32,0,32,0,,,,,,,,,,,,,,,,,,,,,,691.3705552997999,None,,,,,,,,,,,,,,,,,finish,155,33,sing,new,null,688.3651525997557,None,688.3651525997557,None,3,2.0450562997721136,688.3651525997557,None,2.0450562997721136,690.4417682997882,None,690.9575613001361,None,690.9575613001361,None,f,0.38835430005565286,690.9575613001361,None,0.38835430005565286,,,Sing6,001,2022_Jul_26_0959,ProdSingRedoBetween,2021.2.3,59.96375799170103,
,,,,33,0,33,0,,,,,,,,,,,,,,,,,,,,,,698.1918631000444,None,,,,,,,,,,,,,,,,,population,110,34,sing,new,null,691.8987531997263,None,691.8987531997263,None,1,3.9431638000532985,691.8987531997263,None,3.9431638000532985,695.8830085000955,None,696.3980239001103,None,696.3980239001103,None,f,1.7639043000526726,696.3980239001103,None,1.7639043000526726,,,Sing6,001,2022_Jul_26_0959,ProdSingRedoBetween,2021.2.3,59.96375799170103,
,,,,34,0,34,0,,,,,,,,,,,,,,,,,,,,,,706.3661483000033,None,,,,,,,,,,,,,,,,,welcome,78,35,sing,old,red,698.7080529001541,None,698.7080529001541,None,1,5.525992200244218,698.7080529001541,None,5.525992200244218,704.277708500158,None,704.7901647998951,None,704.7901647998951,None,n,1.547699499875307,704.7901647998951,None,1.547699499875307,,,Sing6,001,2022_Jul_26_0959,ProdSingRedoBetween,2021.2.3,59.96375799170103,
,,,,35,0,35,0,,,,,,,,,,,,,,,,,,,,,,709.9602672997862,None,,,,,,,,,,,,,,,,,agency,77,36,sing,old,red,706.8834103001282,None,706.8834103001282,None,1,2.134451700374484,706.8834103001282,None,2.134451700374484,709.0406178999692,None,709.5622940999456,None,709.5622940999456,None,n,0.3598527000285685,709.5622940999456,None,0.3598527000285685,,,Sing6,001,2022_Jul_26_0959,ProdSingRedoBetween,2021.2.3,59.96375799170103,
,,,,36,0,36,0,,,,,,,,,,,,,,,,,,,,,,713.9738114997745,None,,,,,,,,,,,,,,,,,crisis,113,37,sing,new,null,710.4840782000683,None,710.4840782000683,None,1,2.5660275002010167,710.4840782000683,None,2.5660275002010167,713.0906687998213,None,713.6001144000329,None,713.6001144000329,None,n,0.3456707000732422,713.6001144000329,None,0.3456707000732422,,,Sing6,001,2022_Jul_26_0959,ProdSingRedoBetween,2021.2.3,59.96375799170103,
,,,,37,0,37,0,,,,,,,,,,,,,,,,,,,,,,717.502064100001,None,,,,,,,,,,,,,,,,,poetry,81,38,sing,old,red,714.4880693997256,None,714.4880693997256,None,1,1.9619654002599418,714.4880693997256,None,1.9619654002599418,716.4926275000907,None,717.0012139999308,None,717.0012139999308,None,n,0.46485109999775887,717.0012139999308,None,0.46485109999775887,,,Sing6,001,2022_Jul_26_0959,ProdSingRedoBetween,2021.2.3,59.96375799170103,
,,,,38,0,38,0,,,,,,,,,,,,,,,,,,,,,,722.253089599777,None,,,,,,,,,,,,,,,,,smooth,67,39,sing,old,red,718.0275416001678,None,718.0275416001678,None,4,2.110474900342524,718.0275416001678,None,2.110474900342524,720.1741026998498,None,720.6876074001193,None,720.6876074001193,None,f,1.5463100001215935,720.6876074001193,None,1.5463100001215935,,,Sing6,001,2022_Jul_26_0959,ProdSingRedoBetween,2021.2.3,59.96375799170103,
,,,,39,0,39,0,,,,,,,,,,,,,,,,,,,,,,726.6436279998161,None,,,,,,,,,,,,,,,,,dozen,135,40,sing,new,null,722.7842370998114,None,722.7842370998114,None,1,1.281566500198096,722.7842370998114,None,1.281566500198096,724.1043352000415,None,724.6218439000659,None,724.6218439000659,None,n,1.9881345997564495,724.6218439000659,None,1.9881345997564495,,,Sing6,001,2022_Jul_26_0959,ProdSingRedoBetween,2021.2.3,59.96375799170103,
,,,,40,0,40,0,,,,,,,,,,,,,,,,,,,,,,731.6036996999756,None,,,,,,,,,,,,,,,,,ground,84,41,sing,old,red,727.165102200117,None,727.165102200117,None,5,3.4526179996319115,727.165102200117,None,3.4526179996319115,730.6429280997254,None,731.1577582000755,None,731.1577582000755,None,f,0.4123142999596894,731.1577582000755,None,0.4123142999596894,,,Sing6,001,2022_Jul_26_0959,ProdSingRedoBetween,2021.2.3,59.96375799170103,
,,,,41,0,41,0,,,,,,,,,,,,,,,,,,,,,,738.2555700000376,None,,,,,,,,,,,,,,,,,under,145,42,sing,new,null,732.1246270998381,None,732.1246270998381,None,3,4.293437899556011,732.1246270998381,None,4.293437899556011,736.46043560002,None,736.9634237997234,None,736.9634237997234,None,f,1.2546069999225438,736.9634237997234,None,1.2546069999225438,,,Sing6,001,2022_Jul_26_0959,ProdSingRedoBetween,2021.2.3,59.96375799170103,
,,,,42,0,42,0,,,,,,,,,,,,,,,,,,,,,,745.3160378998145,None,,,,,,,,,,,,,,,,,material,32,43,sing,old,blue,738.7817456000485,None,738.7817456000485,None,1,3.172126399818808,738.7817456000485,None,3.172126399818808,741.992699299939,None,742.509529300034,None,742.509529300034,None,n,2.772271600086242,742.509529300034,None,2.772271600086242,,,Sing6,001,2022_Jul_26_0959,ProdSingRedoBetween,2021.2.3,59.96375799170103,
,,,,43,0,43,0,,,,,,,,,,,,,,,,,,,,,,749.3932121000253,None,,,,,,,,,,,,,,,,,foundation,75,44,sing,old,red,745.8257565000094,None,745.8257565000094,None,4,2.59211550001055,745.8257565000094,None,2.59211550001055,748.44896780001,None,748.966242399998,None,748.966242399998,None,f,0.40360449999570847,748.966242399998,None,0.40360449999570847,,,Sing6,001,2022_Jul_26_0959,ProdSingRedoBetween,2021.2.3,59.96375799170103,
,,,,44,0,44,0,,,,,,,,,,,,,,,,,,,,,,752.8034879001789,None,,,,,,,,,,,,,,,,,council,80,45,sing,old,red,749.9059183001518,None,749.9059183001518,None,5,1.7922987001948059,749.9059183001518,None,1.7922987001948059,751.7396606998518,None,752.2526564998552,None,752.2526564998552,None,f,0.5254314001649618,752.2526564998552,None,0.5254314001649618,,,Sing6,001,2022_Jul_26_0959,ProdSingRedoBetween,2021.2.3,59.96375799170103,
,,,,45,0,45,0,,,,,,,,,,,,,,,,,,,,,,757.248437399976,None,,,,,,,,,,,,,,,,,sound,154,46,sing,new,null,753.325847200118,None,753.325847200118,None,4,2.876088600140065,753.325847200118,None,2.876088600140065,756.254555599764,None,756.7746111000888,None,756.7746111000888,None,f,0.443384500220418,756.7746111000888,None,0.443384500220418,,,Sing6,001,2022_Jul_26_0959,ProdSingRedoBetween,2021.2.3,59.96375799170103,
,,,,46,0,46,0,,,,,,,,,,,,,,,,,,,,,,760.8872238001786,None,,,,,,,,,,,,,,,,,primary,170,47,sing,new,null,757.7653100998141,None,757.7653100998141,None,1,2.276716099586338,757.7653100998141,None,2.276716099586338,760.0813166997395,None,760.5870016999543,None,760.5870016999543,None,n,0.2706345999613404,760.5870016999543,None,0.2706345999613404,,,Sing6,001,2022_Jul_26_0959,ProdSingRedoBetween,2021.2.3,59.96375799170103,
,,,,47,0,47,0,,,,,,,,,,,,,,,,,,,,,,765.0080252997577,None,,,,,,,,,,,,,,,,,piece,116,48,sing,new,null,761.4006036999635,None,761.4006036999635,None,3,2.2492096996866167,761.4006036999635,None,2.2492096996866167,763.6764062000439,None,764.1987565001473,None,764.1987565001473,None,f,0.7870726999826729,764.1987565001473,None,0.7870726999826729,,,Sing6,001,2022_Jul_26_0959,ProdSingRedoBetween,2021.2.3,59.96375799170103,
,,,,48,0,48,0,,,,,,,,,,,,,,,,,,,,,,770.0314846001565,None,,,,,,,,,,,,,,,,,staff,42,49,sing,old,blue,765.5252577001229,None,765.5252577001229,None,2,3.628694400191307,765.5252577001229,None,3.628694400191307,769.196352200117,None,769.706346699968,None,769.706346699968,None,f,0.2954126000404358,769.706346699968,None,0.2954126000404358,,,Sing6,001,2022_Jul_26_0959,ProdSingRedoBetween,2021.2.3,59.96375799170103,
,,,,49,0,49,0,,,,,,,,,,,,,,,,,,,,,,773.7259706999175,None,,,,,,,,,,,,,,,,,bitter,73,50,sing,old,red,770.5642499001697,None,770.5642499001697,None,2,1.749568899627775,770.5642499001697,None,1.749568899627775,772.3373694000766,None,772.8559582000598,None,772.8559582000598,None,f,0.8420560997910798,772.8559582000598,None,0.8420560997910798,,,Sing6,001,2022_Jul_26_0959,ProdSingRedoBetween,2021.2.3,59.96375799170103,
,,,,50,0,50,0,,,,,,,,,,,,,,,,,,,,,,778.8895084001124,None,,,,,,,,,,,,,,,,,series,123,51,sing,new,null,774.2532918001525,None,774.2532918001525,None,1,3.092629899736494,774.2532918001525,None,3.092629899736494,777.3851827997714,None,777.8950801999308,None,777.8950801999308,None,n,0.9708326999098063,777.8950801999308,None,0.9708326999098063,,,Sing6,001,2022_Jul_26_0959,ProdSingRedoBetween,2021.2.3,59.96375799170103,
,,,,51,0,51,0,,,,,,,,,,,,,,,,,,,,,,782.4944364000112,None,,,,,,,,,,,,,,,,,subject,138,52,sing,new,null,779.4122303999029,None,779.4122303999029,None,3,2.2215693998150527,779.4122303999029,None,2.2215693998150527,781.6639359998517,None,782.1865034000948,None,782.1865034000948,None,f,0.2793429000303149,782.1865034000948,None,0.2793429000303149,,,Sing6,001,2022_Jul_26_0959,ProdSingRedoBetween,2021.2.3,59.96375799170103,
,,,,52,0,52,0,,,,,,,,,,,,,,,,,,,,,,786.864893999882,None,,,,,,,,,,,,,,,,,platform,128,53,sing,new,null,783.0246369000524,None,783.0246369000524,None,1,2.9531439999118447,783.0246369000524,None,2.9531439999118447,786.0000693001784,None,786.5180219998583,None,786.5180219998583,None,n,0.3158069998025894,786.5180219998583,None,0.3158069998025894,,,Sing6,001,2022_Jul_26_0959,ProdSingRedoBetween,2021.2.3,59.96375799170103,
,,,,53,0,53,0,,,,,,,,,,,,,,,,,,,,,,790.4512100997381,None,,,,,,,,,,,,,,,,,people,134,54,sing,new,null,787.3802601001225,None,787.3802601001225,None,4,1.8056719996966422,787.3802601001225,None,1.8056719996966422,789.2282810998149,None,789.7422358999029,None,789.7422358999029,None,f,0.6835944000631571,789.7422358999029,None,0.6835944000631571,,,Sing6,001,2022_Jul_26_0959,ProdSingRedoBetween,2021.2.3,59.96375799170103,
,,,,54,0,54,0,,,,,,,,,,,,,,,,,,,,,,794.3643395998515,None,,,,,,,,,,,,,,,,,appeal,130,55,sing,new,null,790.9519786001183,None,790.9519786001183,None,5,2.3459693999029696,790.9519786001183,None,2.3459693999029696,793.3399141998962,None,793.8616621997207,None,793.8616621997207,None,f,0.47644919995218515,793.8616621997207,None,0.47644919995218515,,,Sing6,001,2022_Jul_26_0959,ProdSingRedoBetween,2021.2.3,59.96375799170103,
,,,,55,0,55,0,,,,,,,,,,,,,,,,,,,,,,797.8377263001166,None,,,,,,,,,,,,,,,,,union,1,56,sing,old,yellow,794.8881673999131,None,794.8881673999131,None,6,2.009805899579078,794.8881673999131,None,2.009805899579078,796.9414944997989,None,797.4495950001292,None,797.4495950001292,None,f,0.35249239997938275,797.4495950001292,None,0.35249239997938275,,,Sing6,001,2022_Jul_26_0959,ProdSingRedoBetween,2021.2.3,59.96375799170103,
,,,,56,0,56,0,,,,,,,,,,,,,,,,,,,,,,804.6502290000208,None,,,,,,,,,,,,,,,,,burden,49,57,sing,old,blue,798.3561458997428,None,798.3561458997428,None,2,5.43774149985984,798.3561458997428,None,5.43774149985984,803.8221749998629,None,804.3403765000403,None,804.3403765000403,None,f,0.2853671000339091,804.3403765000403,None,0.2853671000339091,,,Sing6,001,2022_Jul_26_0959,ProdSingRedoBetween,2021.2.3,59.96375799170103,
,,,,57,0,57,0,,,,,,,,,,,,,,,,,,,,,,808.1676703998819,None,,,,,,,,,,,,,,,,,tough,125,58,sing,new,null,805.1772762001492,None,805.1772762001492,None,1,2.032351499889046,805.1772762001492,None,2.032351499889046,807.2389882998541,None,807.7507726000622,None,807.7507726000622,None,n,0.39487179974094033,807.7507726000622,None,0.39487179974094033,,,Sing6,001,2022_Jul_26_0959,ProdSingRedoBetween,2021.2.3,59.96375799170103,
,,,,58,0,58,0,,,,,,,,,,,,,,,,,,,,,,811.4568639998324,None,,,,,,,,,,,,,,,,,junior,76,59,sing,old,red,808.6888270000927,None,808.6888270000927,None,4,1.8890431001782417,808.6888270000927,None,1.8890431001782417,810.6148812999018,None,811.1331950998865,None,811.1331950998865,None,f,0.2926890002563596,811.1331950998865,None,0.2926890002563596,,,Sing6,001,2022_Jul_26_0959,ProdSingRedoBetween,2021.2.3,59.96375799170103,
,,,,59,0,59,0,,,,,,,,,,,,,,,,,,,,,,816.0458788000979,None,,,,,,,,,,,,,,,,,revolution,69,60,sing,old,red,811.9857092001475,None,811.9857092001475,None,6,3.144241299945861,811.9857092001475,None,3.144241299945861,815.1766876000911,None,815.6846100999974,None,815.6846100999974,None,r,0.3413383001461625,815.6846100999974,None,0.3413383001461625,,,Sing6,001,2022_Jul_26_0959,ProdSingRedoBetween,2021.2.3,59.96375799170103,
,,,,60,0,60,0,,,,,,,,,,,,,,,,,,,,,,824.3361432999372,None,,,,,,,,,,,,,,,,,private,56,61,sing,old,blue,816.5763170998544,None,816.5763170998544,None,5,5.985692700371146,816.5763170998544,None,5.985692700371146,822.6029985998757,None,823.1097258999944,None,823.1097258999944,None,f,1.1960831000469625,823.1097258999944,None,1.1960831000469625,,,Sing6,001,2022_Jul_26_0959,ProdSingRedoBetween,2021.2.3,59.96375799170103,
,,,,61,0,61,0,,,,,,,,,,,,,,,,,,,,,,828.4483719998971,None,,,,,,,,,,,,,,,,,express,102,62,sing,new,null,824.8672835999168,None,824.8672835999168,None,2,2.2066665003076196,824.8672835999168,None,2.2066665003076196,827.1237356001511,None,827.6505142999813,None,827.6505142999813,None,n,0.7674527000635862,827.6505142999813,None,0.7674527000635862,,,Sing6,001,2022_Jul_26_0959,ProdSingRedoBetween,2021.2.3,59.96375799170103,
,,,,62,0,62,0,,,,,,,,,,,,,,,,,,,,,,832.1261064000428,None,,,,,,,,,,,,,,,,,order,79,63,sing,old,red,828.9677194999531,None,828.9677194999531,None,3,2.234083800110966,828.9677194999531,None,2.234083800110966,831.2303110999055,None,831.7474786001258,None,831.7474786001258,None,f,0.34271090012043715,831.7474786001258,None,0.34271090012043715,,,Sing6,001,2022_Jul_26_0959,ProdSingRedoBetween,2021.2.3,59.96375799170103,
,,,,63,0,63,0,,,,,,,,,,,,,,,,,,,,,,834.7498317998834,None,,,,,,,,,,,,,,,,,payment,141,64,sing,new,null,832.6422673999332,None,832.6422673999332,None,1,1.2316190996207297,832.6422673999332,None,1.2316190996207297,833.9039527000859,None,834.4234400000423,None,834.4234400000423,None,n,0.29838910000398755,834.4234400000423,None,0.29838910000398755,,,Sing6,001,2022_Jul_26_0959,ProdSingRedoBetween,2021.2.3,59.96375799170103,
,,,,64,0,64,0,,,,,,,,,,,,,,,,,,,,,,838.5153374997899,None,,,,,,,,,,,,,,,,,raise,51,65,sing,old,blue,835.2755960999057,None,835.2755960999057,None,1,2.3742693001404405,835.2755960999057,None,2.3742693001404405,837.6921594999731,None,838.2090282998979,None,838.2090282998979,None,n,0.2807438001036644,838.2090282998979,None,0.2807438001036644,,,Sing6,001,2022_Jul_26_0959,ProdSingRedoBetween,2021.2.3,59.96375799170103,
,,,,65,0,65,0,,,,,,,,,,,,,,,,,,,,,,843.6470991000533,None,,,,,,,,,,,,,,,,,phrase,0,66,sing,old,yellow,839.0363345998339,None,839.0363345998339,None,3,3.7575944997370243,839.0363345998339,None,3.7575944997370243,842.8363751000725,None,843.3449371000752,None,843.3449371000752,None,f,0.2649929001927376,843.3449371000752,None,0.2649929001927376,,,Sing6,001,2022_Jul_26_0959,ProdSingRedoBetween,2021.2.3,59.96375799170103,
,,,,66,0,66,0,,,,,,,,,,,,,,,,,,,,,,847.0412220000289,None,,,,,,,,,,,,,,,,,nation,160,67,sing,new,null,844.1692662998103,None,844.1692662998103,None,4,1.928683599922806,844.1692662998103,None,1.928683599922806,846.1406686999835,None,846.6545421998017,None,846.6545421998017,None,f,0.35527170030400157,846.6545421998017,None,0.35527170030400157,,,Sing6,001,2022_Jul_26_0959,ProdSingRedoBetween,2021.2.3,59.96375799170103,
,,,,67,0,67,0,,,,,,,,,,,,,,,,,,,,,,850.6603148998693,None,,,,,,,,,,,,,,,,,broad,35,68,sing,old,blue,847.5547005999833,None,847.5547005999833,None,5,1.9432903998531401,847.5547005999833,None,1.9432903998531401,849.5394945000298,None,850.0518642999232,None,850.0518642999232,None,f,0.589765100274235,850.0518642999232,None,0.589765100274235,,,Sing6,001,2022_Jul_26_0959,ProdSingRedoBetween,2021.2.3,59.96375799170103,
,,,,68,0,68,0,,,,,,,,,,,,,,,,,,,,,,856.6095349998213,None,,,,,,,,,,,,,,,,,quantity,27,69,sing,old,yellow,851.1608394999057,None,851.1608394999057,None,3,4.233171799685806,851.1608394999057,None,4.233171799685806,855.435087100137,None,855.94185369974,None,855.94185369974,None,f,0.6280771000310779,855.94185369974,None,0.6280771000310779,,,Sing6,001,2022_Jul_26_0959,ProdSingRedoBetween,2021.2.3,59.96375799170103,
,,,,69,0,69,0,,,,,,,,,,,,,,,,,,,,,,859.5717532001436,None,,,,,,,,,,,,,,,,,number,140,70,sing,new,null,857.1199508998543,None,857.1199508998543,None,1,1.5379061000421643,857.1199508998543,None,1.5379061000421643,858.6989119001664,None,859.210908100009,None,859.210908100009,None,n,0.34283989993855357,859.210908100009,None,0.34283989993855357,,,Sing6,001,2022_Jul_26_0959,ProdSingRedoBetween,2021.2.3,59.96375799170103,
,,,,70,0,70,0,,,,,,,,,,,,,,,,,,,,,,864.6479718000628,None,,,,,,,,,,,,,,,,,suspect,43,71,sing,old,blue,860.0884214998223,None,860.0884214998223,None,4,3.601467000320554,860.0884214998223,None,3.601467000320554,863.7248097001575,None,864.2339157001115,None,864.2339157001115,None,f,0.37596389977261424,864.2339157001115,None,0.37596389977261424,,,Sing6,001,2022_Jul_26_0959,ProdSingRedoBetween,2021.2.3,59.96375799170103,
,,,,71,0,71,0,,,,,,,,,,,,,,,,,,,,,,867.376946600154,None,,,,,,,,,,,,,,,,,pancakes,66,72,sing,old,red,865.1730217998847,None,865.1730217998847,None,1,1.3731011999771,865.1730217998847,None,1.3731011999771,866.5881094001234,None,867.1044765999541,None,867.1044765999541,None,n,0.24147990019991994,867.1044765999541,None,0.24147990019991994,,,Sing6,001,2022_Jul_26_0959,ProdSingRedoBetween,2021.2.3,59.96375799170103,
,,,,72,0,72,0,,,,,,,,,,,,,,,,,,,,,,871.2385180997662,None,,,,,,,,,,,,,,,,,whole,112,73,sing,new,null,867.893442499917,None,867.893442499917,None,1,2.3161538997665048,867.893442499917,None,2.3161538997665048,870.2419938999228,None,870.7470407001674,None,870.7470407001674,None,n,0.462722500320524,870.7470407001674,None,0.462722500320524,,,Sing6,001,2022_Jul_26_0959,ProdSingRedoBetween,2021.2.3,59.96375799170103,
,,,,73,0,73,0,,,,,,,,,,,,,,,,,,,,,,873.7099680998363,None,,,,,,,,,,,,,,,,,article,167,74,sing,new,null,871.7761021000333,None,871.7761021000333,None,1,1.0655529997311532,871.7761021000333,None,1.0655529997311532,872.8755268999375,None,873.3905405001715,None,873.3905405001715,None,n,0.29136710008606315,873.3905405001715,None,0.29136710008606315,,,Sing6,001,2022_Jul_26_0959,ProdSingRedoBetween,2021.2.3,59.96375799170103,
,,,,74,0,74,0,,,,,,,,,,,,,,,,,,,,,,876.3896241001785,None,,,,,,,,,,,,,,,,,military,166,75,sing,new,null,874.230428500101,None,874.230428500101,None,1,1.0192598002031446,874.230428500101,None,1.0192598002031446,875.2714109001681,None,875.7958257999271,None,875.7958257999271,None,n,0.5739801996387541,875.7958257999271,None,0.5739801996387541,,,Sing6,001,2022_Jul_26_0959,ProdSingRedoBetween,2021.2.3,59.96375799170103,
,,,,75,0,75,0,,,,,,,,,,,,,,,,,,,,,,880.4638048000634,None,,,,,,,,,,,,,,,,,debate,22,76,sing,old,yellow,876.9202299998142,None,876.9202299998142,None,5,2.345867000054568,876.9202299998142,None,2.345867000054568,879.3002981999889,None,879.8130986001343,None,879.8130986001343,None,f,0.6127783004194498,879.8130986001343,None,0.6127783004194498,,,Sing6,001,2022_Jul_26_0959,ProdSingRedoBetween,2021.2.3,59.96375799170103,
,,,,76,0,76,0,,,,,,,,,,,,,,,,,,,,,,883.6441501001827,None,,,,,,,,,,,,,,,,,agreement,106,77,sing,new,null,880.9739339998923,None,880.9739339998923,None,1,1.8438913999125361,880.9739339998923,None,1.8438913999125361,882.8531419998035,None,883.3699631998315,None,883.3699631998315,None,n,0.2558114998973906,883.3699631998315,None,0.2558114998973906,,,Sing6,001,2022_Jul_26_0959,ProdSingRedoBetween,2021.2.3,59.96375799170103,
,,,,77,0,77,0,,,,,,,,,,,,,,,,,,,,,,887.0805528000928,None,,,,,,,,,,,,,,,,,history,115,78,sing,new,null,884.1573938000947,None,884.1573938000947,None,1,1.108657999895513,884.1573938000947,None,1.108657999895513,885.3058043997735,None,885.8240092000924,None,885.8240092000924,None,n,1.2337652002461255,885.8240092000924,None,1.2337652002461255,,,Sing6,001,2022_Jul_26_0959,ProdSingRedoBetween,2021.2.3,59.96375799170103,
,,,,78,0,78,0,,,,,,,,,,,,,,,,,,,,,,890.3845000998117,None,,,,,,,,,,,,,,,,,government,18,79,sing,old,yellow,887.5991567997262,None,887.5991567997262,None,1,1.5947055998258293,887.5991567997262,None,1.5947055998258293,889.2296470999718,None,889.739537499845,None,889.739537499845,None,n,0.6222620997577906,889.739537499845,None,0.6222620997577906,,,Sing6,001,2022_Jul_26_0959,ProdSingRedoBetween,2021.2.3,59.96375799170103,
,,,,79,0,79,0,,,,,,,,,,,,,,,,,,,,,,894.8431210000999,None,,,,,,,,,,,,,,,,,division,44,80,sing,old,blue,890.904601899907,None,890.904601899907,None,3,3.0653162002563477,890.904601899907,None,3.0653162002563477,894.0013983999379,None,894.5127071999013,None,894.5127071999013,None,n,0.3054982000030577,894.5127071999013,None,0.3054982000030577,,,Sing6,001,2022_Jul_26_0959,ProdSingRedoBetween,2021.2.3,59.96375799170103,
,,,,80,0,80,0,,,,,,,,,,,,,,,,,,,,,,897.676507299766,None,,,,,,,,,,,,,,,,,drink,59,81,sing,old,yellow,895.3718209997751,None,895.3718209997751,None,1,1.238100599963218,895.3718209997751,None,1.238100599963218,896.6588131999597,None,897.17991109984,None,897.17991109984,None,n,0.47777030011639,897.17991109984,None,0.47777030011639,,,Sing6,001,2022_Jul_26_0959,ProdSingRedoBetween,2021.2.3,59.96375799170103,
,,,,81,0,81,0,,,,,,,,,,,,,,,,,,,,,,900.6672864998691,None,,,,,,,,,,,,,,,,,opening,143,82,sing,new,null,898.2058321000077,None,898.2058321000077,None,1,1.2679799003526568,898.2058321000077,None,1.2679799003526568,899.5029217000119,None,900.019534799736,None,900.019534799736,None,n,0.6142883999273181,900.019534799736,None,0.6142883999273181,,,Sing6,001,2022_Jul_26_0959,ProdSingRedoBetween,2021.2.3,59.96375799170103,
,,,,82,0,82,0,,,,,,,,,,,,,,,,,,,,,,905.8557298001833,None,,,,,,,,,,,,,,,,,heavy,126,83,sing,new,null,901.1904414999299,None,901.1904414999299,None,1,3.811506099998951,901.1904414999299,None,3.811506099998951,905.0439185998403,None,905.5573780997656,None,905.5573780997656,None,n,0.2605341002345085,905.5573780997656,None,0.2605341002345085,,,Sing6,001,2022_Jul_26_0959,ProdSingRedoBetween,2021.2.3,59.96375799170103,
,,,,83,0,83,0,,,,,,,,,,,,,,,,,,,,,,908.4870071997866,None,,,,,,,,,,,,,,,,,level,114,84,sing,new,null,906.3709883997217,None,906.3709883997217,None,1,1.2469354001805186,906.3709883997217,None,1.2469354001805186,907.6431387001649,None,908.15891369991,None,908.15891369991,None,n,0.29885789984837174,908.15891369991,None,0.29885789984837174,,,Sing6,001,2022_Jul_26_0959,ProdSingRedoBetween,2021.2.3,59.96375799170103,
,,,,84,0,84,0,,,,,,,,,,,,,,,,,,,,,,912.6149781001732,None,,,,,,,,,,,,,,,,,write,61,85,sing,old,red,909.0198352998123,None,909.0198352998123,None,3,2.3418982001021504,909.0198352998123,None,2.3418982001021504,911.3876172001474,None,911.8993886001408,None,911.8993886001408,None,f,0.6784867998212576,911.8993886001408,None,0.6784867998212576,,,Sing6,001,2022_Jul_26_0959,ProdSingRedoBetween,2021.2.3,59.96375799170103,
,,,,85,0,85,0,,,,,,,,,,,,,,,,,,,,,,916.0935013997369,None,,,,,,,,,,,,,,,,,trail,20,86,sing,old,yellow,913.1391385998577,None,913.1391385998577,None,1,2.1986030000261962,913.1391385998577,None,2.1986030000261962,915.3653211998753,None,915.8828412001021,None,915.8828412001021,None,n,0.19099490018561482,915.8828412001021,None,0.19099490018561482,,,Sing6,001,2022_Jul_26_0959,ProdSingRedoBetween,2021.2.3,59.96375799170103,
,,,,86,0,86,0,,,,,,,,,,,,,,,,,,,,,,919.8221322000027,None,,,,,,,,,,,,,,,,,story,142,87,sing,new,null,916.6095973001793,None,916.6095973001793,None,1,2.3121401998214424,916.6095973001793,None,2.3121401998214424,918.9586013997905,None,919.472367499955,None,919.472367499955,None,n,0.31345830019563437,919.472367499955,None,0.31345830019563437,,,Sing6,001,2022_Jul_26_0959,ProdSingRedoBetween,2021.2.3,59.96375799170103,
,,,,87,0,87,0,,,,,,,,,,,,,,,,,,,,,,923.7848030999303,None,,,,,,,,,,,,,,,,,permit,156,88,sing,new,null,920.3475377997383,None,920.3475377997383,None,1,2.3182145999744534,920.3475377997383,None,2.3182145999744534,922.6901075001806,None,923.2077991999686,None,923.2077991999686,None,n,0.5539448000490665,923.2077991999686,None,0.5539448000490665,,,Sing6,001,2022_Jul_26_0959,ProdSingRedoBetween,2021.2.3,59.96375799170103,
,,,,88,0,88,0,,,,,,,,,,,,,,,,,,,,,,927.1938327997923,None,,,,,,,,,,,,,,,,,speech,132,89,sing,new,null,924.3011742997915,None,924.3011742997915,None,4,1.9566882001236081,924.3011742997915,None,1.9566882001236081,926.3018065998331,None,926.8112208000384,None,926.8112208000384,None,f,0.3586550001055002,926.8112208000384,None,0.3586550001055002,,,Sing6,001,2022_Jul_26_0959,ProdSingRedoBetween,2021.2.3,59.96375799170103,
,,,,89,0,89,0,,,,,,,,,,,,,,,,,,,,,,930.1573350001127,None,,,,,,,,,,,,,,,,,committee,169,90,sing,new,null,927.714243600145,None,927.714243600145,None,1,1.5996087999083102,927.714243600145,None,1.5996087999083102,929.3540237001143,None,929.8644743999466,None,929.8644743999466,None,n,0.2652487000450492,929.8644743999466,None,0.2652487000450492,,,Sing6,001,2022_Jul_26_0959,ProdSingRedoBetween,2021.2.3,59.96375799170103,
,,,,90,0,90,0,,,,,,,,,,,,,,,,,,,,,,935.2945885998197,None,,,,,,,,,,,,,,,,,account,60,91,sing,old,red,930.6730911000632,None,930.6730911000632,None,5,3.736503900028765,930.6730911000632,None,3.736503900028765,934.4271896998398,None,934.9276854000054,None,934.9276854000054,None,f,0.3378675002604723,934.9276854000054,None,0.3378675002604723,,,Sing6,001,2022_Jul_26_0959,ProdSingRedoBetween,2021.2.3,59.96375799170103,
,,,,91,0,91,0,,,,,,,,,,,,,,,,,,,,,,938.7824407997541,None,,,,,,,,,,,,,,,,,master,41,92,sing,old,blue,935.7952157999389,None,935.7952157999389,None,1,2.286659900099039,935.7952157999389,None,2.286659900099039,938.1080825999379,None,938.6227225000039,None,938.6227225000039,None,n,0.1309226998127997,938.6227225000039,None,0.1309226998127997,,,Sing6,001,2022_Jul_26_0959,ProdSingRedoBetween,2021.2.3,59.96375799170103,
,,,,92,0,92,0,,,,,,,,,,,,,,,,,,,,,,944.3467318997718,None,,,,,,,,,,,,,,,,,straight,3,93,sing,old,yellow,939.2972587998956,None,939.2972587998956,None,4,3.2965332004241645,939.2972587998956,None,3.2965332004241645,942.6287802997977,None,943.1440789997578,None,943.1440789997578,None,f,1.1777944997884333,943.1440789997578,None,1.1777944997884333,,,Sing6,001,2022_Jul_26_0959,ProdSingRedoBetween,2021.2.3,59.96375799170103,
,,,,93,0,93,0,,,,,,,,,,,,,,,,,,,,,,946.9408022998832,None,,,,,,,,,,,,,,,,,damage,7,94,sing,old,yellow,944.8691289001144,None,944.8691289001144,None,1,1.2286823000758886,944.8691289001144,None,1.2286823000758886,946.1356998998672,None,946.6452994998544,None,946.6452994998544,None,n,0.2684150002896786,946.6452994998544,None,0.2684150002896786,,,Sing6,001,2022_Jul_26_0959,ProdSingRedoBetween,2021.2.3,59.96375799170103,
,,,,94,0,94,0,,,,,,,,,,,,,,,,,,,,,,949.8500902000815,None,,,,,,,,,,,,,,,,,detective,37,95,sing,old,blue,947.4563511000015,None,947.4563511000015,None,1,1.5137013997882605,947.4563511000015,None,1.5137013997882605,949.0143785998225,None,949.5347656998783,None,949.5347656998783,None,n,0.283037600107491,949.5347656998783,None,0.283037600107491,,,Sing6,001,2022_Jul_26_0959,ProdSingRedoBetween,2021.2.3,59.96375799170103,
,,,,95,0,95,0,,,,,,,,,,,,,,,,,,,,,,953.3239945000969,None,,,,,,,,,,,,,,,,,cousin,11,96,sing,old,yellow,950.3714589001611,None,950.3714589001611,None,6,2.070562200155109,950.3714589001611,None,2.070562200155109,952.4708130997606,None,952.9902119999751,None,952.9902119999751,None,r,0.30770849995315075,952.9902119999751,None,0.30770849995315075,,,Sing6,001,2022_Jul_26_0959,ProdSingRedoBetween,2021.2.3,59.96375799170103,
,,,,96,0,96,0,,,,,,,,,,,,,,,,,,,,,,958.9102580999024,None,,,,,,,,,,,,,,,,,drama,118,97,sing,new,null,953.8338208999485,None,953.8338208999485,None,3,3.8159620999358594,953.8338208999485,None,3.8159620999358594,957.6830178997479,None,958.1893492001109,None,958.1893492001109,None,f,0.6924919001758099,958.1893492001109,None,0.6924919001758099,,,Sing6,001,2022_Jul_26_0959,ProdSingRedoBetween,2021.2.3,59.96375799170103,
,,,,97,0,97,0,,,,,,,,,,,,,,,,,,,,,,963.1083685001358,None,,,,,,,,,,,,,,,,,break,5,98,sing,old,yellow,959.4353045001626,None,959.4353045001626,None,1,2.8386262003332376,959.4353045001626,None,2.8386262003332376,962.3168001999147,None,962.8311167997308,None,962.8311167997308,None,n,0.2505311998538673,962.8311167997308,None,0.2505311998538673,,,Sing6,001,2022_Jul_26_0959,ProdSingRedoBetween,2021.2.3,59.96375799170103,
,,,,98,0,98,0,,,,,,,,,,,,,,,,,,,,,,966.6426896997727,None,,,,,,,,,,,,,,,,,period,31,99,sing,old,blue,963.633582400158,None,963.633582400158,None,4,1.9522969000972807,963.633582400158,None,1.9522969000972807,965.6190893999301,None,966.134329599794,None,966.134329599794,None,f,0.48370489990338683,966.134329599794,None,0.48370489990338683,,,Sing6,001,2022_Jul_26_0959,ProdSingRedoBetween,2021.2.3,59.96375799170103,
,,,,99,0,99,0,,,,,,,,,,,,,,,,,,,,,,971.8889124998823,None,,,,,,,,,,,,,,,,,personnel,139,100,sing,new,null,967.1583456001244,None,967.1583456001244,None,1,3.6192639004439116,967.1583456001244,None,3.6192639004439116,970.7968012997881,None,971.2976393997669,None,971.2976393997669,None,n,0.5682159001007676,971.2976393997669,None,0.5682159001007676,,,Sing6,001,2022_Jul_26_0959,ProdSingRedoBetween,2021.2.3,59.96375799170103,
,,,,100,0,100,0,,,,,,,,,,,,,,,,,,,,,,976.436875499785,None,,,,,,,,,,,,,,,,,disease,100,101,sing,new,null,972.4142706999555,None,972.4142706999555,None,1,3.179563300218433,972.4142706999555,None,3.179563300218433,975.6306722997688,None,976.141954000108,None,976.141954000108,None,n,0.26768619986250997,976.141954000108,None,0.26768619986250997,,,Sing6,001,2022_Jul_26_0959,ProdSingRedoBetween,2021.2.3,59.96375799170103,
,,,,101,0,101,0,,,,,,,,,,,,,,,,,,,,,,979.4234886001796,None,,,,,,,,,,,,,,,,,track,107,102,sing,new,null,976.9504563999362,None,976.9504563999362,None,4,1.65931580029428,976.9504563999362,None,1.65931580029428,978.6505852001719,None,979.1650709998794,None,979.1650709998794,None,f,0.2366325999610126,979.1650709998794,None,0.2366325999610126,,,Sing6,001,2022_Jul_26_0959,ProdSingRedoBetween,2021.2.3,59.96375799170103,
,,,,102,0,102,0,,,,,,,,,,,,,,,,,,,,,,982.6632023998536,None,,,,,,,,,,,,,,,,,science,105,103,sing,new,null,979.9394701998681,None,979.9394701998681,None,1,1.9902535998262465,979.9394701998681,None,1.9902535998262465,981.9667894998565,None,982.4850091999397,None,982.4850091999397,None,n,0.1566774002276361,982.4850091999397,None,0.1566774002276361,,,Sing6,001,2022_Jul_26_0959,ProdSingRedoBetween,2021.2.3,59.96375799170103,
,,,,103,0,103,0,,,,,,,,,,,,,,,,,,,,,,985.8461813000031,None,,,,,,,,,,,,,,,,,state,74,104,sing,old,red,983.1891597998329,None,983.1891597998329,None,3,1.7965144999325275,983.1891597998329,None,1.7965144999325275,985.0166428000666,None,985.5380775998347,None,985.5380775998347,None,f,0.27957439981400967,985.5380775998347,None,0.27957439981400967,,,Sing6,001,2022_Jul_26_0959,ProdSingRedoBetween,2021.2.3,59.96375799170103,
,,,,104,0,104,0,,,,,,,,,,,,,,,,,,,,,,988.4895067997277,None,,,,,,,,,,,,,,,,,force,45,105,sing,old,blue,986.3646571999416,None,986.3646571999416,None,1,1.269053400028497,986.3646571999416,None,1.269053400028497,987.6806101999246,None,988.1886248001829,None,988.1886248001829,None,n,0.2692377003841102,988.1886248001829,None,0.2692377003841102,,,Sing6,001,2022_Jul_26_0959,ProdSingRedoBetween,2021.2.3,59.96375799170103,
,,,,105,0,105,0,,,,,,,,,,,,,,,,,,,,,,991.4756991001777,None,,,,,,,,,,,,,,,,,appearance,71,106,sing,old,red,989.0146727999672,None,989.0146727999672,None,1,1.3392179999500513,989.0146727999672,None,1.3392179999500513,990.3949023000896,None,990.9089156999253,None,990.9089156999253,None,n,0.5408384003676474,990.9089156999253,None,0.5408384003676474,,,Sing6,001,2022_Jul_26_0959,ProdSingRedoBetween,2021.2.3,59.96375799170103,
,,,,106,0,106,0,,,,,,,,,,,,,,,,,,,,,,995.0621397998184,None,,,,,,,,,,,,,,,,,conference,68,107,sing,old,red,992.0005030999891,None,992.0005030999891,None,1,2.2251772000454366,992.0005030999891,None,2.2251772000454366,994.2609393000603,None,994.7798969000578,None,994.7798969000578,None,n,0.25394519977271557,994.7798969000578,None,0.25394519977271557,,,Sing6,001,2022_Jul_26_0959,ProdSingRedoBetween,2021.2.3,59.96375799170103,
,,,,107,0,107,0,,,,,,,,,,,,,,,,,,,,,,998.1574426000006,None,,,,,,,,,,,,,,,,,guard,137,108,sing,new,null,995.5850752000697,None,995.5850752000697,None,3,1.6405124003067613,995.5850752000697,None,1.6405124003067613,997.2564174998552,None,997.7571139000356,None,997.7571139000356,None,f,0.3804269996471703,997.7571139000356,None,0.3804269996471703,,,Sing6,001,2022_Jul_26_0959,ProdSingRedoBetween,2021.2.3,59.96375799170103,
,,,,108,0,108,0,,,,,,,,,,,,,,,,,,,,,,1001.8125080000609,None,,,,,,,,,,,,,,,,,escape,117,109,sing,new,null,998.6579542998224,None,998.6579542998224,None,1,1.991571200080216,998.6579542998224,None,1.991571200080216,1000.676526399795,None,1001.1772750001401,None,1001.1772750001401,None,n,0.6163913998752832,1001.1772750001401,None,0.6163913998752832,,,Sing6,001,2022_Jul_26_0959,ProdSingRedoBetween,2021.2.3,59.96375799170103,
,,,,109,0,109,0,,,,,,,,,,,,,,,,,,,,,,1004.3704570997506,None,,,,,,,,,,,,,,,,,broke,120,110,sing,new,null,1002.3270884999074,None,1002.3270884999074,None,1,1.1786249000579119,1002.3270884999074,None,1.1786249000579119,1003.5393197997473,None,1004.0589888999239,None,1004.0589888999239,None,n,0.28690569987520576,1004.0589888999239,None,0.28690569987520576,,,Sing6,001,2022_Jul_26_0959,ProdSingRedoBetween,2021.2.3,59.96375799170103,
,,,,110,0,110,0,,,,,,,,,,,,,,,,,,,,,,1008.0018599000759,None,,,,,,,,,,,,,,,,,mankind,119,111,sing,new,null,1004.896402399987,None,1004.896402399987,None,1,2.289257800206542,1004.896402399987,None,2.289257800206542,1007.2271481999196,None,1007.7422261000611,None,1007.7422261000611,None,n,0.24344330001622438,1007.7422261000611,None,0.24344330001622438,,,Sing6,001,2022_Jul_26_0959,ProdSingRedoBetween,2021.2.3,59.96375799170103,
,,,,111,0,111,0,,,,,,,,,,,,,,,,,,,,,,1010.6889725998044,None,,,,,,,,,,,,,,,,,character,54,112,sing,old,blue,1008.5170795000158,None,1008.5170795000158,None,1,1.3647440997883677,1008.5170795000158,None,1.3647440997883677,1009.9166582999751,None,1010.4279831000604,None,1010.4279831000604,None,n,0.23772199964150786,1010.4279831000604,None,0.23772199964150786,,,Sing6,001,2022_Jul_26_0959,ProdSingRedoBetween,2021.2.3,59.96375799170103,
,,,,112,0,112,0,,,,,,,,,,,,,,,,,,,,,,1014.9296061000787,None,,,,,,,,,,,,,,,,,atmosphere,85,113,sing,old,red,1011.2179731000215,None,1011.2179731000215,None,1,3.079717699903995,1011.2179731000215,None,3.079717699903995,1014.3307623001747,None,1014.8504762998782,None,1014.8504762998782,None,n,0.055478000082075596,1014.8504762998782,None,0.055478000082075596,,,Sing6,001,2022_Jul_26_0959,ProdSingRedoBetween,2021.2.3,59.96375799170103,
,,,,113,0,113,0,,,,,,,,,,,,,,,,,,,,,,1022.7056887000799,None,,,,,,,,,,,,,,,,,cover,98,114,sing,new,null,1015.458335199859,None,1015.458335199859,None,1,4.607464500237256,1015.458335199859,None,4.607464500237256,1020.1121547999792,None,1020.6191433998756,None,1020.6191433998756,None,n,2.054612500127405,1020.6191433998756,None,2.054612500127405,,,Sing6,001,2022_Jul_26_0959,ProdSingRedoBetween,2021.2.3,59.96375799170103,
,,,,114,0,114,0,,,,,,,,,,,,,,,,,,,,,,1025.2279852000065,None,,,,,,,,,,,,,,,,,addition,124,115,sing,new,null,1023.2289617001079,None,1023.2289617001079,None,1,1.1408184003084898,1023.2289617001079,None,1.1408184003084898,1024.411662499886,None,1024.9274053000845,None,1024.9274053000845,None,n,0.2745336997322738,1024.9274053000845,None,0.2745336997322738,,,Sing6,001,2022_Jul_26_0959,ProdSingRedoBetween,2021.2.3,59.96375799170103,
,,,,115,0,115,0,,,,,,,,,,,,,,,,,,,,,,1028.6098301000893,None,,,,,,,,,,,,,,,,,generation,150,116,sing,new,null,1025.748882799875,None,1025.748882799875,None,1,1.9007966998033226,1025.748882799875,None,1.9007966998033226,1027.6788026001304,None,1028.1874359999783,None,1028.1874359999783,None,n,0.3903828002512455,1028.1874359999783,None,0.3903828002512455,,,Sing6,001,2022_Jul_26_0959,ProdSingRedoBetween,2021.2.3,59.96375799170103,
,,,,116,0,116,0,,,,,,,,,,,,,,,,,,,,,,1033.2697886000387,None,,,,,,,,,,,,,,,,,career,28,117,sing,old,yellow,1029.135215099901,None,1029.135215099901,None,3,2.9785837000235915,1029.135215099901,None,2.9785837000235915,1032.1503328001127,None,1032.6658295001835,None,1032.6658295001835,None,f,0.5759387998841703,1032.6658295001835,None,0.5759387998841703,,,Sing6,001,2022_Jul_26_0959,ProdSingRedoBetween,2021.2.3,59.96375799170103,
,,,,117,0,117,0,,,,,,,,,,,,,,,,,,,,,,1036.5997656998225,None,,,,,,,,,,,,,,,,,harmony,165,118,sing,new,null,1033.795948999934,None,1033.795948999934,None,1,1.8058326998725533,1033.795948999934,None,1.8058326998725533,1035.6442937999964,None,1036.1530402000062,None,1036.1530402000062,None,n,0.4165627001784742,1036.1530402000062,None,0.4165627001784742,,,Sing6,001,2022_Jul_26_0959,ProdSingRedoBetween,2021.2.3,59.96375799170103,
,,,,118,0,118,0,,,,,,,,,,,,,,,,,,,,,,1038.75034470018,None,,,,,,,,,,,,,,,,,frank,104,119,sing,new,null,1037.1290389997885,None,1037.1290389997885,None,1,0.8964033001102507,1037.1290389997885,None,0.8964033001102507,1038.0540109998547,None,1038.57251980016,None,1038.57251980016,None,n,0.1571781001985073,1038.57251980016,None,0.1571781001985073,,,Sing6,001,2022_Jul_26_0959,ProdSingRedoBetween,2021.2.3,59.96375799170103,
,,,,119,0,119,0,,,,,,,,,,,,,,,,,,,,,,1042.6359099000692,None,,,,,,,,,,,,,,,,,shape,127,120,sing,new,null,1039.2806400000118,None,1039.2806400000118,None,1,2.521312199998647,1039.2806400000118,None,2.521312199998647,1041.834828299936,None,1042.3421706999652,None,1042.3421706999652,None,n,0.2755028000101447,1042.3421706999652,None,0.2755028000101447,,,Sing6,001,2022_Jul_26_0959,ProdSingRedoBetween,2021.2.3,59.96375799170103,
,,,,120,0,120,0,,,,,,,,,,,,,,,,,,,,,,1045.6066859001294,None,,,,,,,,,,,,,,,,,trial,86,121,sing,old,red,1043.1510340999812,None,1043.1510340999812,None,1,1.5228710998781025,1043.1510340999812,None,1.5228710998781025,1044.7227997998707,None,1045.246753399726,None,1045.246753399726,None,n,0.33906259993091226,1045.246753399726,None,0.33906259993091226,,,Sing6,001,2022_Jul_26_0959,ProdSingRedoBetween,2021.2.3,59.96375799170103,
,,,,121,0,121,0,,,,,,,,,,,,,,,,,,,,,,1049.6448213998228,None,,,,,,,,,,,,,,,,,testimony,46,122,sing,old,blue,1046.1379717001691,None,1046.1379717001691,None,1,2.6797939999960363,1046.1379717001691,None,2.6797939999960363,1048.8600147999823,None,1049.36853899993,None,1049.36853899993,None,n,0.25725340005010366,1049.36853899993,None,0.25725340005010366,,,Sing6,001,2022_Jul_26_0959,ProdSingRedoBetween,2021.2.3,59.96375799170103,
,,,,122,0,122,0,,,,,,,,,,,,,,,,,,,,,,1054.767666600179,None,,,,,,,,,,,,,,,,,measure,173,123,sing,new,null,1050.175094100181,None,1050.175094100181,None,1,3.938560599926859,1050.175094100181,None,3.938560599926859,1054.1349494997412,None,1054.6575123998336,None,1054.6575123998336,None,n,0.08005650015547872,1054.6575123998336,None,0.08005650015547872,,,Sing6,001,2022_Jul_26_0959,ProdSingRedoBetween,2021.2.3,59.96375799170103,
,,,,123,0,123,0,,,,,,,,,,,,,,,,,,,,,,1060.0939841000363,None,,,,,,,,,,,,,,,,,principal,13,124,sing,old,yellow,1055.2951255999506,None,1055.2951255999506,None,3,3.434509600047022,1055.2951255999506,None,3.434509600047022,1058.7586745000444,None,1059.2779484000057,None,1059.2779484000057,None,f,0.7880464000627398,1059.2779484000057,None,0.7880464000627398,,,Sing6,001,2022_Jul_26_0959,ProdSingRedoBetween,2021.2.3,59.96375799170103,
,,,,124,0,124,0,,,,,,,,,,,,,,,,,,,,,,1068.201773200184,None,,,,,,,,,,,,,,,,,turkey,129,125,sing,new,null,1060.623540900182,None,1060.623540900182,None,1,6.42620290024206,1060.623540900182,None,6.42620290024206,1067.0956878997386,None,1067.6045166999102,None,1067.6045166999102,None,n,0.5734616001136601,1067.6045166999102,None,0.5734616001136601,,,Sing6,001,2022_Jul_26_0959,ProdSingRedoBetween,2021.2.3,59.96375799170103,
,,,,125,0,125,0,,,,,,,,,,,,,,,,,,,,,,1070.9823111998849,None,,,,,,,,,,,,,,,,,salary,19,126,sing,old,yellow,1068.7255569999106,None,1068.7255569999106,None,1,1.3481390001252294,1068.7255569999106,None,1.3481390001252294,1070.1049322001636,None,1070.6225076001137,None,1070.6225076001137,None,n,0.33113040030002594,1070.6225076001137,None,0.33113040030002594,,,Sing6,001,2022_Jul_26_0959,ProdSingRedoBetween,2021.2.3,59.96375799170103,
,,,,126,0,126,0,,,,,,,,,,,,,,,,,,,,,,1074.174797100015,None,,,,,,,,,,,,,,,,,symbol,177,127,sing,new,null,1071.5108570000157,None,1071.5108570000157,None,1,1.8348115999251604,1071.5108570000157,None,1.8348115999251604,1073.3737602997571,None,1073.8920871997252,None,1073.8920871997252,None,n,0.2538136998191476,1073.8920871997252,None,0.2538136998191476,,,Sing6,001,2022_Jul_26_0959,ProdSingRedoBetween,2021.2.3,59.96375799170103,
,,,,127,0,127,0,,,,,,,,,,,,,,,,,,,,,,1079.5649486999027,None,,,,,,,,,,,,,,,,,substance,40,128,sing,old,blue,1074.69726860011,None,1074.69726860011,None,1,3.9446743996813893,1074.69726860011,None,3.9446743996813893,1078.690007199999,None,1079.2006628997624,None,1079.2006628997624,None,n,0.3291039001196623,1079.2006628997624,None,0.3291039001196623,,,Sing6,001,2022_Jul_26_0959,ProdSingRedoBetween,2021.2.3,59.96375799170103,
,,,,128,0,128,0,,,,,,,,,,,,,,,,,,,,,,1081.709183299914,None,,,,,,,,,,,,,,,,,industry,121,129,sing,new,null,1080.0869370000437,None,1080.0869370000437,None,1,0.7947511002421379,1080.0869370000437,None,0.7947511002421379,1080.9128485997207,None,1081.4358852999285,None,1081.4358852999285,None,n,0.25371780013665557,1081.4358852999285,None,0.25371780013665557,,,Sing6,001,2022_Jul_26_0959,ProdSingRedoBetween,2021.2.3,59.96375799170103,
,,,,129,0,129,0,,,,,,,,,,,,,,,,,,,,,,1085.3529221001081,None,,,,,,,,,,,,,,,,,curve,64,130,sing,old,red,1082.2264721998945,None,1082.2264721998945,None,1,2.287303499877453,1082.2264721998945,None,2.287303499877453,1084.55791650014,None,1085.0689559001476,None,1085.0689559001476,None,n,0.26091729989275336,1085.0689559001476,None,0.26091729989275336,,,Sing6,001,2022_Jul_26_0959,ProdSingRedoBetween,2021.2.3,59.96375799170103,
,,,,130,0,130,0,,,,,,,,,,,,,,,,,,,,,,1087.6555114998482,None,,,,,,,,,,,,,,,,,title,162,131,sing,new,null,1085.8746369001456,None,1085.8746369001456,None,1,0.9271423001773655,1085.8746369001456,None,0.9271423001773655,1086.8422623998486,None,1087.3531825998798,None,1087.3531825998798,None,n,0.27257509995251894,1087.3531825998798,None,0.27257509995251894,,,Sing6,001,2022_Jul_26_0959,ProdSingRedoBetween,2021.2.3,59.96375799170103,
,,,,131,0,131,0,,,,,,,,,,,,,,,,,,,,,,1090.3020556000993,None,,,,,,,,,,,,,,,,,session,172,132,sing,new,null,1088.1765993000008,None,1088.1765993000008,None,1,1.361172300297767,1088.1765993000008,None,1.361172300297767,1089.5771452998742,None,1090.0927160000429,None,1090.0927160000429,None,n,0.18883110024034977,1090.0927160000429,None,0.18883110024034977,,,Sing6,001,2022_Jul_26_0959,ProdSingRedoBetween,2021.2.3,59.96375799170103,
,,,,132,0,132,0,,,,,,,,,,,,,,,,,,,,,,1094.9401442999952,None,,,,,,,,,,,,,,,,,touch,83,133,sing,old,red,1090.8167635998689,None,1090.8167635998689,None,1,3.2729437998495996,1090.8167635998689,None,3.2729437998495996,1094.1311936001293,None,1094.6443265997805,None,1094.6443265997805,None,n,0.269257300067693,1094.6443265997805,None,0.269257300067693,,,Sing6,001,2022_Jul_26_0959,ProdSingRedoBetween,2021.2.3,59.96375799170103,
,,,,133,0,133,0,,,,,,,,,,,,,,,,,,,,,,1101.6708542001434,None,,,,,,,,,,,,,,,,,display,25,134,sing,old,yellow,1095.471209499985,None,1095.471209499985,None,1,5.1065452001057565,1095.471209499985,None,5.1065452001057565,1100.6133109000511,None,1101.1184076997451,None,1101.1184076997451,None,n,0.5153048001229763,1101.1184076997451,None,0.5153048001229763,,,Sing6,001,2022_Jul_26_0959,ProdSingRedoBetween,2021.2.3,59.96375799170103,
,,,,134,0,134,0,,,,,,,,,,,,,,,,,,,,,,1104.0820963000879,None,,,,,,,,,,,,,,,,,benefit,55,135,sing,old,blue,1102.1925212000497,None,1102.1925212000497,None,1,1.0331143997609615,1102.1925212000497,None,1.0331143997609615,1103.2570146000944,None,1103.7727483999915,None,1103.7727483999915,None,n,0.2769033000804484,1103.7727483999915,None,0.2769033000804484,,,Sing6,001,2022_Jul_26_0959,ProdSingRedoBetween,2021.2.3,59.96375799170103,
,,,,135,0,135,0,,,,,,,,,,,,,,,,,,,,,,1107.5382626997307,None,,,,,,,,,,,,,,,,,interview,109,136,sing,new,null,1104.617717700079,None,1104.617717700079,None,1,2.0479409000836313,1104.617717700079,None,2.0479409000836313,1106.6963772000745,None,1107.208747399971,None,1107.208747399971,None,n,0.2970368000678718,1107.208747399971,None,0.2970368000678718,,,Sing6,001,2022_Jul_26_0959,ProdSingRedoBetween,2021.2.3,59.96375799170103,
,,,,136,0,136,0,,,,,,,,,,,,,,,,,,,,,,1111.1703071999364,None,,,,,,,,,,,,,,,,,partner,176,137,sing,new,null,1108.0571885001846,None,1108.0571885001846,None,1,2.1925904997624457,1108.0571885001846,None,2.1925904997624457,1110.2873919997364,None,1110.7949987999164,None,1110.7949987999164,None,n,0.3505493002012372,1110.7949987999164,None,0.3505493002012372,,,Sing6,001,2022_Jul_26_0959,ProdSingRedoBetween,2021.2.3,59.96375799170103,
,,,,137,0,137,0,,,,,,,,,,,,,,,,,,,,,,1115.2648061001673,None,,,,,,,,,,,,,,,,,clean,178,138,sing,new,null,1111.684662600048,None,1111.684662600048,None,1,1.1570898997597396,1111.684662600048,None,1.1570898997597396,1112.8816065001301,None,1113.396303200163,None,1113.396303200163,None,n,1.837433099746704,1113.396303200163,None,1.837433099746704,,,Sing6,001,2022_Jul_26_0959,ProdSingRedoBetween,2021.2.3,59.96375799170103,
,,,,138,0,138,0,,,,,,,,,,,,,,,,,,,,,,1118.296470799949,None,,,,,,,,,,,,,,,,,election,6,139,sing,old,yellow,1115.7850776999258,None,1115.7850776999258,None,3,1.6486657001078129,1115.7850776999258,None,1.6486657001078129,1117.472975499928,None,1117.9871291001327,None,1117.9871291001327,None,f,0.2864776998758316,1117.9871291001327,None,0.2864776998758316,,,Sing6,001,2022_Jul_26_0959,ProdSingRedoBetween,2021.2.3,59.96375799170103,
,,,,139,0,139,0,,,,,,,,,,,,,,,,,,,,,,1120.7964169997722,None,,,,,,,,,,,,,,,,,income,159,140,sing,new,null,1118.8250894001685,None,1118.8250894001685,None,1,1.1284269001334906,1118.8250894001685,None,1.1284269001334906,1119.9849119000137,None,1120.506538799964,None,1120.506538799964,None,n,0.2709005996584892,1120.506538799964,None,0.2709005996584892,,,Sing6,001,2022_Jul_26_0959,ProdSingRedoBetween,2021.2.3,59.96375799170103,
,,,,140,0,140,0,,,,,,,,,,,,,,,,,,,,,,1125.0633410001174,None,,,,,,,,,,,,,,,,,portion,38,141,sing,old,blue,1121.2996507999487,None,1121.2996507999487,None,1,2.9257505000568926,1121.2996507999487,None,2.9257505000568926,1124.2551692998968,None,1124.7672211998142,None,1124.7672211998142,None,n,0.2584414999000728,1124.7672211998142,None,0.2584414999000728,,,Sing6,001,2022_Jul_26_0959,ProdSingRedoBetween,2021.2.3,59.96375799170103,
,,,,141,0,141,0,,,,,,,,,,,,,,,,,,,,,,1128.507639599964,None,,,,,,,,,,,,,,,,,capital,174,142,sing,new,null,1125.5702733001672,None,1125.5702733001672,None,3,2.255433099810034,1125.5702733001672,None,2.255433099810034,1127.8669949001633,None,1128.380566000007,None,1128.380566000007,None,f,0.10106540005654097,1128.380566000007,None,0.10106540005654097,,,Sing6,001,2022_Jul_26_0959,ProdSingRedoBetween,2021.2.3,59.96375799170103,
,,,,142,0,142,0,,,,,,,,,,,,,,,,,,,,,,1133.3450134997256,None,,,,,,,,,,,,,,,,,comedy,87,143,sing,old,red,1129.0376538997516,None,1129.0376538997516,None,5,3.3642824003472924,1129.0376538997516,None,3.3642824003472924,1132.4395066997968,None,1132.9511672998779,None,1132.9511672998779,None,r,0.3704260000959039,1132.9511672998779,None,0.3704260000959039,,,Sing6,001,2022_Jul_26_0959,ProdSingRedoBetween,2021.2.3,59.96375799170103,
,,,,143,0,143,0,,,,,,,,,,,,,,,,,,,,,,1137.4705297998153,None,,,,,,,,,,,,,,,,,country,92,144,sing,new,null,1133.872782099992,None,1133.872782099992,None,1,1.9128979998640716,1133.872782099992,None,1.9128979998640716,1135.824698700104,None,1136.3362453998998,None,1136.3362453998998,None,n,1.0975036998279393,1136.3362453998998,None,1.0975036998279393,,,Sing6,001,2022_Jul_26_0959,ProdSingRedoBetween,2021.2.3,59.96375799170103,
,,,,144,0,144,0,,,,,,,,,,,,,,,,,,,,,,1141.935618000105,None,,,,,,,,,,,,,,,,,exchange,146,145,sing,new,null,1137.9984595999122,None,1137.9984595999122,None,1,2.747208099812269,1137.9984595999122,None,2.747208099812269,1140.7798015000299,None,1141.293930800166,None,1141.293930800166,None,n,0.6196595998480916,1141.293930800166,None,0.6196595998480916,,,Sing6,001,2022_Jul_26_0959,ProdSingRedoBetween,2021.2.3,59.96375799170103,
,,,,145,0,145,0,,,,,,,,,,,,,,,,,,,,,,1148.0475217001513,None,,,,,,,,,,,,,,,,,religion,91,146,sing,new,null,1142.4479988999665,None,1142.4479988999665,None,4,4.56173129985109,1142.4479988999665,None,4.56173129985109,1147.0487242001109,None,1147.5630005998537,None,1147.5630005998537,None,f,0.45466949976980686,1147.5630005998537,None,0.45466949976980686,,,Sing6,001,2022_Jul_26_0959,ProdSingRedoBetween,2021.2.3,59.96375799170103,
,,,,146,0,146,0,,,,,,,,,,,,,,,,,,,,,,1152.082728699781,None,,,,,,,,,,,,,,,,,graduate,10,147,sing,old,yellow,1148.5739929997362,None,1148.5739929997362,None,6,1.899849099572748,1148.5739929997362,None,1.899849099572748,1150.5041470001452,None,1151.0101886000484,None,1151.0101886000484,None,r,1.0474077998660505,1151.0101886000484,None,1.0474077998660505,,,Sing6,001,2022_Jul_26_0959,ProdSingRedoBetween,2021.2.3,59.96375799170103,
,,,,147,0,147,0,,,,,,,,,,,,,,,,,,,,,,1155.4321030997671,None,,,,,,,,,,,,,,,,,south,95,148,sing,new,null,1152.6109988000244,None,1152.6109988000244,None,1,1.9107184000313282,1152.6109988000244,None,1.9107184000313282,1154.5633352999575,None,1155.0736094997264,None,1155.0736094997264,None,n,0.3279702002182603,1155.0736094997264,None,0.3279702002182603,,,Sing6,001,2022_Jul_26_0959,ProdSingRedoBetween,2021.2.3,59.96375799170103,
,,,,148,0,148,0,,,,,,,,,,,,,,,,,,,,,,1160.4107021000236,None,,,,,,,,,,,,,,,,,second,30,149,sing,old,blue,1155.9484235001728,None,1155.9484235001728,None,6,3.3332616998814046,1155.9484235001728,None,3.3332616998814046,1159.314429699909,None,1159.8264513998292,None,1159.8264513998292,None,f,0.5593218002468348,1159.8264513998292,None,0.5593218002468348,,,Sing6,001,2022_Jul_26_0959,ProdSingRedoBetween,2021.2.3,59.96375799170103,
,,,,149,0,149,0,,,,,,,,,,,,,,,,,,,,,,1164.5085256998427,None,,,,,,,,,,,,,,,,,audience,151,150,sing,new,null,1160.9325899998657,None,1160.9325899998657,None,5,2.564874699804932,1160.9325899998657,None,2.564874699804932,1163.5299486997537,None,1164.0494639999233,None,1164.0494639999233,None,f,0.44011579966172576,1164.0494639999233,None,0.44011579966172576,,,Sing6,001,2022_Jul_26_0959,ProdSingRedoBetween,2021.2.3,59.96375799170103,
,,,,150,0,150,0,,,,,,,,,,,,,,,,,,,,,,1166.8118480998091,None,,,,,,,,,,,,,,,,,death,168,151,sing,new,null,1165.02176839998,None,1165.02176839998,None,1,0.987803999800235,1165.02176839998,None,0.987803999800235,1166.0319982999936,None,1166.5494053000584,None,1166.5494053000584,None,n,0.24439539993181825,1166.5494053000584,None,0.24439539993181825,,,Sing6,001,2022_Jul_26_0959,ProdSingRedoBetween,2021.2.3,59.96375799170103,
,,,,151,0,151,0,,,,,,,,,,,,,,,,,,,,,,1169.3315805001184,None,,,,,,,,,,,,,,,,,cross,15,152,sing,old,yellow,1167.3405754999258,None,1167.3405754999258,None,1,1.1332804998382926,1167.3405754999258,None,1.1332804998382926,1168.5131699000485,None,1169.0366604998708,None,1169.0366604998708,None,n,0.26891859993338585,1169.0366604998708,None,0.26891859993338585,,,Sing6,001,2022_Jul_26_0959,ProdSingRedoBetween,2021.2.3,59.96375799170103,
,,,,152,0,152,0,,,,,,,,,,,,,,,,,,,,,,1172.8180301999673,None,,,,,,,,,,,,,,,,,theme,21,153,sing,old,yellow,1169.8581622000784,None,1169.8581622000784,None,1,2.295544399879873,1169.8581622000784,None,2.295544399879873,1172.1912082000636,None,1172.70734239975,None,1172.70734239975,None,n,0.07834619982168078,1172.70734239975,None,0.07834619982168078,,,Sing6,001,2022_Jul_26_0959,ProdSingRedoBetween,2021.2.3,59.96375799170103,
,,,,153,0,153,0,,,,,,,,,,,,,,,,,,,,,,1175.4853833997622,None,,,,,,,,,,,,,,,,,worker,157,154,sing,new,null,1173.3458055001684,None,1173.3458055001684,None,1,1.4157811999320984,1173.3458055001684,None,1.4157811999320984,1174.7950765001588,None,1175.3072188999504,None,1175.3072188999504,None,n,0.1502789999358356,1175.3072188999504,None,0.1502789999358356,,,Sing6,001,2022_Jul_26_0959,ProdSingRedoBetween,2021.2.3,59.96375799170103,
,,,,154,0,154,0,,,,,,,,,,,,,,,,,,,,,,1178.7406449001282,None,,,,,,,,,,,,,,,,,rough,153,155,sing,new,null,1175.9996154000983,None,1175.9996154000983,None,1,1.8739681001752615,1175.9996154000983,None,1.8739681001752615,1177.9113696999848,None,1178.4276324999519,None,1178.4276324999519,None,n,0.2860178998671472,1178.4276324999519,None,0.2860178998671472,,,Sing6,001,2022_Jul_26_0959,ProdSingRedoBetween,2021.2.3,59.96375799170103,
,,,,155,0,155,0,,,,,,,,,,,,,,,,,,,,,,1182.5760451001115,None,,,,,,,,,,,,,,,,,business,36,156,sing,old,blue,1179.2684844001196,None,1179.2684844001196,None,3,2.445076800417155,1179.2684844001196,None,2.445076800417155,1181.7519497000612,None,1182.2687289998867,None,1182.2687289998867,None,f,0.2768189003691077,1182.2687289998867,None,0.2768189003691077,,,Sing6,001,2022_Jul_26_0959,ProdSingRedoBetween,2021.2.3,59.96375799170103,
,,,,156,0,156,0,,,,,,,,,,,,,,,,,,,,,,1184.9964311001822,None,,,,,,,,,,,,,,,,,discovery,50,157,sing,old,blue,1183.1011324999854,None,1183.1011324999854,None,1,1.0443421001546085,1183.1011324999854,None,1.0443421001546085,1184.1829560999759,None,1184.7027155999094,None,1184.7027155999094,None,n,0.26692310022190213,1184.7027155999094,None,0.26692310022190213,,,Sing6,001,2022_Jul_26_0959,ProdSingRedoBetween,2021.2.3,59.96375799170103,
,,,,157,0,157,0,,,,,,,,,,,,,,,,,,,,,,1188.8311708997935,None,,,,,,,,,,,,,,,,,pressure,93,158,sing,new,null,1185.531239000149,None,1185.531239000149,None,3,2.262147500179708,1185.531239000149,None,2.262147500179708,1187.8237426001579,None,1188.3306935001165,None,1188.3306935001165,None,f,0.47071610018610954,1188.3306935001165,None,0.47071610018610954,,,Sing6,001,2022_Jul_26_0959,ProdSingRedoBetween,2021.2.3,59.96375799170103,
,,,,158,0,158,0,,,,,,,,,,,,,,,,,,,,,,1192.626787699759,None,,,,,,,,,,,,,,,,,question,94,159,sing,new,null,1189.3548944997601,None,1189.3548944997601,None,5,1.9666898003779352,1189.3548944997601,None,1.9666898003779352,1191.3528403001837,None,1191.8805216997862,None,1191.8805216997862,None,f,0.7212535999715328,1191.8805216997862,None,0.7212535999715328,,,Sing6,001,2022_Jul_26_0959,ProdSingRedoBetween,2021.2.3,59.96375799170103,
,,,,159,0,159,0,,,,,,,,,,,,,,,,,,,,,,1195.457425700035,None,,,,,,,,,,,,,,,,,strength,23,160,sing,old,yellow,1193.1507552000694,None,1193.1507552000694,None,1,1.4828282999806106,1193.1507552000694,None,1.4828282999806106,1194.6642685998231,None,1195.1819357997738,None,1195.1819357997738,None,n,0.25159880006685853,1195.1819357997738,None,0.25159880006685853,,,Sing6,001,2022_Jul_26_0959,ProdSingRedoBetween,2021.2.3,59.96375799170103,
,,,,160,0,160,0,,,,,,,,,,,,,,,,,,,,,,1200.4154941998422,None,,,,,,,,,,,,,,,,,patient,70,161,sing,old,red,1195.9865787001327,None,1195.9865787001327,None,4,3.4789130999706686,1195.9865787001327,None,3.4789130999706686,1199.4972771997564,None,1200.017233000137,None,1200.017233000137,None,f,0.36842199973762035,1200.017233000137,None,0.36842199973762035,,,Sing6,001,2022_Jul_26_0959,ProdSingRedoBetween,2021.2.3,59.96375799170103,
,,,,161,0,161,0,,,,,,,,,,,,,,,,,,,,,,1206.348639300093,None,,,,,,,,,,,,,,,,,scene,103,162,sing,new,null,1200.9403470000252,None,1200.9403470000252,None,2,4.405462199822068,1200.9403470000252,None,4.405462199822068,1205.3754378999583,None,1205.8890566001646,None,1205.8890566001646,None,f,0.43243789998814464,1205.8890566001646,None,0.43243789998814464,,,Sing6,001,2022_Jul_26_0959,ProdSingRedoBetween,2021.2.3,59.96375799170103,
,,,,162,0,162,0,,,,,,,,,,,,,,,,,,,,,,1209.888621099759,None,,,,,,,,,,,,,,,,,defeat,111,163,sing,new,null,1206.8645236999728,None,1206.8645236999728,None,6,2.1210818998515606,1206.8645236999728,None,2.1210818998515606,1209.031889599748,None,1209.542718899902,None,1209.542718899902,None,r,0.3228999995626509,1209.542718899902,None,0.3228999995626509,,,Sing6,001,2022_Jul_26_0959,ProdSingRedoBetween,2021.2.3,59.96375799170103,
,,,,163,0,163,0,,,,,,,,,,,,,,,,,,,,,,1213.5069825998507,None,,,,,,,,,,,,,,,,,alert,2,164,sing,old,yellow,1210.4117141999304,None,1210.4117141999304,None,1,1.5899211000651121,1210.4117141999304,None,1.5899211000651121,1212.029198399745,None,1212.546461199876,None,1212.546461199876,None,n,0.9431667001917958,1212.546461199876,None,0.9431667001917958,,,Sing6,001,2022_Jul_26_0959,ProdSingRedoBetween,2021.2.3,59.96375799170103,
,,,,164,0,164,0,,,,,,,,,,,,,,,,,,,,,,1218.1780674001202,None,,,,,,,,,,,,,,,,,working,62,165,sing,old,red,1214.0287933000363,None,1214.0287933000363,None,2,2.1010687998495996,1214.0287933000363,None,2.1010687998495996,1216.1713577001356,None,1216.688551899977,None,1216.688551899977,None,f,1.4730212003923953,1216.688551899977,None,1.4730212003923953,,,Sing6,001,2022_Jul_26_0959,ProdSingRedoBetween,2021.2.3,59.96375799170103,
,,,,165,0,165,0,,,,,,,,,,,,,,,,,,,,,,1220.8703650999814,None,,,,,,,,,,,,,,,,,household,175,166,sing,new,null,1218.6826551998965,None,1218.6826551998965,None,1,1.367031100206077,1218.6826551998965,None,1.367031100206077,1220.095746600069,None,1220.6053526997566,None,1220.6053526997566,None,n,0.23632150003686547,1220.6053526997566,None,0.23632150003686547,,,Sing6,001,2022_Jul_26_0959,ProdSingRedoBetween,2021.2.3,59.96375799170103,
,,,,166,0,166,0,,,,,,,,,,,,,,,,,,,,,,1224.6412458000705,None,,,,,,,,,,,,,,,,,dance,89,167,sing,old,red,1221.3919816999696,None,1221.3919816999696,None,3,2.201682799961418,1221.3919816999696,None,2.201682799961418,1223.6368680000305,None,1224.1569129000418,None,1224.1569129000418,None,f,0.46069510001689196,1224.1569129000418,None,0.46069510001689196,,,Sing6,001,2022_Jul_26_0959,ProdSingRedoBetween,2021.2.3,59.96375799170103,
,,,,167,0,167,0,,,,,,,,,,,,,,,,,,,,,,1228.3775904001668,None,,,,,,,,,,,,,,,,,mayor,108,168,sing,new,null,1225.1660943999887,None,1225.1660943999887,None,3,2.5235458998940885,1225.1660943999887,None,2.5235458998940885,1227.736111199949,None,1228.2471559001133,None,1228.2471559001133,None,f,0.10642959969118237,1228.2471559001133,None,0.10642959969118237,,,Sing6,001,2022_Jul_26_0959,ProdSingRedoBetween,2021.2.3,59.96375799170103,
,,,,168,0,168,0,,,,,,,,,,,,,,,,,,,,,,1232.2321799001656,None,,,,,,,,,,,,,,,,,command,8,169,sing,old,yellow,1228.9021244999021,None,1228.9021244999021,None,1,2.499511799775064,1228.9021244999021,None,2.499511799775064,1231.4380982997827,None,1231.9463236997835,None,1231.9463236997835,None,n,0.26334930025041103,1231.9463236997835,None,0.26334930025041103,,,Sing6,001,2022_Jul_26_0959,ProdSingRedoBetween,2021.2.3,59.96375799170103,
,,,,169,0,169,0,,,,,,,,,,,,,,,,,,,,,,1235.9865778000094,None,,,,,,,,,,,,,,,,,treatment,48,170,sing,old,blue,1232.7540779998526,None,1232.7540779998526,None,1,1.7274839002639055,1232.7540779998526,None,1.7274839002639055,1234.5198257998563,None,1235.027440899983,None,1235.027440899983,None,n,0.9342177999205887,1235.027440899983,None,0.9342177999205887,,,Sing6,001,2022_Jul_26_0959,ProdSingRedoBetween,2021.2.3,59.96375799170103,
,,,,170,0,170,0,,,,,,,,,,,,,,,,,,,,,,1239.0151388999075,None,,,,,,,,,,,,,,,,,stranger,82,171,sing,old,red,1236.507573899813,None,1236.507573899813,None,1,1.429991599638015,1236.507573899813,None,1.429991599638015,1237.9739458998665,None,1238.4882291997783,None,1238.4882291997783,None,n,0.4974004002287984,1238.4882291997783,None,0.4974004002287984,,,Sing6,001,2022_Jul_26_0959,ProdSingRedoBetween,2021.2.3,59.96375799170103,
,,,,171,0,171,0,,,,,,,,,,,,,,,,,,,,,,1243.3689081999473,None,,,,,,,,,,,,,,,,,position,52,172,sing,old,blue,1239.5319555997849,None,1239.5319555997849,None,1,2.957573799882084,1239.5319555997849,None,2.957573799882084,1242.5263260998763,None,1243.040993699804,None,1243.040993699804,None,n,0.30452439980581403,1243.040993699804,None,0.30452439980581403,,,Sing6,001,2022_Jul_26_0959,ProdSingRedoBetween,2021.2.3,59.96375799170103,
,,,,172,0,172,0,,,,,,,,,,,,,,,,,,,,,,1248.0919244000688,None,,,,,,,,,,,,,,,,,fashion,63,173,sing,old,red,1243.8872805000283,None,1243.8872805000283,None,3,3.154548400081694,1243.8872805000283,None,3.154548400081694,1247.1002484997734,None,1247.6148895998485,None,1247.6148895998485,None,f,0.4506957000121474,1247.6148895998485,None,0.4506957000121474,,,Sing6,001,2022_Jul_26_0959,ProdSingRedoBetween,2021.2.3,59.96375799170103,
,,,,173,0,173,0,,,,,,,,,,,,,,,,,,,,,,1250.8355741999112,None,,,,,,,,,,,,,,,,,close,58,174,sing,old,blue,1248.6086228000931,None,1248.6086228000931,None,3,1.4410127000883222,1248.6086228000931,None,1.4410127000883222,1250.0905234999955,None,1250.6021229000762,None,1250.6021229000762,None,f,0.2075157999061048,1250.6021229000762,None,0.2075157999061048,,,Sing6,001,2022_Jul_26_0959,ProdSingRedoBetween,2021.2.3,59.96375799170103,
,,,,174,0,174,0,,,,,,,,,,,,,,,,,,,,,,1255.0059243999422,None,,,,,,,,,,,,,,,,,column,88,175,sing,old,red,1251.355692499783,None,1251.355692499783,None,2,2.9097173996269703,1251.355692499783,None,2.9097173996269703,1254.2966388999484,None,1254.8131888001226,None,1254.8131888001226,None,f,0.16436289995908737,1254.8131888001226,None,0.16436289995908737,,,Sing6,001,2022_Jul_26_0959,ProdSingRedoBetween,2021.2.3,59.96375799170103,
,,,,175,0,175,0,,,,,,,,,,,,,,,,,,,,,,1259.1859419001266,None,,,,,,,,,,,,,,,,,weather,179,176,sing,new,null,1255.5292408000678,None,1255.5292408000678,None,1,2.77643879968673,1255.5292408000678,None,2.77643879968673,1258.3489621998742,None,1258.8573809000663,None,1258.8573809000663,None,n,0.30408510006964207,1258.8573809000663,None,0.30408510006964207,,,Sing6,001,2022_Jul_26_0959,ProdSingRedoBetween,2021.2.3,59.96375799170103,
,,,,176,0,176,0,,,,,,,,,,,,,,,,,,,,,,1261.989921899978,None,,,,,,,,,,,,,,,,,direction,90,177,sing,new,null,1259.6991166998632,None,1259.6991166998632,None,3,1.3904391000978649,1259.6991166998632,None,1.3904391000978649,1261.1281543998048,None,1261.6449430999346,None,1261.6449430999346,None,f,0.3246674998663366,1261.6449430999346,None,0.3246674998663366,,,Sing6,001,2022_Jul_26_0959,ProdSingRedoBetween,2021.2.3,59.96375799170103,
,,,,177,0,177,0,,,,,,,,,,,,,,,,,,,,,,1267.3103928999044,None,,,,,,,,,,,,,,,,,beauty,39,178,sing,old,blue,1262.5177218001336,None,1262.5177218001336,None,6,3.8439419004134834,1262.5177218001336,None,3.8439419004134834,1266.408093499951,None,1266.916520900093,None,1266.916520900093,None,r,0.3649225002154708,1266.916520900093,None,0.3649225002154708,,,Sing6,001,2022_Jul_26_0959,ProdSingRedoBetween,2021.2.3,59.96375799170103,
,,,,178,0,178,0,,,,,,,,,,,,,,,,,,,,,,1270.8964162999764,None,,,,,,,,,,,,,,,,,author,14,179,sing,old,yellow,1267.827673499938,None,1267.827673499938,None,2,2.16606800025329,1267.827673499938,None,2.16606800025329,1270.030138200149,None,1270.5375553998165,None,1270.5375553998165,None,f,0.33582729985937476,1270.5375553998165,None,0.33582729985937476,,,Sing6,001,2022_Jul_26_0959,ProdSingRedoBetween,2021.2.3,59.96375799170103,
