StudyLoop.thisRepN,StudyLoop.thisTrialN,StudyLoop.thisN,StudyLoop.thisIndex,TestLoop.thisRepN,TestLoop.thisTrialN,TestLoop.thisN,TestLoop.thisIndex,textCondition.started,textCondition.stopped,keyCondition.keys,keyCondition.rt,keyCondition.started,keyCondition.stopped,Condition,textWelcome.started,textWelcome.stopped,keyWelcome.keys,keyWelcome.rt,keyWelcome.started,keyWelcome.stopped,textAloud.started,textAloud.stopped,textSilent.started,textSilent.stopped,textSing.started,textSing.stopped,conditional_text.started,conditional_text.stopped,textBlank500.started,textBlank500.stopped,study_word,study_num,study_order,study_type,word_color,textStudy.started,textStudy.stopped,keyStudy.keys,keyStudy.started,keyStudy.stopped,textTestInstructions.started,textTestInstructions.stopped,key_resp_3.keys,key_resp_3.rt,key_resp_3.started,key_resp_3.stopped,test_word,test_num,test_order,test_condition,old_new_test,test_word_original_color,textConf.started,textConf.stopped,textConfScale.started,textConfScale.stopped,keyConf.keys,keyConf.rt,keyConf.started,keyConf.stopped,confidence response time,textTestBlank.started,textTestBlank.stopped,textRKN.started,textRKN.stopped,textRKNScale.started,textRKNScale.stopped,keyRKN.keys,keyRKN.rt,keyRKN.started,keyRKN.stopped,rkn response time,textEnd.started,textEnd.stopped,participant,session,date,expName,psychopyVersion,frameRate
,,,,,,,,75.1263161,None,c,3722.472936,75.1263161,None,,,,,,,,,,,,,,,,,,,,,,,,,,,,,,,,,,,,,,,,,,,,,,,,,,,,,,,,,,,,,,August8Sing1,21,2022_Aug_08_1355,ProdSingRedoBetween,2021.2.3,59.94582097
,,,,,,,,,,,,,,SingTest,3797.646522,None,space,22.7448507,3797.646522,None,,,,,,,,,,,,,,,,,,,,,,,,,,,,,,,,,,,,,,,,,,,,,,,,,,,,,,,August8Sing1,21,2022_Aug_08_1355,ProdSingRedoBetween,2021.2.3,59.94582097
0,0,0,0,,,,,,,,,,,,,,,,,,3797.646522,None,3797.646522,None,3797.646522,None,3797.646522,None,3822.939693,None,native,31,1,sing,blue,3820.941467,None,None,3820.941467,None,,,,,,,,,,,,,,,,,,,,,,,,,,,,,,,,,,,August8Sing1,21,2022_Aug_08_1355,ProdSingRedoBetween,2021.2.3,59.94582097
1,0,1,0,,,,,,,,,,,,,,,,,,,,,,,,,,3825.458954,None,guide,69,2,sing,red,3823.447426,None,None,3823.447426,None,,,,,,,,,,,,,,,,,,,,,,,,,,,,,,,,,,,August8Sing1,21,2022_Aug_08_1355,ProdSingRedoBetween,2021.2.3,59.94582097
2,0,2,0,,,,,,,,,,,,,,,,,,,,,,,,,,3827.961505,None,interview,70,3,sing,red,3825.960589,None,None,3825.960589,None,,,,,,,,,,,,,,,,,,,,,,,,,,,,,,,,,,,August8Sing1,21,2022_Aug_08_1355,ProdSingRedoBetween,2021.2.3,59.94582097
3,0,3,0,,,,,,,,,,,,,,,,,,,,,,,,,,3830.463943,None,bitter,58,4,sing,blue,3828.461893,None,None,3828.461893,None,,,,,,,,,,,,,,,,,,,,,,,,,,,,,,,,,,,August8Sing1,21,2022_Aug_08_1355,ProdSingRedoBetween,2021.2.3,59.94582097
4,0,4,0,,,,,,,,,,,,,,,,,,,,,,,,,,3832.966384,None,hearing,22,5,sing,yellow,3830.964094,None,None,3830.964094,None,,,,,,,,,,,,,,,,,,,,,,,,,,,,,,,,,,,August8Sing1,21,2022_Aug_08_1355,ProdSingRedoBetween,2021.2.3,59.94582097
5,0,5,0,,,,,,,,,,,,,,,,,,,,,,,,,,3835.4689,None,state,84,6,sing,red,3833.466873,None,None,3833.466873,None,,,,,,,,,,,,,,,,,,,,,,,,,,,,,,,,,,,August8Sing1,21,2022_Aug_08_1355,ProdSingRedoBetween,2021.2.3,59.94582097
6,0,6,0,,,,,,,,,,,,,,,,,,,,,,,,,,3837.988077,None,provision,36,7,sing,blue,3835.976941,None,None,3835.976941,None,,,,,,,,,,,,,,,,,,,,,,,,,,,,,,,,,,,August8Sing1,21,2022_Aug_08_1355,ProdSingRedoBetween,2021.2.3,59.94582097
7,0,7,0,,,,,,,,,,,,,,,,,,,,,,,,,,3840.490706,None,safety,35,8,sing,blue,3838.488583,None,None,3838.488583,None,,,,,,,,,,,,,,,,,,,,,,,,,,,,,,,,,,,August8Sing1,21,2022_Aug_08_1355,ProdSingRedoBetween,2021.2.3,59.94582097
8,0,8,0,,,,,,,,,,,,,,,,,,,,,,,,,,3843.009825,None,service,20,9,sing,yellow,3840.999836,None,None,3840.999836,None,,,,,,,,,,,,,,,,,,,,,,,,,,,,,,,,,,,August8Sing1,21,2022_Aug_08_1355,ProdSingRedoBetween,2021.2.3,59.94582097
9,0,9,0,,,,,,,,,,,,,,,,,,,,,,,,,,3845.528996,None,pattern,44,10,sing,blue,3843.513778,None,None,3843.513778,None,,,,,,,,,,,,,,,,,,,,,,,,,,,,,,,,,,,August8Sing1,21,2022_Aug_08_1355,ProdSingRedoBetween,2021.2.3,59.94582097
10,0,10,0,,,,,,,,,,,,,,,,,,,,,,,,,,3848.031537,None,council,88,11,sing,red,3846.030385,None,None,3846.030385,None,,,,,,,,,,,,,,,,,,,,,,,,,,,,,,,,,,,August8Sing1,21,2022_Aug_08_1355,ProdSingRedoBetween,2021.2.3,59.94582097
11,0,11,0,,,,,,,,,,,,,,,,,,,,,,,,,,3850.550846,None,profession,85,12,sing,red,3848.537598,None,None,3848.537598,None,,,,,,,,,,,,,,,,,,,,,,,,,,,,,,,,,,,August8Sing1,21,2022_Aug_08_1355,ProdSingRedoBetween,2021.2.3,59.94582097
12,0,12,0,,,,,,,,,,,,,,,,,,,,,,,,,,3853.052843,None,watch,74,13,sing,red,3851.05119,None,None,3851.05119,None,,,,,,,,,,,,,,,,,,,,,,,,,,,,,,,,,,,August8Sing1,21,2022_Aug_08_1355,ProdSingRedoBetween,2021.2.3,59.94582097
13,0,13,0,,,,,,,,,,,,,,,,,,,,,,,,,,3855.555346,None,territory,12,14,sing,yellow,3853.553688,None,None,3853.553688,None,,,,,,,,,,,,,,,,,,,,,,,,,,,,,,,,,,,August8Sing1,21,2022_Aug_08_1355,ProdSingRedoBetween,2021.2.3,59.94582097
14,0,14,0,,,,,,,,,,,,,,,,,,,,,,,,,,3858.05817,None,universal,51,15,sing,blue,3856.056216,None,None,3856.056216,None,,,,,,,,,,,,,,,,,,,,,,,,,,,,,,,,,,,August8Sing1,21,2022_Aug_08_1355,ProdSingRedoBetween,2021.2.3,59.94582097
15,0,15,0,,,,,,,,,,,,,,,,,,,,,,,,,,3860.560702,None,character,80,16,sing,red,3858.558695,None,None,3858.558695,None,,,,,,,,,,,,,,,,,,,,,,,,,,,,,,,,,,,August8Sing1,21,2022_Aug_08_1355,ProdSingRedoBetween,2021.2.3,59.94582097
16,0,16,0,,,,,,,,,,,,,,,,,,,,,,,,,,3863.063108,None,season,33,17,sing,blue,3861.06213,None,None,3861.06213,None,,,,,,,,,,,,,,,,,,,,,,,,,,,,,,,,,,,August8Sing1,21,2022_Aug_08_1355,ProdSingRedoBetween,2021.2.3,59.94582097
17,0,17,0,,,,,,,,,,,,,,,,,,,,,,,,,,3865.565729,None,series,6,18,sing,yellow,3863.563735,None,None,3863.563735,None,,,,,,,,,,,,,,,,,,,,,,,,,,,,,,,,,,,August8Sing1,21,2022_Aug_08_1355,ProdSingRedoBetween,2021.2.3,59.94582097
18,0,18,0,,,,,,,,,,,,,,,,,,,,,,,,,,3868.084846,None,beauty,42,19,sing,blue,3866.073495,None,None,3866.073495,None,,,,,,,,,,,,,,,,,,,,,,,,,,,,,,,,,,,August8Sing1,21,2022_Aug_08_1355,ProdSingRedoBetween,2021.2.3,59.94582097
19,0,19,0,,,,,,,,,,,,,,,,,,,,,,,,,,3870.604105,None,pressure,24,20,sing,yellow,3868.59546,None,None,3868.59546,None,,,,,,,,,,,,,,,,,,,,,,,,,,,,,,,,,,,August8Sing1,21,2022_Aug_08_1355,ProdSingRedoBetween,2021.2.3,59.94582097
20,0,20,0,,,,,,,,,,,,,,,,,,,,,,,,,,3873.106661,None,trial,53,21,sing,blue,3871.106609,None,None,3871.106609,None,,,,,,,,,,,,,,,,,,,,,,,,,,,,,,,,,,,August8Sing1,21,2022_Aug_08_1355,ProdSingRedoBetween,2021.2.3,59.94582097
21,0,21,0,,,,,,,,,,,,,,,,,,,,,,,,,,3875.609065,None,route,87,22,sing,red,3873.610113,None,None,3873.610113,None,,,,,,,,,,,,,,,,,,,,,,,,,,,,,,,,,,,August8Sing1,21,2022_Aug_08_1355,ProdSingRedoBetween,2021.2.3,59.94582097
22,0,22,0,,,,,,,,,,,,,,,,,,,,,,,,,,3878.111563,None,trend,57,23,sing,blue,3876.111562,None,None,3876.111562,None,,,,,,,,,,,,,,,,,,,,,,,,,,,,,,,,,,,August8Sing1,21,2022_Aug_08_1355,ProdSingRedoBetween,2021.2.3,59.94582097
23,0,23,0,,,,,,,,,,,,,,,,,,,,,,,,,,3880.614158,None,message,11,24,sing,yellow,3878.612082,None,None,3878.612082,None,,,,,,,,,,,,,,,,,,,,,,,,,,,,,,,,,,,August8Sing1,21,2022_Aug_08_1355,ProdSingRedoBetween,2021.2.3,59.94582097
24,0,24,0,,,,,,,,,,,,,,,,,,,,,,,,,,3883.116579,None,agreement,3,25,sing,yellow,3881.114511,None,None,3881.114511,None,,,,,,,,,,,,,,,,,,,,,,,,,,,,,,,,,,,August8Sing1,21,2022_Aug_08_1355,ProdSingRedoBetween,2021.2.3,59.94582097
25,0,25,0,,,,,,,,,,,,,,,,,,,,,,,,,,3885.618929,None,murder,29,26,sing,blue,3883.617092,None,None,3883.617092,None,,,,,,,,,,,,,,,,,,,,,,,,,,,,,,,,,,,August8Sing1,21,2022_Aug_08_1355,ProdSingRedoBetween,2021.2.3,59.94582097
26,0,26,0,,,,,,,,,,,,,,,,,,,,,,,,,,3888.121638,None,estate,63,27,sing,red,3886.120391,None,None,3886.120391,None,,,,,,,,,,,,,,,,,,,,,,,,,,,,,,,,,,,August8Sing1,21,2022_Aug_08_1355,ProdSingRedoBetween,2021.2.3,59.94582097
27,0,27,0,,,,,,,,,,,,,,,,,,,,,,,,,,3890.624089,None,cross,82,28,sing,red,3888.624964,None,None,3888.624964,None,,,,,,,,,,,,,,,,,,,,,,,,,,,,,,,,,,,August8Sing1,21,2022_Aug_08_1355,ProdSingRedoBetween,2021.2.3,59.94582097
28,0,28,0,,,,,,,,,,,,,,,,,,,,,,,,,,3893.126578,None,orchestra,68,29,sing,red,3891.124275,None,None,3891.124275,None,,,,,,,,,,,,,,,,,,,,,,,,,,,,,,,,,,,August8Sing1,21,2022_Aug_08_1355,ProdSingRedoBetween,2021.2.3,59.94582097
29,0,29,0,,,,,,,,,,,,,,,,,,,,,,,,,,3895.62906,None,order,72,30,sing,red,3893.629331,None,None,3893.629331,None,,,,,,,,,,,,,,,,,,,,,,,,,,,,,,,,,,,August8Sing1,21,2022_Aug_08_1355,ProdSingRedoBetween,2021.2.3,59.94582097
30,0,30,0,,,,,,,,,,,,,,,,,,,,,,,,,,3898.148318,None,space,21,31,sing,yellow,3896.133948,None,None,3896.133948,None,,,,,,,,,,,,,,,,,,,,,,,,,,,,,,,,,,,August8Sing1,21,2022_Aug_08_1355,ProdSingRedoBetween,2021.2.3,59.94582097
31,0,31,0,,,,,,,,,,,,,,,,,,,,,,,,,,3900.667545,None,citizen,30,32,sing,blue,3898.652385,None,None,3898.652385,None,,,,,,,,,,,,,,,,,,,,,,,,,,,,,,,,,,,August8Sing1,21,2022_Aug_08_1355,ProdSingRedoBetween,2021.2.3,59.94582097
32,0,32,0,,,,,,,,,,,,,,,,,,,,,,,,,,3903.170082,None,graduate,55,33,sing,blue,3901.167981,None,None,3901.167981,None,,,,,,,,,,,,,,,,,,,,,,,,,,,,,,,,,,,August8Sing1,21,2022_Aug_08_1355,ProdSingRedoBetween,2021.2.3,59.94582097
33,0,33,0,,,,,,,,,,,,,,,,,,,,,,,,,,3905.672571,None,fight,34,34,sing,blue,3903.673542,None,None,3903.673542,None,,,,,,,,,,,,,,,,,,,,,,,,,,,,,,,,,,,August8Sing1,21,2022_Aug_08_1355,ProdSingRedoBetween,2021.2.3,59.94582097
34,0,34,0,,,,,,,,,,,,,,,,,,,,,,,,,,3908.175094,None,salary,67,35,sing,red,3906.172959,None,None,3906.172959,None,,,,,,,,,,,,,,,,,,,,,,,,,,,,,,,,,,,August8Sing1,21,2022_Aug_08_1355,ProdSingRedoBetween,2021.2.3,59.94582097
35,0,35,0,,,,,,,,,,,,,,,,,,,,,,,,,,3910.694168,None,bucket,46,36,sing,blue,3908.691998,None,None,3908.691998,None,,,,,,,,,,,,,,,,,,,,,,,,,,,,,,,,,,,August8Sing1,21,2022_Aug_08_1355,ProdSingRedoBetween,2021.2.3,59.94582097
36,0,36,0,,,,,,,,,,,,,,,,,,,,,,,,,,3913.196674,None,audience,81,37,sing,red,3911.194685,None,None,3911.194685,None,,,,,,,,,,,,,,,,,,,,,,,,,,,,,,,,,,,August8Sing1,21,2022_Aug_08_1355,ProdSingRedoBetween,2021.2.3,59.94582097
37,0,37,0,,,,,,,,,,,,,,,,,,,,,,,,,,3915.699248,None,impact,64,38,sing,red,3913.699017,None,None,3913.699017,None,,,,,,,,,,,,,,,,,,,,,,,,,,,,,,,,,,,August8Sing1,21,2022_Aug_08_1355,ProdSingRedoBetween,2021.2.3,59.94582097
38,0,38,0,,,,,,,,,,,,,,,,,,,,,,,,,,3918.201521,None,grade,47,39,sing,blue,3916.199764,None,None,3916.199764,None,,,,,,,,,,,,,,,,,,,,,,,,,,,,,,,,,,,August8Sing1,21,2022_Aug_08_1355,ProdSingRedoBetween,2021.2.3,59.94582097
39,0,39,0,,,,,,,,,,,,,,,,,,,,,,,,,,3920.704124,None,symbol,39,40,sing,blue,3918.702121,None,None,3918.702121,None,,,,,,,,,,,,,,,,,,,,,,,,,,,,,,,,,,,August8Sing1,21,2022_Aug_08_1355,ProdSingRedoBetween,2021.2.3,59.94582097
40,0,40,0,,,,,,,,,,,,,,,,,,,,,,,,,,3923.206561,None,scene,76,41,sing,red,3921.20539,None,None,3921.20539,None,,,,,,,,,,,,,,,,,,,,,,,,,,,,,,,,,,,August8Sing1,21,2022_Aug_08_1355,ProdSingRedoBetween,2021.2.3,59.94582097
41,0,41,0,,,,,,,,,,,,,,,,,,,,,,,,,,3925.709192,None,damage,13,42,sing,yellow,3923.710101,None,None,3923.710101,None,,,,,,,,,,,,,,,,,,,,,,,,,,,,,,,,,,,August8Sing1,21,2022_Aug_08_1355,ProdSingRedoBetween,2021.2.3,59.94582097
42,0,42,0,,,,,,,,,,,,,,,,,,,,,,,,,,3928.211562,None,speech,19,43,sing,yellow,3926.210655,None,None,3926.210655,None,,,,,,,,,,,,,,,,,,,,,,,,,,,,,,,,,,,August8Sing1,21,2022_Aug_08_1355,ProdSingRedoBetween,2021.2.3,59.94582097
43,0,43,0,,,,,,,,,,,,,,,,,,,,,,,,,,3930.731199,None,suspect,23,44,sing,yellow,3928.717602,None,None,3928.717602,None,,,,,,,,,,,,,,,,,,,,,,,,,,,,,,,,,,,August8Sing1,21,2022_Aug_08_1355,ProdSingRedoBetween,2021.2.3,59.94582097
44,0,44,0,,,,,,,,,,,,,,,,,,,,,,,,,,3933.250113,None,ground,71,45,sing,red,3931.23582,None,None,3931.23582,None,,,,,,,,,,,,,,,,,,,,,,,,,,,,,,,,,,,August8Sing1,21,2022_Aug_08_1355,ProdSingRedoBetween,2021.2.3,59.94582097
45,0,45,0,,,,,,,,,,,,,,,,,,,,,,,,,,3935.752581,None,right,18,46,sing,yellow,3933.752185,None,None,3933.752185,None,,,,,,,,,,,,,,,,,,,,,,,,,,,,,,,,,,,August8Sing1,21,2022_Aug_08_1355,ProdSingRedoBetween,2021.2.3,59.94582097
46,0,46,0,,,,,,,,,,,,,,,,,,,,,,,,,,3938.271776,None,level,49,47,sing,blue,3936.26243,None,None,3936.26243,None,,,,,,,,,,,,,,,,,,,,,,,,,,,,,,,,,,,August8Sing1,21,2022_Aug_08_1355,ProdSingRedoBetween,2021.2.3,59.94582097
47,0,47,0,,,,,,,,,,,,,,,,,,,,,,,,,,3940.77426,None,region,25,48,sing,yellow,3938.77237,None,None,3938.77237,None,,,,,,,,,,,,,,,,,,,,,,,,,,,,,,,,,,,August8Sing1,21,2022_Aug_08_1355,ProdSingRedoBetween,2021.2.3,59.94582097
48,0,48,0,,,,,,,,,,,,,,,,,,,,,,,,,,3943.276791,None,direction,41,49,sing,blue,3941.27565,None,None,3941.27565,None,,,,,,,,,,,,,,,,,,,,,,,,,,,,,,,,,,,August8Sing1,21,2022_Aug_08_1355,ProdSingRedoBetween,2021.2.3,59.94582097
49,0,49,0,,,,,,,,,,,,,,,,,,,,,,,,,,3945.779191,None,enemy,17,50,sing,yellow,3943.77718,None,None,3943.77718,None,,,,,,,,,,,,,,,,,,,,,,,,,,,,,,,,,,,August8Sing1,21,2022_Aug_08_1355,ProdSingRedoBetween,2021.2.3,59.94582097
50,0,50,0,,,,,,,,,,,,,,,,,,,,,,,,,,3948.281852,None,frank,56,51,sing,blue,3946.27953,None,None,3946.27953,None,,,,,,,,,,,,,,,,,,,,,,,,,,,,,,,,,,,August8Sing1,21,2022_Aug_08_1355,ProdSingRedoBetween,2021.2.3,59.94582097
51,0,51,0,,,,,,,,,,,,,,,,,,,,,,,,,,3950.801785,None,patient,73,52,sing,red,3948.789608,None,None,3948.789608,None,,,,,,,,,,,,,,,,,,,,,,,,,,,,,,,,,,,August8Sing1,21,2022_Aug_08_1355,ProdSingRedoBetween,2021.2.3,59.94582097
52,0,52,0,,,,,,,,,,,,,,,,,,,,,,,,,,3953.30341,None,shock,50,53,sing,blue,3951.3015,None,None,3951.3015,None,,,,,,,,,,,,,,,,,,,,,,,,,,,,,,,,,,,August8Sing1,21,2022_Aug_08_1355,ProdSingRedoBetween,2021.2.3,59.94582097
53,0,53,0,,,,,,,,,,,,,,,,,,,,,,,,,,3955.806105,None,victory,7,54,sing,yellow,3953.805767,None,None,3953.805767,None,,,,,,,,,,,,,,,,,,,,,,,,,,,,,,,,,,,August8Sing1,21,2022_Aug_08_1355,ProdSingRedoBetween,2021.2.3,59.94582097
54,0,54,0,,,,,,,,,,,,,,,,,,,,,,,,,,3958.325086,None,oxygen,5,55,sing,yellow,3956.309617,None,None,3956.309617,None,,,,,,,,,,,,,,,,,,,,,,,,,,,,,,,,,,,August8Sing1,21,2022_Aug_08_1355,ProdSingRedoBetween,2021.2.3,59.94582097
55,0,55,0,,,,,,,,,,,,,,,,,,,,,,,,,,3960.827763,None,industry,61,56,sing,red,3958.825642,None,None,3958.825642,None,,,,,,,,,,,,,,,,,,,,,,,,,,,,,,,,,,,August8Sing1,21,2022_Aug_08_1355,ProdSingRedoBetween,2021.2.3,59.94582097
56,0,56,0,,,,,,,,,,,,,,,,,,,,,,,,,,3963.346863,None,suggestion,59,57,sing,yellow,3961.331424,None,None,3961.331424,None,,,,,,,,,,,,,,,,,,,,,,,,,,,,,,,,,,,August8Sing1,21,2022_Aug_08_1355,ProdSingRedoBetween,2021.2.3,59.94582097
57,0,57,0,,,,,,,,,,,,,,,,,,,,,,,,,,3965.849553,None,prime,65,58,sing,red,3963.847279,None,None,3963.847279,None,,,,,,,,,,,,,,,,,,,,,,,,,,,,,,,,,,,August8Sing1,21,2022_Aug_08_1355,ProdSingRedoBetween,2021.2.3,59.94582097
58,0,58,0,,,,,,,,,,,,,,,,,,,,,,,,,,3968.368195,None,build,16,59,sing,yellow,3966.35414,None,None,3966.35414,None,,,,,,,,,,,,,,,,,,,,,,,,,,,,,,,,,,,August8Sing1,21,2022_Aug_08_1355,ProdSingRedoBetween,2021.2.3,59.94582097
59,0,59,0,,,,,,,,,,,,,,,,,,,,,,,,,,3970.871045,None,whole,45,60,sing,blue,3968.870063,None,None,3968.870063,None,,,,,,,,,,,,,,,,,,,,,,,,,,,,,,,,,,,August8Sing1,21,2022_Aug_08_1355,ProdSingRedoBetween,2021.2.3,59.94582097
60,0,60,0,,,,,,,,,,,,,,,,,,,,,,,,,,3973.373171,None,poetry,28,61,sing,yellow,3971.372278,None,None,3971.372278,None,,,,,,,,,,,,,,,,,,,,,,,,,,,,,,,,,,,August8Sing1,21,2022_Aug_08_1355,ProdSingRedoBetween,2021.2.3,59.94582097
61,0,61,0,,,,,,,,,,,,,,,,,,,,,,,,,,3975.875709,None,write,37,62,sing,blue,3973.873715,None,None,3973.873715,None,,,,,,,,,,,,,,,,,,,,,,,,,,,,,,,,,,,August8Sing1,21,2022_Aug_08_1355,ProdSingRedoBetween,2021.2.3,59.94582097
62,0,62,0,,,,,,,,,,,,,,,,,,,,,,,,,,3978.378431,None,fashion,27,63,sing,yellow,3976.376502,None,None,3976.376502,None,,,,,,,,,,,,,,,,,,,,,,,,,,,,,,,,,,,August8Sing1,21,2022_Aug_08_1355,ProdSingRedoBetween,2021.2.3,59.94582097
63,0,63,0,,,,,,,,,,,,,,,,,,,,,,,,,,3980.880661,None,husband,38,64,sing,blue,3978.87905,None,None,3978.87905,None,,,,,,,,,,,,,,,,,,,,,,,,,,,,,,,,,,,August8Sing1,21,2022_Aug_08_1355,ProdSingRedoBetween,2021.2.3,59.94582097
64,0,64,0,,,,,,,,,,,,,,,,,,,,,,,,,,3983.383386,None,religion,26,65,sing,yellow,3981.382057,None,None,3981.382057,None,,,,,,,,,,,,,,,,,,,,,,,,,,,,,,,,,,,August8Sing1,21,2022_Aug_08_1355,ProdSingRedoBetween,2021.2.3,59.94582097
65,0,65,0,,,,,,,,,,,,,,,,,,,,,,,,,,3985.886113,None,power,15,66,sing,yellow,3983.884233,None,None,3983.884233,None,,,,,,,,,,,,,,,,,,,,,,,,,,,,,,,,,,,August8Sing1,21,2022_Aug_08_1355,ProdSingRedoBetween,2021.2.3,59.94582097
66,0,66,0,,,,,,,,,,,,,,,,,,,,,,,,,,3988.405372,None,quarter,43,67,sing,blue,3986.39511,None,None,3986.39511,None,,,,,,,,,,,,,,,,,,,,,,,,,,,,,,,,,,,August8Sing1,21,2022_Aug_08_1355,ProdSingRedoBetween,2021.2.3,59.94582097
67,0,67,0,,,,,,,,,,,,,,,,,,,,,,,,,,3990.924462,None,community,9,68,sing,yellow,3988.908959,None,None,3988.908959,None,,,,,,,,,,,,,,,,,,,,,,,,,,,,,,,,,,,August8Sing1,21,2022_Aug_08_1355,ProdSingRedoBetween,2021.2.3,59.94582097
68,0,68,0,,,,,,,,,,,,,,,,,,,,,,,,,,3993.443582,None,debate,79,69,sing,red,3991.428707,None,None,3991.428707,None,,,,,,,,,,,,,,,,,,,,,,,,,,,,,,,,,,,August8Sing1,21,2022_Aug_08_1355,ProdSingRedoBetween,2021.2.3,59.94582097
69,0,69,0,,,,,,,,,,,,,,,,,,,,,,,,,,3995.94622,None,mayor,4,70,sing,yellow,3993.947217,None,None,3993.947217,None,,,,,,,,,,,,,,,,,,,,,,,,,,,,,,,,,,,August8Sing1,21,2022_Aug_08_1355,ProdSingRedoBetween,2021.2.3,59.94582097
70,0,70,0,,,,,,,,,,,,,,,,,,,,,,,,,,3998.448596,None,society,2,71,sing,yellow,3996.449196,None,None,3996.449196,None,,,,,,,,,,,,,,,,,,,,,,,,,,,,,,,,,,,August8Sing1,21,2022_Aug_08_1355,ProdSingRedoBetween,2021.2.3,59.94582097
71,0,71,0,,,,,,,,,,,,,,,,,,,,,,,,,,4000.951243,None,south,75,72,sing,red,3998.949536,None,None,3998.949536,None,,,,,,,,,,,,,,,,,,,,,,,,,,,,,,,,,,,August8Sing1,21,2022_Aug_08_1355,ProdSingRedoBetween,2021.2.3,59.94582097
72,0,72,0,,,,,,,,,,,,,,,,,,,,,,,,,,4003.470362,None,income,52,73,sing,blue,4001.457169,None,None,4001.457169,None,,,,,,,,,,,,,,,,,,,,,,,,,,,,,,,,,,,August8Sing1,21,2022_Aug_08_1355,ProdSingRedoBetween,2021.2.3,59.94582097
73,0,73,0,,,,,,,,,,,,,,,,,,,,,,,,,,4005.972984,None,leader,62,74,sing,red,4003.970782,None,None,4003.970782,None,,,,,,,,,,,,,,,,,,,,,,,,,,,,,,,,,,,August8Sing1,21,2022_Aug_08_1355,ProdSingRedoBetween,2021.2.3,59.94582097
74,0,74,0,,,,,,,,,,,,,,,,,,,,,,,,,,4008.492009,None,brief,89,75,sing,red,4006.476435,None,None,4006.476435,None,,,,,,,,,,,,,,,,,,,,,,,,,,,,,,,,,,,August8Sing1,21,2022_Aug_08_1355,ProdSingRedoBetween,2021.2.3,59.94582097
75,0,75,0,,,,,,,,,,,,,,,,,,,,,,,,,,4010.994179,None,childhood,8,76,sing,yellow,4008.993254,None,None,4008.993254,None,,,,,,,,,,,,,,,,,,,,,,,,,,,,,,,,,,,August8Sing1,21,2022_Aug_08_1355,ProdSingRedoBetween,2021.2.3,59.94582097
76,0,76,0,,,,,,,,,,,,,,,,,,,,,,,,,,4013.497087,None,court,77,77,sing,red,4011.494781,None,None,4011.494781,None,,,,,,,,,,,,,,,,,,,,,,,,,,,,,,,,,,,August8Sing1,21,2022_Aug_08_1355,ProdSingRedoBetween,2021.2.3,59.94582097
77,0,77,0,,,,,,,,,,,,,,,,,,,,,,,,,,4015.999583,None,distance,83,78,sing,red,4013.997522,None,None,4013.997522,None,,,,,,,,,,,,,,,,,,,,,,,,,,,,,,,,,,,August8Sing1,21,2022_Aug_08_1355,ProdSingRedoBetween,2021.2.3,59.94582097
78,0,78,0,,,,,,,,,,,,,,,,,,,,,,,,,,4018.518617,None,discussion,10,79,sing,yellow,4016.503327,None,None,4016.503327,None,,,,,,,,,,,,,,,,,,,,,,,,,,,,,,,,,,,August8Sing1,21,2022_Aug_08_1355,ProdSingRedoBetween,2021.2.3,59.94582097
79,0,79,0,,,,,,,,,,,,,,,,,,,,,,,,,,4021.021243,None,revolution,32,80,sing,blue,4019.021328,None,None,4019.021328,None,,,,,,,,,,,,,,,,,,,,,,,,,,,,,,,,,,,August8Sing1,21,2022_Aug_08_1355,ProdSingRedoBetween,2021.2.3,59.94582097
80,0,80,0,,,,,,,,,,,,,,,,,,,,,,,,,,4023.523744,None,display,54,81,sing,blue,4021.524416,None,None,4021.524416,None,,,,,,,,,,,,,,,,,,,,,,,,,,,,,,,,,,,August8Sing1,21,2022_Aug_08_1355,ProdSingRedoBetween,2021.2.3,59.94582097
81,0,81,0,,,,,,,,,,,,,,,,,,,,,,,,,,4026.026202,None,report,48,82,sing,blue,4024.027113,None,None,4024.027113,None,,,,,,,,,,,,,,,,,,,,,,,,,,,,,,,,,,,August8Sing1,21,2022_Aug_08_1355,ProdSingRedoBetween,2021.2.3,59.94582097
82,0,82,0,,,,,,,,,,,,,,,,,,,,,,,,,,4028.545474,None,cousin,78,83,sing,red,4026.529907,None,None,4026.529907,None,,,,,,,,,,,,,,,,,,,,,,,,,,,,,,,,,,,August8Sing1,21,2022_Aug_08_1355,ProdSingRedoBetween,2021.2.3,59.94582097
83,0,83,0,,,,,,,,,,,,,,,,,,,,,,,,,,4031.064574,None,union,66,84,sing,red,4029.053812,None,None,4029.053812,None,,,,,,,,,,,,,,,,,,,,,,,,,,,,,,,,,,,August8Sing1,21,2022_Aug_08_1355,ProdSingRedoBetween,2021.2.3,59.94582097
84,0,84,0,,,,,,,,,,,,,,,,,,,,,,,,,,4033.583788,None,incident,1,85,sing,yellow,4031.571474,None,None,4031.571474,None,,,,,,,,,,,,,,,,,,,,,,,,,,,,,,,,,,,August8Sing1,21,2022_Aug_08_1355,ProdSingRedoBetween,2021.2.3,59.94582097
85,0,85,0,,,,,,,,,,,,,,,,,,,,,,,,,,4036.08605,None,benefit,60,86,sing,red,4034.085498,None,None,4034.085498,None,,,,,,,,,,,,,,,,,,,,,,,,,,,,,,,,,,,August8Sing1,21,2022_Aug_08_1355,ProdSingRedoBetween,2021.2.3,59.94582097
86,0,86,0,,,,,,,,,,,,,,,,,,,,,,,,,,4038.588758,None,block,14,87,sing,yellow,4036.586771,None,None,4036.586771,None,,,,,,,,,,,,,,,,,,,,,,,,,,,,,,,,,,,August8Sing1,21,2022_Aug_08_1355,ProdSingRedoBetween,2021.2.3,59.94582097
87,0,87,0,,,,,,,,,,,,,,,,,,,,,,,,,,4041.091075,None,platform,40,88,sing,blue,4039.09128,None,None,4039.09128,None,,,,,,,,,,,,,,,,,,,,,,,,,,,,,,,,,,,August8Sing1,21,2022_Aug_08_1355,ProdSingRedoBetween,2021.2.3,59.94582097
88,0,88,0,,,,,,,,,,,,,,,,,,,,,,,,,,4043.593421,None,plane,0,89,sing,yellow,4041.593274,None,None,4041.593274,None,,,,,,,,,,,,,,,,,,,,,,,,,,,,,,,,,,,August8Sing1,21,2022_Aug_08_1355,ProdSingRedoBetween,2021.2.3,59.94582097
89,0,89,0,,,,,,,,,,,,,,,,,,,,,,,,,,4046.096375,None,surprise,86,90,sing,red,4044.096701,None,None,4044.096701,None,,,,,,,,,,,,,,,,,,,,,,,,,,,,,,,,,,,August8Sing1,21,2022_Aug_08_1355,ProdSingRedoBetween,2021.2.3,59.94582097
,,,,,,,,,,,,,,,,,,,,,,,,,,,,,,,,,,,,,,,,,4046.597059,None,k,95.5788876,4046.597059,None,,,,,,,,,,,,,,,,,,,,,,,,,,,,,August8Sing1,21,2022_Aug_08_1355,ProdSingRedoBetween,2021.2.3,59.94582097
,,,,0,0,0,0,,,,,,,,,,,,,,,,,,,,,,4149.166583,None,,,,,,,,,,,,,,,,,suspect,23,1,sing,old,yellow,4142.70275,None,4142.70275,None,6,3.9689784,4142.70275,None,3.9689784,4146.70526,None,4147.22403,None,4147.22403,None,f,1.9116643,4147.22403,None,1.9116643,,,August8Sing1,21,2022_Aug_08_1355,ProdSingRedoBetween,2021.2.3,59.94582097
,,,,1,0,1,0,,,,,,,,,,,,,,,,,,,,,,4157.407309,None,,,,,,,,,,,,,,,,,colonel,139,2,sing,new,null,4149.668153,None,4149.668153,None,3,3.3314425,4149.668153,None,3.3314425,4153.023732,None,4153.537101,None,4153.537101,None,n,3.846573,4153.537101,None,3.846573,,,August8Sing1,21,2022_Aug_08_1355,ProdSingRedoBetween,2021.2.3,59.94582097
,,,,2,0,2,0,,,,,,,,,,,,,,,,,,,,,,4161.07771,None,,,,,,,,,,,,,,,,,object,137,3,sing,new,null,4157.922227,None,4157.922227,None,5,1.9094517,4157.922227,None,1.9094517,4159.862675,None,4160.379981,None,4160.379981,None,f,0.6675797,4160.379981,None,0.6675797,,,August8Sing1,21,2022_Aug_08_1355,ProdSingRedoBetween,2021.2.3,59.94582097
,,,,3,0,3,0,,,,,,,,,,,,,,,,,,,,,,4165.84935,None,,,,,,,,,,,,,,,,,cousin,78,4,sing,old,red,4161.582033,None,4161.582033,None,6,2.4016539,4161.582033,None,2.4016539,4164.014936,None,4164.52451,None,4164.52451,None,f,1.3072942,4164.52451,None,1.3072942,,,August8Sing1,21,2022_Aug_08_1355,ProdSingRedoBetween,2021.2.3,59.94582097
,,,,4,0,4,0,,,,,,,,,,,,,,,,,,,,,,4169.922461,None,,,,,,,,,,,,,,,,,platform,40,5,sing,old,blue,4166.36872,None,4166.36872,None,5,2.2069983,4166.36872,None,2.2069983,4168.603338,None,4169.106777,None,4169.106777,None,f,0.788811,4169.106777,None,0.788811,,,August8Sing1,21,2022_Aug_08_1355,ProdSingRedoBetween,2021.2.3,59.94582097
,,,,5,0,5,0,,,,,,,,,,,,,,,,,,,,,,4173.290069,None,,,,,,,,,,,,,,,,,poetry,28,6,sing,old,yellow,4170.437182,None,4170.437182,None,5,1.6104524,4170.437182,None,1.6104524,4172.073453,None,4172.575557,None,4172.575557,None,f,0.6961167,4172.575557,None,0.6961167,,,August8Sing1,21,2022_Aug_08_1355,ProdSingRedoBetween,2021.2.3,59.94582097
,,,,6,0,6,0,,,,,,,,,,,,,,,,,,,,,,4178.528748,None,,,,,,,,,,,,,,,,,business,158,7,sing,new,null,4173.794755,None,4173.794755,None,6,2.996939,4173.794755,None,2.996939,4176.817002,None,4177.327649,None,4177.327649,None,f,1.1840786,4177.327649,None,1.1840786,,,August8Sing1,21,2022_Aug_08_1355,ProdSingRedoBetween,2021.2.3,59.94582097
,,,,7,0,7,0,,,,,,,,,,,,,,,,,,,,,,4182.315787,None,,,,,,,,,,,,,,,,,frank,56,8,sing,old,blue,4179.039692,None,4179.039692,None,6,1.9520115,4179.039692,None,1.9520115,4181.016338,None,4181.533699,None,4181.533699,None,f,0.7621033,4181.533699,None,0.7621033,,,August8Sing1,21,2022_Aug_08_1355,ProdSingRedoBetween,2021.2.3,59.94582097
,,,,8,0,8,0,,,,,,,,,,,,,,,,,,,,,,4185.185368,None,,,,,,,,,,,,,,,,,display,54,9,sing,old,blue,4182.828884,None,4182.828884,None,6,1.634955,4182.828884,None,1.634955,4184.485716,None,4184.99066,None,4184.99066,None,f,0.1769961,4184.99066,None,0.1769961,,,August8Sing1,21,2022_Aug_08_1355,ProdSingRedoBetween,2021.2.3,59.94582097
,,,,9,0,9,0,,,,,,,,,,,,,,,,,,,,,,4188.43863,None,,,,,,,,,,,,,,,,,people,135,10,sing,new,null,4185.689059,None,4185.689059,None,6,1.542718,4185.689059,None,1.542718,4187.261447,None,4187.781259,None,4187.781259,None,f,0.6424727,4187.781259,None,0.6424727,,,August8Sing1,21,2022_Aug_08_1355,ProdSingRedoBetween,2021.2.3,59.94582097
,,,,10,0,10,0,,,,,,,,,,,,,,,,,,,,,,4191.541511,None,,,,,,,,,,,,,,,,,solution,99,11,sing,new,null,4188.953384,None,4188.953384,None,6,1.4303186,4188.953384,None,1.4303186,4190.408391,None,4190.910283,None,4190.910283,None,f,0.6093702,4190.910283,None,0.6093702,,,August8Sing1,21,2022_Aug_08_1355,ProdSingRedoBetween,2021.2.3,59.94582097
,,,,11,0,11,0,,,,,,,,,,,,,,,,,,,,,,4194.561362,None,,,,,,,,,,,,,,,,,population,116,12,sing,new,null,4192.046882,None,4192.046882,None,6,1.3608127,4192.046882,None,1.3608127,4193.426916,None,4193.932765,None,4193.932765,None,f,0.6029493,4193.932765,None,0.6029493,,,August8Sing1,21,2022_Aug_08_1355,ProdSingRedoBetween,2021.2.3,59.94582097
,,,,12,0,12,0,,,,,,,,,,,,,,,,,,,,,,4197.581105,None,,,,,,,,,,,,,,,,,budget,115,13,sing,new,null,4195.070737,None,4195.070737,None,6,1.3849782,4195.070737,None,1.3849782,4196.481117,None,4196.980609,None,4196.980609,None,f,0.5711219,4196.980609,None,0.5711219,,,August8Sing1,21,2022_Aug_08_1355,ProdSingRedoBetween,2021.2.3,59.94582097
,,,,13,0,13,0,,,,,,,,,,,,,,,,,,,,,,4200.550577,None,,,,,,,,,,,,,,,,,raise,128,14,sing,new,null,4198.090883,None,4198.090883,None,6,1.4690214,4198.090883,None,1.4690214,4199.589768,None,4200.100164,None,4200.100164,None,f,0.4195169,4200.100164,None,0.4195169,,,August8Sing1,21,2022_Aug_08_1355,ProdSingRedoBetween,2021.2.3,59.94582097
,,,,14,0,14,0,,,,,,,,,,,,,,,,,,,,,,4203.470071,None,,,,,,,,,,,,,,,,,dance,122,15,sing,new,null,4201.057089,None,4201.057089,None,6,1.3666173,4201.057089,None,1.3666173,4202.454273,None,4202.956971,None,4202.956971,None,f,0.4907987,4202.956971,None,0.4907987,,,August8Sing1,21,2022_Aug_08_1355,ProdSingRedoBetween,2021.2.3,59.94582097
,,,,15,0,15,0,,,,,,,,,,,,,,,,,,,,,,4206.440014,None,,,,,,,,,,,,,,,,,tough,113,16,sing,new,null,4203.970987,None,4203.970987,None,5,1.6287709,4203.970987,None,1.6287709,4205.625562,None,4206.14561,None,4206.14561,None,f,0.2700563,4206.14561,None,0.2700563,,,August8Sing1,21,2022_Aug_08_1355,ProdSingRedoBetween,2021.2.3,59.94582097
,,,,16,0,16,0,,,,,,,,,,,,,,,,,,,,,,4209.259208,None,,,,,,,,,,,,,,,,,direction,41,17,sing,old,blue,4206.944841,None,4206.944841,None,6,1.1589071,4206.944841,None,1.1589071,4208.127086,None,4208.644341,None,4208.644341,None,f,0.5873272,4208.644341,None,0.5873272,,,August8Sing1,21,2022_Aug_08_1355,ProdSingRedoBetween,2021.2.3,59.94582097
,,,,17,0,17,0,,,,,,,,,,,,,,,,,,,,,,4212.197333,None,,,,,,,,,,,,,,,,,audience,81,18,sing,old,red,4209.763103,None,4209.763103,None,6,1.4045952,4209.763103,None,1.4045952,4211.195273,None,4211.699732,None,4211.699732,None,f,0.4680333,4211.699732,None,0.4680333,,,August8Sing1,21,2022_Aug_08_1355,ProdSingRedoBetween,2021.2.3,59.94582097
,,,,18,0,18,0,,,,,,,,,,,,,,,,,,,,,,4215.198464,None,,,,,,,,,,,,,,,,,bitter,58,19,sing,old,blue,4212.712929,None,4212.712929,None,6,1.4548165,4212.712929,None,1.4548165,4214.204346,None,4214.717862,None,4214.717862,None,f,0.4498323,4214.717862,None,0.4498323,,,August8Sing1,21,2022_Aug_08_1355,ProdSingRedoBetween,2021.2.3,59.94582097
,,,,19,0,19,0,,,,,,,,,,,,,,,,,,,,,,4217.917949,None,,,,,,,,,,,,,,,,,discussion,10,20,sing,old,yellow,4215.699247,None,4215.699247,None,6,1.2925271,4215.699247,None,1.2925271,4217.019177,None,4217.534748,None,4217.534748,None,f,0.3610277,4217.534748,None,0.3610277,,,August8Sing1,21,2022_Aug_08_1355,ProdSingRedoBetween,2021.2.3,59.94582097
,,,,20,0,20,0,,,,,,,,,,,,,,,,,,,,,,4220.337212,None,,,,,,,,,,,,,,,,,stand,114,21,sing,new,null,4218.439897,None,4218.439897,None,6,0.9918075,4218.439897,None,0.9918075,4219.452785,None,4219.953571,None,4219.953571,None,f,0.3581426,4219.953571,None,0.3581426,,,August8Sing1,21,2022_Aug_08_1355,ProdSingRedoBetween,2021.2.3,59.94582097
,,,,21,0,21,0,,,,,,,,,,,,,,,,,,,,,,4223.056529,None,,,,,,,,,,,,,,,,,beauty,42,22,sing,old,blue,4220.852044,None,4220.852044,None,6,1.0117071,4220.852044,None,1.0117071,4221.889949,None,4222.389101,None,4222.389101,None,f,0.6426579,4222.389101,None,0.6426579,,,August8Sing1,21,2022_Aug_08_1355,ProdSingRedoBetween,2021.2.3,59.94582097
,,,,22,0,22,0,,,,,,,,,,,,,,,,,,,,,,4225.475674,None,,,,,,,,,,,,,,,,,interview,70,23,sing,old,red,4223.569424,None,4223.569424,None,6,1.1343088,4223.569424,None,1.1343088,4224.726254,None,4225.230805,None,4225.230805,None,f,0.2250618,4225.230805,None,0.2250618,,,August8Sing1,21,2022_Aug_08_1355,ProdSingRedoBetween,2021.2.3,59.94582097
,,,,23,0,23,0,,,,,,,,,,,,,,,,,,,,,,4227.929135,None,,,,,,,,,,,,,,,,,owner,168,24,sing,new,null,4225.976093,None,4225.976093,None,6,1.1996775,4225.976093,None,1.1996775,4227.196184,None,4227.711091,None,4227.711091,None,f,0.2006756,4227.711091,None,0.2006756,,,August8Sing1,21,2022_Aug_08_1355,ProdSingRedoBetween,2021.2.3,59.94582097
,,,,24,0,24,0,,,,,,,,,,,,,,,,,,,,,,4230.247125,None,,,,,,,,,,,,,,,,,weight,102,25,sing,new,null,4228.428778,None,4228.428778,None,6,1.1150229,4228.428778,None,1.1150229,4229.566274,None,4230.083161,None,4230.083161,None,f,0.1486499,4230.083161,None,0.1486499,,,August8Sing1,21,2022_Aug_08_1355,ProdSingRedoBetween,2021.2.3,59.94582097
,,,,25,0,25,0,,,,,,,,,,,,,,,,,,,,,,4232.766266,None,,,,,,,,,,,,,,,,,broad,121,26,sing,new,null,4230.759346,None,4230.759346,None,6,1.248516,4230.759346,None,1.248516,4232.035338,None,4232.549596,None,4232.549596,None,f,0.1861799,4232.549596,None,0.1861799,,,August8Sing1,21,2022_Aug_08_1355,ProdSingRedoBetween,2021.2.3,59.94582097
,,,,26,0,26,0,,,,,,,,,,,,,,,,,,,,,,4237.041477,None,,,,,,,,,,,,,,,,,union,66,27,sing,old,red,4233.274014,None,4233.274014,None,4,2.0537291,4233.274014,None,2.0537291,4235.352107,None,4235.852884,None,4235.852884,None,f,1.1628853,4235.852884,None,1.1628853,,,August8Sing1,21,2022_Aug_08_1355,ProdSingRedoBetween,2021.2.3,59.94582097
,,,,27,0,27,0,,,,,,,,,,,,,,,,,,,,,,4239.706523,None,,,,,,,,,,,,,,,,,school,172,28,sing,new,null,4237.55423,None,4237.55423,None,6,1.2455433,4237.55423,None,1.2455433,4238.823533,None,4239.322921,None,4239.322921,None,f,0.3568061,4239.322921,None,0.3568061,,,August8Sing1,21,2022_Aug_08_1355,ProdSingRedoBetween,2021.2.3,59.94582097
,,,,28,0,28,0,,,,,,,,,,,,,,,,,,,,,,4243.009816,None,,,,,,,,,,,,,,,,,mechanical,144,29,sing,new,null,4240.207244,None,4240.207244,None,5,2.1524767,4240.207244,None,2.1524767,4242.376788,None,4242.87649,None,4242.87649,None,f,0.1072904,4242.87649,None,0.1072904,,,August8Sing1,21,2022_Aug_08_1355,ProdSingRedoBetween,2021.2.3,59.94582097
,,,,29,0,29,0,,,,,,,,,,,,,,,,,,,,,,4245.59951,None,,,,,,,,,,,,,,,,,sunset,157,30,sing,new,null,4243.513698,None,4243.513698,None,6,1.2539988,4243.513698,None,1.2539988,4244.795792,None,4245.295532,None,4245.295532,None,f,0.2804251,4245.295532,None,0.2804251,,,August8Sing1,21,2022_Aug_08_1355,ProdSingRedoBetween,2021.2.3,59.94582097
,,,,30,0,30,0,,,,,,,,,,,,,,,,,,,,,,4248.498648,None,,,,,,,,,,,,,,,,,candidate,151,31,sing,new,null,4246.119118,None,4246.119118,None,5,1.504663,4246.119118,None,1.504663,4247.648562,None,4248.150515,None,4248.150515,None,f,0.3211911,4248.150515,None,0.3211911,,,August8Sing1,21,2022_Aug_08_1355,ProdSingRedoBetween,2021.2.3,59.94582097
,,,,31,0,31,0,,,,,,,,,,,,,,,,,,,,,,4250.950966,None,,,,,,,,,,,,,,,,,prime,65,32,sing,old,red,4249.007732,None,4249.007732,None,6,1.2161044,4249.007732,None,1.2161044,4250.25156,None,4250.758491,None,4250.758491,None,f,0.1612012,4250.758491,None,0.1612012,,,August8Sing1,21,2022_Aug_08_1355,ProdSingRedoBetween,2021.2.3,59.94582097
,,,,32,0,32,0,,,,,,,,,,,,,,,,,,,,,,4253.286813,None,,,,,,,,,,,,,,,,,damage,13,33,sing,old,yellow,4251.451913,None,4251.451913,None,5,1.171934,4251.451913,None,1.171934,4252.652885,None,4253.153502,None,4253.153502,None,f,0.1022545,4253.153502,None,0.1022545,,,August8Sing1,21,2022_Aug_08_1355,ProdSingRedoBetween,2021.2.3,59.94582097
,,,,33,0,33,0,,,,,,,,,,,,,,,,,,,,,,4255.589224,None,,,,,,,,,,,,,,,,,sleep,145,34,sing,new,null,4253.796487,None,4253.796487,None,6,0.995322,4253.796487,None,0.995322,4254.823577,None,4255.339117,None,4255.339117,None,f,0.2207641,4255.339117,None,0.2207641,,,August8Sing1,21,2022_Aug_08_1355,ProdSingRedoBetween,2021.2.3,59.94582097
,,,,34,0,34,0,,,,,,,,,,,,,,,,,,,,,,4258.358514,None,,,,,,,,,,,,,,,,,plane,0,35,sing,old,yellow,4256.092827,None,4256.092827,None,6,1.0590024,4256.092827,None,1.0590024,4257.178926,None,4257.692424,None,4257.692424,None,f,0.635406,4257.692424,None,0.635406,,,August8Sing1,21,2022_Aug_08_1355,ProdSingRedoBetween,2021.2.3,59.94582097
,,,,35,0,35,0,,,,,,,,,,,,,,,,,,,,,,4261.745033,None,,,,,,,,,,,,,,,,,tragedy,152,36,sing,new,null,4258.859129,None,4258.859129,None,6,1.7566818,4258.859129,None,1.7566818,4260.6468,None,4261.171459,None,4261.171459,None,f,0.5564383,4261.171459,None,0.5564383,,,August8Sing1,21,2022_Aug_08_1355,ProdSingRedoBetween,2021.2.3,59.94582097
,,,,36,0,36,0,,,,,,,,,,,,,,,,,,,,,,4264.748303,None,,,,,,,,,,,,,,,,,impact,64,37,sing,old,red,4262.255385,None,4262.255385,None,6,1.5844362,4262.255385,None,1.5844362,4263.865175,None,4264.364689,None,4264.364689,None,f,0.3551403,4264.364689,None,0.3551403,,,August8Sing1,21,2022_Aug_08_1355,ProdSingRedoBetween,2021.2.3,59.94582097
,,,,37,0,37,0,,,,,,,,,,,,,,,,,,,,,,4267.250763,None,,,,,,,,,,,,,,,,,state,84,38,sing,old,red,4265.248627,None,4265.248627,None,6,1.0952794,4265.248627,None,1.0952794,4266.367504,None,4266.867025,None,4266.867025,None,f,0.3648024,4266.867025,None,0.3648024,,,August8Sing1,21,2022_Aug_08_1355,ProdSingRedoBetween,2021.2.3,59.94582097
,,,,38,0,38,0,,,,,,,,,,,,,,,,,,,,,,4269.870058,None,,,,,,,,,,,,,,,,,season,33,39,sing,old,blue,4267.754306,None,4267.754306,None,6,1.3255127,4267.754306,None,1.3255127,4269.103848,None,4269.609264,None,4269.609264,None,f,0.2306004,4269.609264,None,0.2306004,,,August8Sing1,21,2022_Aug_08_1355,ProdSingRedoBetween,2021.2.3,59.94582097
,,,,39,0,39,0,,,,,,,,,,,,,,,,,,,,,,4272.322491,None,,,,,,,,,,,,,,,,,number,110,40,sing,new,null,4270.376744,None,4270.376744,None,6,1.1670198,4270.376744,None,1.1670198,4271.572371,None,4272.072369,None,4272.072369,None,f,0.2233899,4272.072369,None,0.2233899,,,August8Sing1,21,2022_Aug_08_1355,ProdSingRedoBetween,2021.2.3,59.94582097
,,,,40,0,40,0,,,,,,,,,,,,,,,,,,,,,,4274.808291,None,,,,,,,,,,,,,,,,,phrase,95,41,sing,new,null,4272.827678,None,4272.827678,None,6,1.1400833,4272.827678,None,1.1400833,4273.991074,None,4274.491707,None,4274.491707,None,f,0.2921106,4274.491707,None,0.2921106,,,August8Sing1,21,2022_Aug_08_1355,ProdSingRedoBetween,2021.2.3,59.94582097
,,,,41,0,41,0,,,,,,,,,,,,,,,,,,,,,,4278.880952,None,,,,,,,,,,,,,,,,,testimony,156,42,sing,new,null,4275.308955,None,4275.308955,None,4,2.858944,4275.308955,None,2.858944,4278.195028,None,4278.702008,None,4278.702008,None,f,0.1618436,4278.702008,None,0.1618436,,,August8Sing1,21,2022_Aug_08_1355,ProdSingRedoBetween,2021.2.3,59.94582097
,,,,42,0,42,0,,,,,,,,,,,,,,,,,,,,,,4281.047564,None,,,,,,,,,,,,,,,,,message,11,43,sing,old,yellow,4279.398097,None,4279.398097,None,6,1.0098427,4279.398097,None,1.0098427,4280.436127,None,4280.94835,None,4280.94835,None,f,0.0753875,4280.94835,None,0.0753875,,,August8Sing1,21,2022_Aug_08_1355,ProdSingRedoBetween,2021.2.3,59.94582097
,,,,43,0,43,0,,,,,,,,,,,,,,,,,,,,,,4283.785026,None,,,,,,,,,,,,,,,,,watch,74,44,sing,old,red,4281.549872,None,4281.549872,None,6,1.5779556,4281.549872,None,1.5779556,4283.153082,None,4283.667123,None,4283.667123,None,f,0.0927893,4283.667123,None,0.0927893,,,August8Sing1,21,2022_Aug_08_1355,ProdSingRedoBetween,2021.2.3,59.94582097
,,,,44,0,44,0,,,,,,,,,,,,,,,,,,,,,,4287.220715,None,,,,,,,,,,,,,,,,,burden,124,45,sing,new,null,4284.288159,None,4284.288159,None,5,1.967574,4284.288159,None,1.967574,4286.286258,None,4286.787005,None,4286.787005,None,f,0.4046705,4286.787005,None,0.4046705,,,August8Sing1,21,2022_Aug_08_1355,ProdSingRedoBetween,2021.2.3,59.94582097
,,,,45,0,45,0,,,,,,,,,,,,,,,,,,,,,,4289.723078,None,,,,,,,,,,,,,,,,,graduate,55,46,sing,old,blue,4287.721351,None,4287.721351,None,6,1.1825354,4287.721351,None,1.1825354,4288.923477,None,4289.422941,None,4289.422941,None,f,0.2808679,4289.422941,None,0.2808679,,,August8Sing1,21,2022_Aug_08_1355,ProdSingRedoBetween,2021.2.3,59.94582097
,,,,46,0,46,0,,,,,,,,,,,,,,,,,,,,,,4293.076291,None,,,,,,,,,,,,,,,,,cross,82,47,sing,old,red,4290.223758,None,4290.223758,None,5,2.0560145,4290.223758,None,2.0560145,4292.309007,None,4292.809479,None,4292.809479,None,f,0.2382624,4292.809479,None,0.2382624,,,August8Sing1,21,2022_Aug_08_1355,ProdSingRedoBetween,2021.2.3,59.94582097
,,,,47,0,47,0,,,,,,,,,,,,,,,,,,,,,,4295.715221,None,,,,,,,,,,,,,,,,,scene,76,48,sing,old,red,4293.576886,None,4293.576886,None,6,1.4228424,4293.576886,None,1.4228424,4295.028332,None,4295.528874,None,4295.528874,None,f,0.1588689,4295.528874,None,0.1588689,,,August8Sing1,21,2022_Aug_08_1355,ProdSingRedoBetween,2021.2.3,59.94582097
,,,,48,0,48,0,,,,,,,,,,,,,,,,,,,,,,4298.381659,None,,,,,,,,,,,,,,,,,production,98,49,sing,new,null,4296.229596,None,4296.229596,None,6,1.3781378,4296.229596,None,1.3781378,4297.630904,None,4298.131546,None,4298.131546,None,f,0.220275,4298.131546,None,0.220275,,,August8Sing1,21,2022_Aug_08_1355,ProdSingRedoBetween,2021.2.3,59.94582097
,,,,49,0,49,0,,,,,,,,,,,,,,,,,,,,,,4300.747605,None,,,,,,,,,,,,,,,,,write,37,50,sing,old,blue,4298.886038,None,4298.886038,None,5,1.1777063,4298.886038,None,1.1777063,4300.08336,None,4300.583894,None,4300.583894,None,f,0.1198606,4300.583894,None,0.1198606,,,August8Sing1,21,2022_Aug_08_1355,ProdSingRedoBetween,2021.2.3,59.94582097
,,,,50,0,50,0,,,,,,,,,,,,,,,,,,,,,,4303.136404,None,,,,,,,,,,,,,,,,,distance,83,51,sing,old,red,4301.261751,None,4301.261751,None,5,1.1300347,4301.261751,None,1.1300347,4302.426887,None,4302.936353,None,4302.936353,None,f,0.1754486,4302.936353,None,0.1754486,,,August8Sing1,21,2022_Aug_08_1355,ProdSingRedoBetween,2021.2.3,59.94582097
,,,,51,0,51,0,,,,,,,,,,,,,,,,,,,,,,4305.622298,None,,,,,,,,,,,,,,,,,childhood,8,52,sing,old,yellow,4303.637065,None,4303.637065,None,6,1.1547586,4303.637065,None,1.1547586,4304.8217,None,4305.3221,None,4305.3221,None,f,0.2777469,4305.3221,None,0.2777469,,,August8Sing1,21,2022_Aug_08_1355,ProdSingRedoBetween,2021.2.3,59.94582097
,,,,52,0,52,0,,,,,,,,,,,,,,,,,,,,,,4307.89115,None,,,,,,,,,,,,,,,,,public,90,53,sing,new,null,4306.123049,None,4306.123049,None,6,0.9888276,4306.123049,None,0.9888276,4307.140451,None,4307.641269,None,4307.641269,None,f,0.2305243,4307.641269,None,0.2305243,,,August8Sing1,21,2022_Aug_08_1355,ProdSingRedoBetween,2021.2.3,59.94582097
,,,,53,0,53,0,,,,,,,,,,,,,,,,,,,,,,4310.493884,None,,,,,,,,,,,,,,,,,entrance,173,54,sing,new,null,4308.391937,None,4308.391937,None,6,1.2078316,4308.391937,None,1.2078316,4309.62729,None,4310.127084,None,4310.127084,None,f,0.344724,4310.127084,None,0.344724,,,August8Sing1,21,2022_Aug_08_1355,ProdSingRedoBetween,2021.2.3,59.94582097
,,,,54,0,54,0,,,,,,,,,,,,,,,,,,,,,,4312.74604,None,,,,,,,,,,,,,,,,,bucket,46,55,sing,old,blue,4310.998116,None,4310.998116,None,6,0.9216565,4310.998116,None,0.9216565,4311.945255,None,4312.445876,None,4312.445876,None,f,0.273946,4312.445876,None,0.273946,,,August8Sing1,21,2022_Aug_08_1355,ProdSingRedoBetween,2021.2.3,59.94582097
,,,,55,0,55,0,,,,,,,,,,,,,,,,,,,,,,4314.931725,None,,,,,,,,,,,,,,,,,company,119,56,sing,new,null,4313.255237,None,4313.255237,None,6,0.9765719,4313.255237,None,0.9765719,4314.24848,None,4314.748278,None,4314.748278,None,f,0.1636157,4314.748278,None,0.1636157,,,August8Sing1,21,2022_Aug_08_1355,ProdSingRedoBetween,2021.2.3,59.94582097
,,,,56,0,56,0,,,,,,,,,,,,,,,,,,,,,,4317.033717,None,,,,,,,,,,,,,,,,,running,167,57,sing,new,null,4315.442984,None,4315.442984,None,6,0.9168247,4315.442984,None,0.9168247,4316.390169,None,4316.900189,None,4316.900189,None,f,0.1075962,4316.900189,None,0.1075962,,,August8Sing1,21,2022_Aug_08_1355,ProdSingRedoBetween,2021.2.3,59.94582097
,,,,57,0,57,0,,,,,,,,,,,,,,,,,,,,,,4319.269216,None,,,,,,,,,,,,,,,,,fashion,27,58,sing,old,yellow,4317.534695,None,4317.534695,None,6,1.1130715,4317.534695,None,1.1130715,4318.674297,None,4319.185861,None,4319.185861,None,f,0.0619996,4319.185861,None,0.0619996,,,August8Sing1,21,2022_Aug_08_1355,ProdSingRedoBetween,2021.2.3,59.94582097
,,,,58,0,58,0,,,,,,,,,,,,,,,,,,,,,,4321.287948,None,,,,,,,,,,,,,,,,,space,21,59,sing,old,yellow,4319.769791,None,4319.769791,None,6,0.8540041,4319.769791,None,0.8540041,4320.654043,None,4321.15461,None,4321.15461,None,f,0.1092553,4321.15461,None,0.1092553,,,August8Sing1,21,2022_Aug_08_1355,ProdSingRedoBetween,2021.2.3,59.94582097
,,,,59,0,59,0,,,,,,,,,,,,,,,,,,,,,,4323.97392,None,,,,,,,,,,,,,,,,,native,31,60,sing,old,blue,4321.788365,None,4321.788365,None,5,1.5634158,4321.788365,None,1.5634158,4323.373369,None,4323.873888,None,4323.873888,None,f,0.0778885,4323.873888,None,0.0778885,,,August8Sing1,21,2022_Aug_08_1355,ProdSingRedoBetween,2021.2.3,59.94582097
,,,,60,0,60,0,,,,,,,,,,,,,,,,,,,,,,4326.643464,None,,,,,,,,,,,,,,,,,command,161,61,sing,new,null,4324.484447,None,4324.484447,None,6,1.4753151,4324.484447,None,1.4753151,4325.975999,None,4326.476765,None,4326.476765,None,f,0.147087,4326.476765,None,0.147087,,,August8Sing1,21,2022_Aug_08_1355,ProdSingRedoBetween,2021.2.3,59.94582097
,,,,61,0,61,0,,,,,,,,,,,,,,,,,,,,,,4329.01265,None,,,,,,,,,,,,,,,,,fellow,112,62,sing,new,null,4327.153176,None,4327.153176,None,6,1.2306252,4327.153176,None,1.2306252,4328.412385,None,4328.914015,None,4328.914015,None,f,0.0778475,4328.914015,None,0.0778475,,,August8Sing1,21,2022_Aug_08_1355,ProdSingRedoBetween,2021.2.3,59.94582097
,,,,62,0,62,0,,,,,,,,,,,,,,,,,,,,,,4331.24807,None,,,,,,,,,,,,,,,,,drama,105,63,sing,new,null,4329.521416,None,4329.521416,None,6,1.0065524,4329.521416,None,1.0065524,4330.548165,None,4331.048016,None,4331.048016,None,f,0.1838934,4331.048016,None,0.1838934,,,August8Sing1,21,2022_Aug_08_1355,ProdSingRedoBetween,2021.2.3,59.94582097
,,,,63,0,63,0,,,,,,,,,,,,,,,,,,,,,,4333.534213,None,,,,,,,,,,,,,,,,,power,15,64,sing,old,yellow,4331.749333,None,4331.749333,None,6,0.9945525,4331.749333,None,0.9945525,4332.766087,None,4333.270313,None,4333.270313,None,f,0.2416937,4333.270313,None,0.2416937,,,August8Sing1,21,2022_Aug_08_1355,ProdSingRedoBetween,2021.2.3,59.94582097
,,,,64,0,64,0,,,,,,,,,,,,,,,,,,,,,,4335.719226,None,,,,,,,,,,,,,,,,,touch,155,65,sing,new,null,4334.044048,None,4334.044048,None,6,0.923811,4334.044048,None,0.923811,4334.985602,None,4335.485862,None,4335.485862,None,f,0.2100454,4335.485862,None,0.2100454,,,August8Sing1,21,2022_Aug_08_1355,ProdSingRedoBetween,2021.2.3,59.94582097
,,,,65,0,65,0,,,,,,,,,,,,,,,,,,,,,,4338.004862,None,,,,,,,,,,,,,,,,,oxygen,5,66,sing,old,yellow,4336.225547,None,4336.225547,None,6,1.0303889,4336.225547,None,1.0303889,4337.270852,None,4337.771467,None,4337.771467,None,f,0.2124768,4337.771467,None,0.2124768,,,August8Sing1,21,2022_Aug_08_1355,ProdSingRedoBetween,2021.2.3,59.94582097
,,,,66,0,66,0,,,,,,,,,,,,,,,,,,,,,,4340.340585,None,,,,,,,,,,,,,,,,,community,9,67,sing,old,yellow,4338.505468,None,4338.505468,None,6,1.0545169,4338.505468,None,1.0545169,4339.596428,None,4340.114361,None,4340.114361,None,f,0.2054437,4340.114361,None,0.2054437,,,August8Sing1,21,2022_Aug_08_1355,ProdSingRedoBetween,2021.2.3,59.94582097
,,,,67,0,67,0,,,,,,,,,,,,,,,,,,,,,,4342.492696,None,,,,,,,,,,,,,,,,,block,14,68,sing,old,yellow,4340.859972,None,4340.859972,None,6,0.9559319,4340.859972,None,0.9559319,4341.844134,None,4342.359144,None,4342.359144,None,f,0.1048203,4342.359144,None,0.1048203,,,August8Sing1,21,2022_Aug_08_1355,ProdSingRedoBetween,2021.2.3,59.94582097
,,,,68,0,68,0,,,,,,,,,,,,,,,,,,,,,,4344.661238,None,,,,,,,,,,,,,,,,,recall,96,69,sing,new,null,4342.994914,None,4342.994914,None,6,1.0129876,4342.994914,None,1.0129876,4344.029264,None,4344.544854,None,4344.544854,None,f,0.0952008,4344.544854,None,0.0952008,,,August8Sing1,21,2022_Aug_08_1355,ProdSingRedoBetween,2021.2.3,59.94582097
,,,,69,0,69,0,,,,,,,,,,,,,,,,,,,,,,4347.3142,None,,,,,,,,,,,,,,,,,substance,92,70,sing,new,null,4345.165404,None,4345.165404,None,5,1.4985041,4345.165404,None,1.4985041,4346.681221,None,4347.187335,None,4347.187335,None,f,0.1085954,4347.187335,None,0.1085954,,,August8Sing1,21,2022_Aug_08_1355,ProdSingRedoBetween,2021.2.3,59.94582097
,,,,70,0,70,0,,,,,,,,,,,,,,,,,,,,,,4349.666488,None,,,,,,,,,,,,,,,,,universal,51,71,sing,old,blue,4347.825816,None,4347.825816,None,6,1.2300334,4347.825816,None,1.2300334,4349.083602,None,4349.583193,None,4349.583193,None,f,0.0646783,4349.583193,None,0.0646783,,,August8Sing1,21,2022_Aug_08_1355,ProdSingRedoBetween,2021.2.3,59.94582097
,,,,71,0,71,0,,,,,,,,,,,,,,,,,,,,,,4351.98552,None,,,,,,,,,,,,,,,,,household,125,72,sing,new,null,4350.176088,None,4350.176088,None,6,1.1678043,4350.176088,None,1.1678043,4351.368065,None,4351.869962,None,4351.869962,None,f,0.0979233,4351.869962,None,0.0979233,,,August8Sing1,21,2022_Aug_08_1355,ProdSingRedoBetween,2021.2.3,59.94582097
,,,,72,0,72,0,,,,,,,,,,,,,,,,,,,,,,4354.324027,None,,,,,,,,,,,,,,,,,finance,147,73,sing,new,null,4352.497065,None,4352.497065,None,6,1.118836,4352.497065,None,1.118836,4353.638194,None,4354.137854,None,4354.137854,None,f,0.1661387,4354.137854,None,0.1661387,,,August8Sing1,21,2022_Aug_08_1355,ProdSingRedoBetween,2021.2.3,59.94582097
,,,,73,0,73,0,,,,,,,,,,,,,,,,,,,,,,4357.057298,None,,,,,,,,,,,,,,,,,series,6,74,sing,old,yellow,4354.838289,None,4354.838289,None,6,1.5215863,4354.838289,None,1.5215863,4356.390989,None,4356.890489,None,4356.890489,None,f,0.1494065,4356.890489,None,0.1494065,,,August8Sing1,21,2022_Aug_08_1355,ProdSingRedoBetween,2021.2.3,59.94582097
,,,,74,0,74,0,,,,,,,,,,,,,,,,,,,,,,4359.526414,None,,,,,,,,,,,,,,,,,instrument,93,75,sing,new,null,4357.562796,None,4357.562796,None,6,1.0371055,4357.562796,None,1.0371055,4358.626497,None,4359.126107,None,4359.126107,None,f,0.3698161,4359.126107,None,0.3698161,,,August8Sing1,21,2022_Aug_08_1355,ProdSingRedoBetween,2021.2.3,59.94582097
,,,,75,0,75,0,,,,,,,,,,,,,,,,,,,,,,4362.229059,None,,,,,,,,,,,,,,,,,rural,130,76,sing,new,null,4360.027005,None,4360.027005,None,4,1.5489294,4360.027005,None,1.5489294,4361.594931,None,4362.095615,None,4362.095615,None,f,0.1123526,4362.095615,None,0.1123526,,,August8Sing1,21,2022_Aug_08_1355,ProdSingRedoBetween,2021.2.3,59.94582097
,,,,76,0,76,0,,,,,,,,,,,,,,,,,,,,,,4366.099418,None,,,,,,,,,,,,,,,,,country,150,77,sing,new,null,4362.729682,None,4362.729682,None,6,1.3102248,4362.729682,None,1.3102248,4364.064334,None,4364.56477,None,4364.56477,None,f,1.5070789,4364.56477,None,1.5070789,,,August8Sing1,21,2022_Aug_08_1355,ProdSingRedoBetween,2021.2.3,59.94582097
,,,,77,0,77,0,,,,,,,,,,,,,,,,,,,,,,4368.685541,None,,,,,,,,,,,,,,,,,waste,97,78,sing,new,null,4366.605648,None,4366.605648,None,6,1.3062927,4366.605648,None,1.3062927,4367.936076,None,4368.447258,None,4368.447258,None,f,0.2167233,4368.447258,None,0.2167233,,,August8Sing1,21,2022_Aug_08_1355,ProdSingRedoBetween,2021.2.3,59.94582097
,,,,78,0,78,0,,,,,,,,,,,,,,,,,,,,,,4371.438134,None,,,,,,,,,,,,,,,,,balance,108,79,sing,new,null,4369.202688,None,4369.202688,None,6,1.2692418,4369.202688,None,1.2692418,4370.488951,None,4371.004367,None,4371.004367,None,f,0.4115501,4371.004367,None,0.4115501,,,August8Sing1,21,2022_Aug_08_1355,ProdSingRedoBetween,2021.2.3,59.94582097
,,,,79,0,79,0,,,,,,,,,,,,,,,,,,,,,,4374.10749,None,,,,,,,,,,,,,,,,,quarter,43,80,sing,old,blue,4371.939016,None,4371.939016,None,6,1.3088984,4371.939016,None,1.3088984,4373.273249,None,4373.774163,None,4373.774163,None,f,0.3059043,4373.774163,None,0.3059043,,,August8Sing1,21,2022_Aug_08_1355,ProdSingRedoBetween,2021.2.3,59.94582097
,,,,80,0,80,0,,,,,,,,,,,,,,,,,,,,,,4376.359968,None,,,,,,,,,,,,,,,,,beginning,100,81,sing,new,null,4374.610148,None,4374.610148,None,6,1.0536906,4374.610148,None,1.0536906,4375.692622,None,4376.193239,None,4376.193239,None,f,0.1427371,4376.193239,None,0.1427371,,,August8Sing1,21,2022_Aug_08_1355,ProdSingRedoBetween,2021.2.3,59.94582097
,,,,81,0,81,0,,,,,,,,,,,,,,,,,,,,,,4378.812439,None,,,,,,,,,,,,,,,,,surprise,86,82,sing,old,red,4376.861208,None,4376.861208,None,6,1.1067773,4376.861208,None,1.1067773,4377.996931,None,4378.528629,None,4378.528629,None,f,0.2553175,4378.528629,None,0.2553175,,,August8Sing1,21,2022_Aug_08_1355,ProdSingRedoBetween,2021.2.3,59.94582097
,,,,82,0,82,0,,,,,,,,,,,,,,,,,,,,,,4381.33157,None,,,,,,,,,,,,,,,,,council,88,83,sing,old,red,4379.319765,None,4379.319765,None,6,1.0801776,4379.319765,None,1.0801776,4380.432802,None,4380.948032,None,4380.948032,None,f,0.3639259,4380.948032,None,0.3639259,,,August8Sing1,21,2022_Aug_08_1355,ProdSingRedoBetween,2021.2.3,59.94582097
,,,,83,0,83,0,,,,,,,,,,,,,,,,,,,,,,4383.650675,None,,,,,,,,,,,,,,,,,report,48,84,sing,old,blue,4381.832183,None,4381.832183,None,6,0.9357616,4381.832183,None,0.9357616,4382.791224,None,4383.311993,None,4383.311993,None,f,0.3119514,4383.311993,None,0.3119514,,,August8Sing1,21,2022_Aug_08_1355,ProdSingRedoBetween,2021.2.3,59.94582097
,,,,84,0,84,0,,,,,,,,,,,,,,,,,,,,,,4385.852776,None,,,,,,,,,,,,,,,,,welcome,169,85,sing,new,null,4384.152424,None,4384.152424,None,6,1.0397226,4384.152424,None,1.0397226,4385.231213,None,4385.736153,None,4385.736153,None,f,0.0878204,4385.736153,None,0.0878204,,,August8Sing1,21,2022_Aug_08_1355,ProdSingRedoBetween,2021.2.3,59.94582097
,,,,85,0,85,0,,,,,,,,,,,,,,,,,,,,,,4388.188423,None,,,,,,,,,,,,,,,,,incident,1,86,sing,old,yellow,4386.354063,None,4386.354063,None,6,1.1018915,4386.354063,None,1.1018915,4387.47339,None,4387.988401,None,4387.988401,None,f,0.1715513,4387.988401,None,0.1715513,,,August8Sing1,21,2022_Aug_08_1355,ProdSingRedoBetween,2021.2.3,59.94582097
,,,,86,0,86,0,,,,,,,,,,,,,,,,,,,,,,4390.874791,None,,,,,,,,,,,,,,,,,husband,38,87,sing,old,blue,4388.692301,None,4388.692301,None,6,1.3556388,4388.692301,None,1.3556388,4390.074724,None,4390.574274,None,4390.574274,None,f,0.2816067,4390.574274,None,0.2816067,,,August8Sing1,21,2022_Aug_08_1355,ProdSingRedoBetween,2021.2.3,59.94582097
,,,,87,0,87,0,,,,,,,,,,,,,,,,,,,,,,4393.460421,None,,,,,,,,,,,,,,,,,level,49,88,sing,old,blue,4391.377407,None,4391.377407,None,6,1.3266666,4391.377407,None,1.3266666,4392.730944,None,4393.243681,None,4393.243681,None,f,0.1882917,4393.243681,None,0.1882917,,,August8Sing1,21,2022_Aug_08_1355,ProdSingRedoBetween,2021.2.3,59.94582097
,,,,88,0,88,0,,,,,,,,,,,,,,,,,,,,,,4396.046089,None,,,,,,,,,,,,,,,,,music,127,89,sing,new,null,4393.973297,None,4393.973297,None,6,1.162739,4393.973297,None,1.162739,4395.171196,None,4395.684586,None,4395.684586,None,f,0.3312603,4395.684586,None,0.3312603,,,August8Sing1,21,2022_Aug_08_1355,ProdSingRedoBetween,2021.2.3,59.94582097
,,,,89,0,89,0,,,,,,,,,,,,,,,,,,,,,,4398.999252,None,,,,,,,,,,,,,,,,,mayor,4,90,sing,old,yellow,4396.547511,None,4396.547511,None,6,1.6683749,4396.547511,None,1.6683749,4398.231801,None,4398.732223,None,4398.732223,None,f,0.2516846,4398.732223,None,0.2516846,,,August8Sing1,21,2022_Aug_08_1355,ProdSingRedoBetween,2021.2.3,59.94582097
,,,,90,0,90,0,,,,,,,,,,,,,,,,,,,,,,4402.06907,None,,,,,,,,,,,,,,,,,court,77,91,sing,old,red,4399.499822,None,4399.499822,None,6,1.764047,4399.499822,None,1.764047,4401.288665,None,4401.801781,None,4401.801781,None,f,0.2380804,4401.801781,None,0.2380804,,,August8Sing1,21,2022_Aug_08_1355,ProdSingRedoBetween,2021.2.3,59.94582097
,,,,91,0,91,0,,,,,,,,,,,,,,,,,,,,,,4404.704741,None,,,,,,,,,,,,,,,,,sweet,174,92,sing,new,null,4402.569392,None,4402.569392,None,6,1.286508,4402.569392,None,1.286508,4403.876149,None,4404.387988,None,4404.387988,None,f,0.291879,4404.387988,None,0.291879,,,August8Sing1,21,2022_Aug_08_1355,ProdSingRedoBetween,2021.2.3,59.94582097
,,,,92,0,92,0,,,,,,,,,,,,,,,,,,,,,,4407.540973,None,,,,,,,,,,,,,,,,,quantity,154,93,sing,new,null,4405.205423,None,4405.205423,None,6,1.5384698,4405.205423,None,1.5384698,4406.77466,None,4407.274079,None,4407.274079,None,f,0.2378056,4407.274079,None,0.2378056,,,August8Sing1,21,2022_Aug_08_1355,ProdSingRedoBetween,2021.2.3,59.94582097
,,,,93,0,93,0,,,,,,,,,,,,,,,,,,,,,,4409.943375,None,,,,,,,,,,,,,,,,,sound,175,94,sing,new,null,4408.041503,None,4408.041503,None,6,1.1504498,4408.041503,None,1.1504498,4409.209187,None,4409.709779,None,4409.709779,None,f,0.2181503,4409.709779,None,0.2181503,,,August8Sing1,21,2022_Aug_08_1355,ProdSingRedoBetween,2021.2.3,59.94582097
,,,,94,0,94,0,,,,,,,,,,,,,,,,,,,,,,4412.362353,None,,,,,,,,,,,,,,,,,industry,61,95,sing,old,red,4410.443977,None,4410.443977,None,6,1.1399239,4410.443977,None,1.1399239,4411.611608,None,4412.112502,None,4412.112502,None,f,0.2313963,4412.112502,None,0.2313963,,,August8Sing1,21,2022_Aug_08_1355,ProdSingRedoBetween,2021.2.3,59.94582097
,,,,95,0,95,0,,,,,,,,,,,,,,,,,,,,,,4415.015586,None,,,,,,,,,,,,,,,,,provision,36,96,sing,old,blue,4412.863221,None,4412.863221,None,6,1.464779,4412.863221,None,1.464779,4414.34906,None,4414.848147,None,4414.848147,None,f,0.1517622,4414.848147,None,0.1517622,,,August8Sing1,21,2022_Aug_08_1355,ProdSingRedoBetween,2021.2.3,59.94582097
,,,,96,0,96,0,,,,,,,,,,,,,,,,,,,,,,4417.751125,None,,,,,,,,,,,,,,,,,evidence,131,97,sing,new,null,4415.515768,None,4415.515768,None,6,1.3721071,4415.515768,None,1.3721071,4416.92189,None,4417.43425,None,4417.43425,None,f,0.3016265,4417.43425,None,0.3016265,,,August8Sing1,21,2022_Aug_08_1355,ProdSingRedoBetween,2021.2.3,59.94582097
,,,,97,0,97,0,,,,,,,,,,,,,,,,,,,,,,4420.0384,None,,,,,,,,,,,,,,,,,smooth,164,98,sing,new,null,4418.253554,None,4418.253554,None,6,0.954421,4418.253554,None,0.954421,4419.240116,None,4419.755752,None,4419.755752,None,f,0.2523329,4419.755752,None,0.2523329,,,August8Sing1,21,2022_Aug_08_1355,ProdSingRedoBetween,2021.2.3,59.94582097
,,,,98,0,98,0,,,,,,,,,,,,,,,,,,,,,,4422.355937,None,,,,,,,,,,,,,,,,,south,75,99,sing,old,red,4420.546596,None,4420.546596,None,6,1.037393,4420.546596,None,1.037393,4421.60631,None,4422.109295,None,4422.109295,None,f,0.2186641,4422.109295,None,0.2186641,,,August8Sing1,21,2022_Aug_08_1355,ProdSingRedoBetween,2021.2.3,59.94582097
,,,,99,0,99,0,,,,,,,,,,,,,,,,,,,,,,4424.860203,None,,,,,,,,,,,,,,,,,education,109,100,sing,new,null,4422.869597,None,4422.869597,None,6,1.2824107,4422.869597,None,1.2824107,4424.176744,None,4424.691762,None,4424.691762,None,f,0.1482976,4424.691762,None,0.1482976,,,August8Sing1,21,2022_Aug_08_1355,ProdSingRedoBetween,2021.2.3,59.94582097
,,,,100,0,100,0,,,,,,,,,,,,,,,,,,,,,,4427.311467,None,,,,,,,,,,,,,,,,,income,52,101,sing,old,blue,4425.375976,None,4425.375976,None,6,1.1280444,4425.375976,None,1.1280444,4426.527331,None,4427.027511,None,4427.027511,None,f,0.2523919,4427.027511,None,0.2523919,,,August8Sing1,21,2022_Aug_08_1355,ProdSingRedoBetween,2021.2.3,59.94582097
,,,,101,0,101,0,,,,,,,,,,,,,,,,,,,,,,4430.01338,None,,,,,,,,,,,,,,,,,front,146,102,sing,new,null,4427.811307,None,4427.811307,None,6,1.5006637,4427.811307,None,1.5006637,4429.330254,None,4429.829903,None,4429.829903,None,f,0.162117,4429.829903,None,0.162117,,,August8Sing1,21,2022_Aug_08_1355,ProdSingRedoBetween,2021.2.3,59.94582097
,,,,102,0,102,0,,,,,,,,,,,,,,,,,,,,,,4432.572202,None,,,,,,,,,,,,,,,,,trial,53,103,sing,old,blue,4430.513929,None,4430.513929,None,6,1.2219881,4430.513929,None,1.2219881,4431.7656,None,4432.268214,None,4432.268214,None,f,0.2760762,4432.268214,None,0.2760762,,,August8Sing1,21,2022_Aug_08_1355,ProdSingRedoBetween,2021.2.3,59.94582097
,,,,103,0,103,0,,,,,,,,,,,,,,,,,,,,,,4435.569542,None,,,,,,,,,,,,,,,,,goose,165,104,sing,new,null,4433.094948,None,4433.094948,None,5,1.817251,4433.094948,None,1.817251,4434.936462,None,4435.440913,None,4435.440913,None,f,0.1031514,4435.440913,None,0.1031514,,,August8Sing1,21,2022_Aug_08_1355,ProdSingRedoBetween,2021.2.3,59.94582097
,,,,104,0,104,0,,,,,,,,,,,,,,,,,,,,,,4438.340036,None,,,,,,,,,,,,,,,,,whole,45,105,sing,old,blue,4436.07502,None,4436.07502,None,6,1.2929989,4436.07502,None,1.2929989,4437.389469,None,4437.905721,None,4437.905721,None,f,0.4063279,4437.905721,None,0.4063279,,,August8Sing1,21,2022_Aug_08_1355,ProdSingRedoBetween,2021.2.3,59.94582097
,,,,105,0,105,0,,,,,,,,,,,,,,,,,,,,,,4440.908334,None,,,,,,,,,,,,,,,,,close,141,106,sing,new,null,4438.842124,None,4438.842124,None,6,1.4299105,4438.842124,None,1.4299105,4440.291212,None,4440.797923,None,4440.797923,None,f,0.0901423,4440.797923,None,0.0901423,,,August8Sing1,21,2022_Aug_08_1355,ProdSingRedoBetween,2021.2.3,59.94582097
,,,,106,0,106,0,,,,,,,,,,,,,,,,,,,,,,4443.260166,None,,,,,,,,,,,,,,,,,pressure,24,107,sing,old,yellow,4441.40803,None,4441.40803,None,6,1.280005,4441.40803,None,1.280005,4442.712184,None,4443.23042,None,4443.23042,None,f,0.0095949,4443.23042,None,0.0095949,,,August8Sing1,21,2022_Aug_08_1355,ProdSingRedoBetween,2021.2.3,59.94582097
,,,,107,0,107,0,,,,,,,,,,,,,,,,,,,,,,4445.562298,None,,,,,,,,,,,,,,,,,fight,34,108,sing,old,blue,4443.770731,None,4443.770731,None,6,1.0532832,4443.770731,None,1.0532832,4444.846727,None,4445.364855,None,4445.364855,None,f,0.179196,4445.364855,None,0.179196,,,August8Sing1,21,2022_Aug_08_1355,ProdSingRedoBetween,2021.2.3,59.94582097
,,,,108,0,108,0,,,,,,,,,,,,,,,,,,,,,,4447.831228,None,,,,,,,,,,,,,,,,,harmony,118,109,sing,new,null,4446.072074,None,4446.072074,None,6,1.095947,4446.072074,None,1.095947,4447.198301,None,4447.703323,None,4447.703323,None,f,0.1126727,4447.703323,None,0.1126727,,,August8Sing1,21,2022_Aug_08_1355,ProdSingRedoBetween,2021.2.3,59.94582097
,,,,109,0,109,0,,,,,,,,,,,,,,,,,,,,,,4450.30447,None,,,,,,,,,,,,,,,,,benefit,60,110,sing,old,red,4448.348116,None,4448.348116,None,6,1.2199865,4448.348116,None,1.2199865,4449.59027,None,4450.10342,None,4450.10342,None,f,0.1767759,4450.10342,None,0.1767759,,,August8Sing1,21,2022_Aug_08_1355,ProdSingRedoBetween,2021.2.3,59.94582097
,,,,110,0,110,0,,,,,,,,,,,,,,,,,,,,,,4452.677433,None,,,,,,,,,,,,,,,,,guide,69,111,sing,old,red,4450.824224,None,4450.824224,None,6,1.1038374,4450.824224,None,1.1038374,4451.954432,None,4452.471755,None,4452.471755,None,f,0.1764296,4452.471755,None,0.1764296,,,August8Sing1,21,2022_Aug_08_1355,ProdSingRedoBetween,2021.2.3,59.94582097
,,,,111,0,111,0,,,,,,,,,,,,,,,,,,,,,,4454.822435,None,,,,,,,,,,,,,,,,,pattern,44,112,sing,old,blue,4453.192516,None,4453.192516,None,6,1.0074792,4453.192516,None,1.0074792,4454.222151,None,4454.730201,None,4454.730201,None,f,0.0618702,4454.730201,None,0.0618702,,,August8Sing1,21,2022_Aug_08_1355,ProdSingRedoBetween,2021.2.3,59.94582097
,,,,112,0,112,0,,,,,,,,,,,,,,,,,,,,,,4457.273707,None,,,,,,,,,,,,,,,,,citizen,30,113,sing,old,blue,4455.324792,None,4455.324792,None,6,1.1233291,4455.324792,None,1.1233291,4456.474443,None,4456.987398,None,4456.987398,None,f,0.2685569,4456.987398,None,0.2685569,,,August8Sing1,21,2022_Aug_08_1355,ProdSingRedoBetween,2021.2.3,59.94582097
,,,,113,0,113,0,,,,,,,,,,,,,,,,,,,,,,4459.526446,None,,,,,,,,,,,,,,,,,murder,29,114,sing,old,blue,4457.789423,None,4457.789423,None,6,1.0666074,4457.789423,None,1.0666074,4458.876675,None,4459.37646,None,4459.37646,None,f,0.127655,4459.37646,None,0.127655,,,August8Sing1,21,2022_Aug_08_1355,ProdSingRedoBetween,2021.2.3,59.94582097
,,,,114,0,114,0,,,,,,,,,,,,,,,,,,,,,,4461.845386,None,,,,,,,,,,,,,,,,,majority,94,115,sing,new,null,4460.029995,None,4460.029995,None,6,1.0099468,4460.029995,None,1.0099468,4461.06714,None,4461.578377,None,4461.578377,None,f,0.2376662,4461.578377,None,0.2376662,,,August8Sing1,21,2022_Aug_08_1355,ProdSingRedoBetween,2021.2.3,59.94582097
,,,,115,0,115,0,,,,,,,,,,,,,,,,,,,,,,4464.166449,None,,,,,,,,,,,,,,,,,generation,143,116,sing,new,null,4462.354627,None,4462.354627,None,6,1.0773004,4462.354627,None,1.0773004,4463.45407,None,4463.965091,None,4463.965091,None,f,0.1789986,4463.965091,None,0.1789986,,,August8Sing1,21,2022_Aug_08_1355,ProdSingRedoBetween,2021.2.3,59.94582097
,,,,116,0,116,0,,,,,,,,,,,,,,,,,,,,,,4466.40158,None,,,,,,,,,,,,,,,,,hearing,22,117,sing,old,yellow,4464.683773,None,4464.683773,None,6,0.9723361,4464.683773,None,0.9723361,4465.689011,None,4466.199912,None,4466.199912,None,f,0.1842163,4466.199912,None,0.1842163,,,August8Sing1,21,2022_Aug_08_1355,ProdSingRedoBetween,2021.2.3,59.94582097
,,,,117,0,117,0,,,,,,,,,,,,,,,,,,,,,,4468.33526,None,,,,,,,,,,,,,,,,,place,153,118,sing,new,null,4466.919865,None,4466.919865,None,6,0.6721608,4466.919865,None,0.6721608,4467.617617,None,4468.121952,None,4468.121952,None,f,0.1821631,4468.121952,None,0.1821631,,,August8Sing1,21,2022_Aug_08_1355,ProdSingRedoBetween,2021.2.3,59.94582097
,,,,118,0,118,0,,,,,,,,,,,,,,,,,,,,,,4470.520789,None,,,,,,,,,,,,,,,,,ground,71,119,sing,old,red,4468.841815,None,4468.841815,None,6,0.9662447,4468.841815,None,0.9662447,4469.837357,None,4470.339809,None,4470.339809,None,f,0.1641991,4470.339809,None,0.1641991,,,August8Sing1,21,2022_Aug_08_1355,ProdSingRedoBetween,2021.2.3,59.94582097
,,,,119,0,119,0,,,,,,,,,,,,,,,,,,,,,,4472.539447,None,,,,,,,,,,,,,,,,,pancakes,142,120,sing,new,null,4471.033947,None,4471.033947,None,6,0.8781312,4471.033947,None,0.8781312,4471.94437,None,4472.457848,None,4472.457848,None,f,0.0541541,4472.457848,None,0.0541541,,,August8Sing1,21,2022_Aug_08_1355,ProdSingRedoBetween,2021.2.3,59.94582097
,,,,120,0,120,0,,,,,,,,,,,,,,,,,,,,,,4475.075304,None,,,,,,,,,,,,,,,,,revolution,32,121,sing,old,blue,4473.050403,None,4473.050403,None,6,1.2695552,4473.050403,None,1.2695552,4474.342111,None,4474.848257,None,4474.848257,None,f,0.2077223,4474.848257,None,0.2077223,,,August8Sing1,21,2022_Aug_08_1355,ProdSingRedoBetween,2021.2.3,59.94582097
,,,,121,0,121,0,,,,,,,,,,,,,,,,,,,,,,4477.177731,None,,,,,,,,,,,,,,,,,couch,111,122,sing,new,null,4475.585775,None,4475.585775,None,6,0.8944216,4475.585775,None,0.8944216,4476.51702,None,4477.029661,None,4477.029661,None,f,0.1225279,4477.029661,None,0.1225279,,,August8Sing1,21,2022_Aug_08_1355,ProdSingRedoBetween,2021.2.3,59.94582097
,,,,122,0,122,0,,,,,,,,,,,,,,,,,,,,,,4480.063572,None,,,,,,,,,,,,,,,,,problem,160,123,sing,new,null,4477.68844,None,4477.68844,None,6,1.44769,4477.68844,None,1.44769,4479.16969,None,4479.68241,None,4479.68241,None,f,0.3656835,4479.68241,None,0.3656835,,,August8Sing1,21,2022_Aug_08_1355,ProdSingRedoBetween,2021.2.3,59.94582097
,,,,123,0,123,0,,,,,,,,,,,,,,,,,,,,,,4482.599273,None,,,,,,,,,,,,,,,,,route,87,124,sing,old,red,4480.572846,None,4480.572846,None,5,1.3392658,4480.572846,None,1.3392658,4481.935414,None,4482.451651,None,4482.451651,None,f,0.1165115,4482.451651,None,0.1165115,,,August8Sing1,21,2022_Aug_08_1355,ProdSingRedoBetween,2021.2.3,59.94582097
,,,,124,0,124,0,,,,,,,,,,,,,,,,,,,,,,4485.252141,None,,,,,,,,,,,,,,,,,enemy,17,125,sing,old,yellow,4483.100349,None,4483.100349,None,5,1.4277286,4483.100349,None,1.4277286,4484.552716,None,4485.056712,None,4485.056712,None,f,0.1753543,4485.056712,None,0.1753543,,,August8Sing1,21,2022_Aug_08_1355,ProdSingRedoBetween,2021.2.3,59.94582097
,,,,125,0,125,0,,,,,,,,,,,,,,,,,,,,,,4488.238459,None,,,,,,,,,,,,,,,,,rapid,177,126,sing,new,null,4485.766288,None,4485.766288,None,5,1.7857694,4485.766288,None,1.7857694,4487.572257,None,4488.079312,None,4488.079312,None,f,0.1288577,4488.079312,None,0.1288577,,,August8Sing1,21,2022_Aug_08_1355,ProdSingRedoBetween,2021.2.3,59.94582097
,,,,126,0,126,0,,,,,,,,,,,,,,,,,,,,,,4491.059769,None,,,,,,,,,,,,,,,,,clean,101,127,sing,new,null,4488.738876,None,4488.738876,None,6,1.5732249,4488.738876,None,1.5732249,4490.342455,None,4490.857766,None,4490.857766,None,f,0.1822852,4490.857766,None,0.1822852,,,August8Sing1,21,2022_Aug_08_1355,ProdSingRedoBetween,2021.2.3,59.94582097
,,,,127,0,127,0,,,,,,,,,,,,,,,,,,,,,,4493.493668,None,,,,,,,,,,,,,,,,,estate,63,128,sing,old,red,4491.580557,None,4491.580557,None,6,1.2836114,4491.580557,None,1.2836114,4492.89489,None,4493.410512,None,4493.410512,None,f,0.053505,4493.410512,None,0.053505,,,August8Sing1,21,2022_Aug_08_1355,ProdSingRedoBetween,2021.2.3,59.94582097
,,,,128,0,128,0,,,,,,,,,,,,,,,,,,,,,,4496.129748,None,,,,,,,,,,,,,,,,,gesture,134,129,sing,new,null,4493.994364,None,4493.994364,None,6,1.5576698,4493.994364,None,1.5576698,4495.579948,None,4496.083976,None,4496.083976,None,f,0.0282529,4496.083976,None,0.0282529,,,August8Sing1,21,2022_Aug_08_1355,ProdSingRedoBetween,2021.2.3,59.94582097
,,,,129,0,129,0,,,,,,,,,,,,,,,,,,,,,,4499.03461,None,,,,,,,,,,,,,,,,,turkey,159,130,sing,new,null,4496.63537,None,4496.63537,None,6,1.5087462,4496.63537,None,1.5087462,4498.168942,None,4498.682339,None,4498.682339,None,f,0.3258822,4498.682339,None,0.3258822,,,August8Sing1,21,2022_Aug_08_1355,ProdSingRedoBetween,2021.2.3,59.94582097
,,,,130,0,130,0,,,,,,,,,,,,,,,,,,,,,,4501.803624,None,,,,,,,,,,,,,,,,,crowd,178,131,sing,new,null,4499.555144,None,4499.555144,None,5,1.6449034,4499.555144,None,1.6449034,4501.219427,None,4501.726645,None,4501.726645,None,f,0.0494102,4501.726645,None,0.0494102,,,August8Sing1,21,2022_Aug_08_1355,ProdSingRedoBetween,2021.2.3,59.94582097
,,,,131,0,131,0,,,,,,,,,,,,,,,,,,,,,,4504.340478,None,,,,,,,,,,,,,,,,,order,72,132,sing,old,red,4502.304484,None,4502.304484,None,6,1.239764,4502.304484,None,1.239764,4503.574745,None,4504.090705,None,4504.090705,None,f,0.2295111,4504.090705,None,0.2295111,,,August8Sing1,21,2022_Aug_08_1355,ProdSingRedoBetween,2021.2.3,59.94582097
,,,,132,0,132,0,,,,,,,,,,,,,,,,,,,,,,4507.107168,None,,,,,,,,,,,,,,,,,brief,89,133,sing,old,red,4504.861905,None,4504.861905,None,6,1.2981349,4504.861905,None,1.2981349,4506.189575,None,4506.690138,None,4506.690138,None,f,0.3898725,4506.690138,None,0.3898725,,,August8Sing1,21,2022_Aug_08_1355,ProdSingRedoBetween,2021.2.3,59.94582097
,,,,133,0,133,0,,,,,,,,,,,,,,,,,,,,,,4510.693966,None,,,,,,,,,,,,,,,,,exchange,136,134,sing,new,null,4507.618628,None,4507.618628,None,6,2.1495223,4507.618628,None,2.1495223,4509.794617,None,4510.298436,None,4510.298436,None,f,0.3657117,4510.298436,None,0.3657117,,,August8Sing1,21,2022_Aug_08_1355,ProdSingRedoBetween,2021.2.3,59.94582097
,,,,134,0,134,0,,,,,,,,,,,,,,,,,,,,,,4513.248427,None,,,,,,,,,,,,,,,,,salary,67,135,sing,old,red,4511.195072,None,4511.195072,None,6,1.173032,4511.195072,None,1.173032,4512.398354,None,4512.913238,None,4512.913238,None,f,0.3109254,4512.913238,None,0.3109254,,,August8Sing1,21,2022_Aug_08_1355,ProdSingRedoBetween,2021.2.3,59.94582097
,,,,135,0,135,0,,,,,,,,,,,,,,,,,,,,,,4515.549173,None,,,,,,,,,,,,,,,,,patient,73,136,sing,old,red,4513.76693,None,4513.76693,None,6,1.0412326,4513.76693,None,1.0412326,4514.840533,None,4515.349033,None,4515.349033,None,f,0.1790655,4515.349033,None,0.1790655,,,August8Sing1,21,2022_Aug_08_1355,ProdSingRedoBetween,2021.2.3,59.94582097
,,,,136,0,136,0,,,,,,,,,,,,,,,,,,,,,,4518.018058,None,,,,,,,,,,,,,,,,,election,166,137,sing,new,null,4516.059447,None,4516.059447,None,6,1.0126719,4516.059447,None,1.0126719,4517.101445,None,4517.608132,None,4517.608132,None,f,0.3840646,4517.608132,None,0.3840646,,,August8Sing1,21,2022_Aug_08_1355,ProdSingRedoBetween,2021.2.3,59.94582097
,,,,137,0,137,0,,,,,,,,,,,,,,,,,,,,,,4520.187997,None,,,,,,,,,,,,,,,,,piece,163,138,sing,new,null,4518.519956,None,4518.519956,None,6,0.9603274,4518.519956,None,0.9603274,4519.513033,None,4520.02035,None,4520.02035,None,f,0.1478875,4520.02035,None,0.1478875,,,August8Sing1,21,2022_Aug_08_1355,ProdSingRedoBetween,2021.2.3,59.94582097
,,,,138,0,138,0,,,,,,,,,,,,,,,,,,,,,,4522.572789,None,,,,,,,,,,,,,,,,,victory,7,139,sing,old,yellow,4520.703538,None,4520.703538,None,6,1.1605745,4520.703538,None,1.1605745,4521.893378,None,4522.411262,None,4522.411262,None,f,0.1329148,4522.411262,None,0.1329148,,,August8Sing1,21,2022_Aug_08_1355,ProdSingRedoBetween,2021.2.3,59.94582097
,,,,139,0,139,0,,,,,,,,,,,,,,,,,,,,,,4524.908469,None,,,,,,,,,,,,,,,,,military,132,140,sing,new,null,4523.07631,None,4523.07631,None,6,1.1398126,4523.07631,None,1.1398126,4524.242387,None,4524.74155,None,4524.74155,None,f,0.1465816,4524.74155,None,0.1465816,,,August8Sing1,21,2022_Aug_08_1355,ProdSingRedoBetween,2021.2.3,59.94582097
,,,,140,0,140,0,,,,,,,,,,,,,,,,,,,,,,4527.379747,None,,,,,,,,,,,,,,,,,shock,50,141,sing,old,blue,4525.418454,None,4525.418454,None,6,1.2777292,4525.418454,None,1.2777292,4526.729457,None,4527.245705,None,4527.245705,None,f,0.1144553,4527.245705,None,0.1144553,,,August8Sing1,21,2022_Aug_08_1355,ProdSingRedoBetween,2021.2.3,59.94582097
,,,,141,0,141,0,,,,,,,,,,,,,,,,,,,,,,4529.746555,None,,,,,,,,,,,,,,,,,safety,35,142,sing,old,blue,4527.896878,None,4527.896878,None,6,1.1912599,4527.896878,None,1.1912599,4529.114939,None,4529.634382,None,4529.634382,None,f,0.0938028,4529.634382,None,0.0938028,,,August8Sing1,21,2022_Aug_08_1355,ProdSingRedoBetween,2021.2.3,59.94582097
,,,,142,0,142,0,,,,,,,,,,,,,,,,,,,,,,4532.065714,None,,,,,,,,,,,,,,,,,heavy,179,143,sing,new,null,4530.250556,None,4530.250556,None,6,1.1576276,4530.250556,None,1.1576276,4531.438912,None,4531.952047,None,4531.952047,None,f,0.0881701,4531.952047,None,0.0881701,,,August8Sing1,21,2022_Aug_08_1355,ProdSingRedoBetween,2021.2.3,59.94582097
,,,,143,0,143,0,,,,,,,,,,,,,,,,,,,,,,4534.584605,None,,,,,,,,,,,,,,,,,chief,117,144,sing,new,null,4532.572877,None,4532.572877,None,6,1.2513803,4532.572877,None,1.2513803,4533.853112,None,4534.371112,None,4534.371112,None,f,0.1890957,4534.371112,None,0.1890957,,,August8Sing1,21,2022_Aug_08_1355,ProdSingRedoBetween,2021.2.3,59.94582097
,,,,144,0,144,0,,,,,,,,,,,,,,,,,,,,,,4537.104504,None,,,,,,,,,,,,,,,,,grade,47,145,sing,old,blue,4535.086724,None,4535.086724,None,6,1.2893716,4535.086724,None,1.2893716,4536.403923,None,4536.905831,None,4536.905831,None,f,0.1823491,4536.905831,None,0.1823491,,,August8Sing1,21,2022_Aug_08_1355,ProdSingRedoBetween,2021.2.3,59.94582097
,,,,145,0,145,0,,,,,,,,,,,,,,,,,,,,,,4539.623189,None,,,,,,,,,,,,,,,,,territory,12,146,sing,old,yellow,4537.608749,None,4537.608749,None,5,1.247435,4537.608749,None,1.247435,4538.87369,None,4539.385288,None,4539.385288,None,f,0.2069293,4539.385288,None,0.2069293,,,August8Sing1,21,2022_Aug_08_1355,ProdSingRedoBetween,2021.2.3,59.94582097
,,,,146,0,146,0,,,,,,,,,,,,,,,,,,,,,,4541.958906,None,,,,,,,,,,,,,,,,,strength,149,147,sing,new,null,4540.13246,None,4540.13246,None,6,1.1157298,4540.13246,None,1.1157298,4541.280924,None,4541.793914,None,4541.793914,None,f,0.1422299,4541.793914,None,0.1422299,,,August8Sing1,21,2022_Aug_08_1355,ProdSingRedoBetween,2021.2.3,59.94582097
,,,,147,0,147,0,,,,,,,,,,,,,,,,,,,,,,4544.294537,None,,,,,,,,,,,,,,,,,debate,79,148,sing,old,red,4542.470684,None,4542.470684,None,6,1.2014626,4542.470684,None,1.2014626,4543.69493,None,4544.198574,None,4544.198574,None,f,0.065613,4544.198574,None,0.065613,,,August8Sing1,21,2022_Aug_08_1355,ProdSingRedoBetween,2021.2.3,59.94582097
,,,,148,0,148,0,,,,,,,,,,,,,,,,,,,,,,4546.663546,None,,,,,,,,,,,,,,,,,orchestra,68,149,sing,old,red,4544.813675,None,4544.813675,None,5,1.154372,4544.813675,None,1.154372,4546.002346,None,4546.518723,None,4546.518723,None,f,0.1214245,4546.518723,None,0.1214245,,,August8Sing1,21,2022_Aug_08_1355,ProdSingRedoBetween,2021.2.3,59.94582097
,,,,149,0,149,0,,,,,,,,,,,,,,,,,,,,,,4548.999279,None,,,,,,,,,,,,,,,,,leader,62,150,sing,old,red,4547.17235,None,4547.17235,None,6,1.1717962,4547.17235,None,1.1717962,4548.366258,None,4548.865932,None,4548.865932,None,f,0.1182851,4548.865932,None,0.1182851,,,August8Sing1,21,2022_Aug_08_1355,ProdSingRedoBetween,2021.2.3,59.94582097
,,,,150,0,150,0,,,,,,,,,,,,,,,,,,,,,,4551.468305,None,,,,,,,,,,,,,,,,,straight,91,151,sing,new,null,4549.510147,None,4549.510147,None,6,1.3140233,4549.510147,None,1.3140233,4550.859576,None,4551.368173,None,4551.368173,None,f,0.0718722,4551.368173,None,0.0718722,,,August8Sing1,21,2022_Aug_08_1355,ProdSingRedoBetween,2021.2.3,59.94582097
,,,,151,0,151,0,,,,,,,,,,,,,,,,,,,,,,4553.837415,None,,,,,,,,,,,,,,,,,emergency,103,152,sing,new,null,4551.974657,None,4551.974657,None,6,1.2895098,4551.974657,None,1.2895098,4553.290369,None,4553.80417,None,4553.80417,None,f,0.0039914,4553.80417,None,0.0039914,,,August8Sing1,21,2022_Aug_08_1355,ProdSingRedoBetween,2021.2.3,59.94582097
,,,,152,0,152,0,,,,,,,,,,,,,,,,,,,,,,4557.683597,None,,,,,,,,,,,,,,,,,character,80,153,sing,old,red,4554.346403,None,4554.346403,None,6,1.3736683,4554.346403,None,1.3736683,4555.746239,None,4556.256634,None,4556.256634,None,f,1.3996098,4556.256634,None,1.3996098,,,August8Sing1,21,2022_Aug_08_1355,ProdSingRedoBetween,2021.2.3,59.94582097
,,,,153,0,153,0,,,,,,,,,,,,,,,,,,,,,,4559.893475,None,,,,,,,,,,,,,,,,,center,170,154,sing,new,null,4558.191878,None,4558.191878,None,5,1.0802683,4558.191878,None,1.0802683,4559.292892,None,4559.793503,None,4559.793503,None,f,0.0787634,4559.793503,None,0.0787634,,,August8Sing1,21,2022_Aug_08_1355,ProdSingRedoBetween,2021.2.3,59.94582097
,,,,154,0,154,0,,,,,,,,,,,,,,,,,,,,,,4564.104417,None,,,,,,,,,,,,,,,,,region,25,155,sing,old,yellow,4560.39667,None,4560.39667,None,5,2.5154357,4560.39667,None,2.5154357,4562.929755,None,4563.434889,None,4563.434889,None,f,0.6372813,4563.434889,None,0.6372813,,,August8Sing1,21,2022_Aug_08_1355,ProdSingRedoBetween,2021.2.3,59.94582097
,,,,155,0,155,0,,,,,,,,,,,,,,,,,,,,,,4566.450854,None,,,,,,,,,,,,,,,,,listen,171,156,sing,new,null,4564.620717,None,4564.620717,None,6,1.1235093,4564.620717,None,1.1235093,4565.769419,None,4566.29219,None,4566.29219,None,f,0.1319783,4566.29219,None,0.1319783,,,August8Sing1,21,2022_Aug_08_1355,ProdSingRedoBetween,2021.2.3,59.94582097
,,,,156,0,156,0,,,,,,,,,,,,,,,,,,,,,,4569.019245,None,,,,,,,,,,,,,,,,,threat,148,157,sing,new,null,4566.953397,None,4566.953397,None,6,1.2788005,4566.953397,None,1.2788005,4568.251843,None,4568.756837,None,4568.756837,None,f,0.243344,4568.756837,None,0.243344,,,August8Sing1,21,2022_Aug_08_1355,ProdSingRedoBetween,2021.2.3,59.94582097
,,,,157,0,157,0,,,,,,,,,,,,,,,,,,,,,,4571.538267,None,,,,,,,,,,,,,,,,,discovery,123,158,sing,new,null,4569.535032,None,4569.535032,None,5,1.2010754,4569.535032,None,1.2010754,4570.759415,None,4571.278537,None,4571.278537,None,f,0.2335419,4571.278537,None,0.2335419,,,August8Sing1,21,2022_Aug_08_1355,ProdSingRedoBetween,2021.2.3,59.94582097
,,,,158,0,158,0,,,,,,,,,,,,,,,,,,,,,,4573.808374,None,,,,,,,,,,,,,,,,,symbol,39,159,sing,old,blue,4572.05544,None,4572.05544,None,6,1.1207535,4572.05544,None,1.1207535,4573.206884,None,4573.710771,None,4573.710771,None,f,0.0734622,4573.710771,None,0.0734622,,,August8Sing1,21,2022_Aug_08_1355,ProdSingRedoBetween,2021.2.3,59.94582097
,,,,159,0,159,0,,,,,,,,,,,,,,,,,,,,,,4576.260866,None,,,,,,,,,,,,,,,,,escape,106,160,sing,new,null,4574.316134,None,4574.316134,None,6,1.1800427,4574.316134,None,1.1800427,4575.526549,None,4576.035178,None,4576.035178,None,f,0.1970746,4576.035178,None,0.1970746,,,August8Sing1,21,2022_Aug_08_1355,ProdSingRedoBetween,2021.2.3,59.94582097
,,,,160,0,160,0,,,,,,,,,,,,,,,,,,,,,,4578.988652,None,,,,,,,,,,,,,,,,,commercial,176,161,sing,new,null,4576.764565,None,4576.764565,None,6,1.4996735,4576.764565,None,1.4996735,4578.295883,None,4578.798004,None,4578.798004,None,f,0.1544898,4578.798004,None,0.1544898,,,August8Sing1,21,2022_Aug_08_1355,ProdSingRedoBetween,2021.2.3,59.94582097
,,,,161,0,161,0,,,,,,,,,,,,,,,,,,,,,,4581.348659,None,,,,,,,,,,,,,,,,,committee,107,162,sing,new,null,4579.498813,None,4579.498813,None,6,1.0934855,4579.498813,None,1.0934855,4580.615151,None,4581.11468,None,4581.11468,None,f,0.2054108,4581.11468,None,0.2054108,,,August8Sing1,21,2022_Aug_08_1355,ProdSingRedoBetween,2021.2.3,59.94582097
,,,,162,0,162,0,,,,,,,,,,,,,,,,,,,,,,4583.667311,None,,,,,,,,,,,,,,,,,carry,138,163,sing,new,null,4581.848653,None,4581.848653,None,6,1.1035809,4581.848653,None,1.1035809,4582.985414,None,4583.500566,None,4583.500566,None,f,0.1396397,4583.500566,None,0.1396397,,,August8Sing1,21,2022_Aug_08_1355,ProdSingRedoBetween,2021.2.3,59.94582097
,,,,163,0,163,0,,,,,,,,,,,,,,,,,,,,,,4585.66927,None,,,,,,,,,,,,,,,,,agreement,3,164,sing,old,yellow,4584.176703,None,4584.176703,None,6,0.7034847,4584.176703,None,0.7034847,4584.903724,None,4585.419219,None,4585.419219,None,f,0.2290312,4585.419219,None,0.2290312,,,August8Sing1,21,2022_Aug_08_1355,ProdSingRedoBetween,2021.2.3,59.94582097
,,,,164,0,164,0,,,,,,,,,,,,,,,,,,,,,,4587.988208,None,,,,,,,,,,,,,,,,,religion,26,165,sing,old,yellow,4586.170936,None,4586.170936,None,6,0.9012117,4586.170936,None,0.9012117,4587.090783,None,4587.617967,None,4587.617967,None,f,0.3422544,4587.617967,None,0.3422544,,,August8Sing1,21,2022_Aug_08_1355,ProdSingRedoBetween,2021.2.3,59.94582097
,,,,165,0,165,0,,,,,,,,,,,,,,,,,,,,,,4590.42395,None,,,,,,,,,,,,,,,,,foundation,133,166,sing,new,null,4588.493278,None,4588.493278,None,6,0.9868163,4588.493278,None,0.9868163,4589.507707,None,4590.00702,None,4590.00702,None,f,0.3932766,4590.00702,None,0.3932766,,,August8Sing1,21,2022_Aug_08_1355,ProdSingRedoBetween,2021.2.3,59.94582097
,,,,166,0,166,0,,,,,,,,,,,,,,,,,,,,,,4592.742981,None,,,,,,,,,,,,,,,,,service,20,167,sing,old,yellow,4590.928937,None,4590.928937,None,6,0.7753314,4590.928937,None,0.7753314,4591.731607,None,4592.249639,None,4592.249639,None,f,0.4706427,4592.249639,None,0.4706427,,,August8Sing1,21,2022_Aug_08_1355,ProdSingRedoBetween,2021.2.3,59.94582097
,,,,167,0,167,0,,,,,,,,,,,,,,,,,,,,,,4595.295566,None,,,,,,,,,,,,,,,,,guest,126,168,sing,new,null,4593.253339,None,4593.253339,None,5,1.1468785,4593.253339,None,1.1468785,4594.431457,None,4594.945258,None,4594.945258,None,f,0.3349422,4594.945258,None,0.3349422,,,August8Sing1,21,2022_Aug_08_1355,ProdSingRedoBetween,2021.2.3,59.94582097
,,,,168,0,168,0,,,,,,,,,,,,,,,,,,,,,,4597.735887,None,,,,,,,,,,,,,,,,,speech,19,169,sing,old,yellow,4595.802631,None,4595.802631,None,6,1.2296566,4595.802631,None,1.2296566,4597.053577,None,4597.564474,None,4597.564474,None,f,0.147837,4597.564474,None,0.147837,,,August8Sing1,21,2022_Aug_08_1355,ProdSingRedoBetween,2021.2.3,59.94582097
,,,,169,0,169,0,,,,,,,,,,,,,,,,,,,,,,4600.150451,None,,,,,,,,,,,,,,,,,defeat,104,170,sing,new,null,4598.251013,None,4598.251013,None,6,1.085214,4598.251013,None,1.085214,4599.367238,None,4599.866707,None,4599.866707,None,f,0.2536532,4599.866707,None,0.2536532,,,August8Sing1,21,2022_Aug_08_1355,ProdSingRedoBetween,2021.2.3,59.94582097
,,,,170,0,170,0,,,,,,,,,,,,,,,,,,,,,,4602.602699,None,,,,,,,,,,,,,,,,,suggestion,59,171,sing,old,yellow,4600.658916,None,4600.658916,None,5,1.1253256,4600.658916,None,1.1253256,4601.807952,None,4602.319383,None,4602.319383,None,f,0.2647928,4602.319383,None,0.2647928,,,August8Sing1,21,2022_Aug_08_1355,ProdSingRedoBetween,2021.2.3,59.94582097
,,,,171,0,171,0,,,,,,,,,,,,,,,,,,,,,,4605.189785,None,,,,,,,,,,,,,,,,,equipment,120,172,sing,new,null,4603.10538,None,4603.10538,None,6,0.8388057,4603.10538,None,0.8388057,4603.972738,None,4604.488255,None,4604.488255,None,f,0.6800015,4604.488255,None,0.6800015,,,August8Sing1,21,2022_Aug_08_1355,ProdSingRedoBetween,2021.2.3,59.94582097
,,,,172,0,172,0,,,,,,,,,,,,,,,,,,,,,,4607.891513,None,,,,,,,,,,,,,,,,,build,16,173,sing,old,yellow,4605.691722,None,4605.691722,None,5,1.2765347,4605.691722,None,1.2765347,4606.993636,None,4607.507942,None,4607.507942,None,f,0.3562952,4607.507942,None,0.3562952,,,August8Sing1,21,2022_Aug_08_1355,ProdSingRedoBetween,2021.2.3,59.94582097
,,,,173,0,173,0,,,,,,,,,,,,,,,,,,,,,,4610.327319,None,,,,,,,,,,,,,,,,,profession,85,174,sing,old,red,4608.406645,None,4608.406645,None,5,1.2336064,4608.406645,None,1.2336064,4609.668499,None,4610.182788,None,4610.182788,None,f,0.1295208,4610.182788,None,0.1295208,,,August8Sing1,21,2022_Aug_08_1355,ProdSingRedoBetween,2021.2.3,59.94582097
,,,,174,0,174,0,,,,,,,,,,,,,,,,,,,,,,4613.380375,None,,,,,,,,,,,,,,,,,society,2,175,sing,old,yellow,4610.83078,None,4610.83078,None,6,1.7134026,4610.83078,None,1.7134026,4612.564919,None,4613.084091,None,4613.084091,None,f,0.2760638,4613.084091,None,0.2760638,,,August8Sing1,21,2022_Aug_08_1355,ProdSingRedoBetween,2021.2.3,59.94582097
,,,,175,0,175,0,,,,,,,,,,,,,,,,,,,,,,4615.8495,None,,,,,,,,,,,,,,,,,right,18,176,sing,old,yellow,4613.890344,None,4613.890344,None,6,1.0379371,4613.890344,None,1.0379371,4614.953069,None,4615.470015,None,4615.470015,None,f,0.362211,4615.470015,None,0.362211,,,August8Sing1,21,2022_Aug_08_1355,ProdSingRedoBetween,2021.2.3,59.94582097
,,,,176,0,176,0,,,,,,,,,,,,,,,,,,,,,,4618.452072,None,,,,,,,,,,,,,,,,,present,162,177,sing,new,null,4616.354264,None,4616.354264,None,6,1.2621018,4616.354264,None,1.2621018,4617.6504,None,4618.152021,None,4618.152021,None,f,0.2721679,4618.152021,None,0.2721679,,,August8Sing1,21,2022_Aug_08_1355,ProdSingRedoBetween,2021.2.3,59.94582097
,,,,177,0,177,0,,,,,,,,,,,,,,,,,,,,,,4620.987965,None,,,,,,,,,,,,,,,,,novel,129,178,sing,new,null,4618.965298,None,4618.965298,None,5,1.1548787,4618.965298,None,1.1548787,4620.141271,None,4620.654405,None,4620.654405,None,f,0.3137469,4620.654405,None,0.3137469,,,August8Sing1,21,2022_Aug_08_1355,ProdSingRedoBetween,2021.2.3,59.94582097
,,,,178,0,178,0,,,,,,,,,,,,,,,,,,,,,,4623.373368,None,,,,,,,,,,,,,,,,,quick,140,179,sing,new,null,4621.489505,None,4621.489505,None,6,1.0227094,4621.489505,None,1.0227094,4622.540208,None,4623.043906,None,4623.043906,None,f,0.3003492,4623.043906,None,0.3003492,,,August8Sing1,21,2022_Aug_08_1355,ProdSingRedoBetween,2021.2.3,59.94582097
,,,,179,0,179,0,,,,,,,,,,,,,,,,,,,,,,4625.744319,None,,,,,,,,,,,,,,,,,trend,57,180,sing,old,blue,4623.874349,None,4623.874349,None,5,1.0619062,4623.874349,None,1.0619062,4624.958571,None,4625.46338,None,4625.46338,None,f,0.249149,4625.46338,None,0.249149,,,August8Sing1,21,2022_Aug_08_1355,ProdSingRedoBetween,2021.2.3,59.94582097
,,,,,,,,,,,,,,,,,,,,,,,,,,,,,,,,,,,,,,,,,,,,,,,,,,,,,,,,,,,,,,,,,,,,,,,,,4626.260414,None,,,,,,
