StudyLoop.thisRepN,StudyLoop.thisTrialN,StudyLoop.thisN,StudyLoop.thisIndex,TestLoop.thisRepN,TestLoop.thisTrialN,TestLoop.thisN,TestLoop.thisIndex,textCondition.started,textCondition.stopped,keyCondition.keys,keyCondition.rt,keyCondition.started,keyCondition.stopped,Condition,textWelcome.started,textWelcome.stopped,keyWelcome.keys,keyWelcome.rt,keyWelcome.started,keyWelcome.stopped,textAloud.started,textAloud.stopped,textSilent.started,textSilent.stopped,textSing.started,textSing.stopped,conditional_text.started,conditional_text.stopped,textBlank500.started,textBlank500.stopped,study_word,study_num,study_order,study_type,word_color,textStudy.started,textStudy.stopped,keyStudy.keys,keyStudy.started,keyStudy.stopped,textTestInstructions.started,textTestInstructions.stopped,key_resp_3.keys,key_resp_3.rt,key_resp_3.started,key_resp_3.stopped,test_word,test_num,test_order,test_condition,old_new_test,test_word_original_color,textConf.started,textConf.stopped,textConfScale.started,textConfScale.stopped,keyConf.keys,keyConf.rt,keyConf.started,keyConf.stopped,confidence response time,textTestBlank.started,textTestBlank.stopped,textRKN.started,textRKN.stopped,textRKNScale.started,textRKNScale.stopped,keyRKN.keys,keyRKN.rt,keyRKN.started,keyRKN.stopped,rkn response time,textEnd.started,textEnd.stopped,participant,session,date,expName,psychopyVersion,frameRate
,,,,,,,,36.3250889,None,c,394.0360189,36.3250889,None,,,,,,,,,,,,,,,,,,,,,,,,,,,,,,,,,,,,,,,,,,,,,,,,,,,,,,,,,,,,,,Sep09Sing1,48,2022_Sep_09_1433,ProdSingRedoBetween,2021.2.3,59.93942522
,,,,,,,,,,,,,,SingTest,430.429075,None,space,25.31625,430.429075,None,,,,,,,,,,,,,,,,,,,,,,,,,,,,,,,,,,,,,,,,,,,,,,,,,,,,,,,Sep09Sing1,48,2022_Sep_09_1433,ProdSingRedoBetween,2021.2.3,59.93942522
0,0,0,0,,,,,,,,,,,,,,,,,,430.429075,None,430.429075,None,430.429075,None,430.429075,None,458.2720636,None,signal,40,1,sing,blue,456.2715242,None,None,456.2715242,None,,,,,,,,,,,,,,,,,,,,,,,,,,,,,,,,,,,Sep09Sing1,48,2022_Sep_09_1433,ProdSingRedoBetween,2021.2.3,59.93942522
1,0,1,0,,,,,,,,,,,,,,,,,,,,,,,,,,460.7745688,None,build,73,2,sing,red,458.7724714,None,None,458.7724714,None,,,,,,,,,,,,,,,,,,,,,,,,,,,,,,,,,,,Sep09Sing1,48,2022_Sep_09_1433,ProdSingRedoBetween,2021.2.3,59.93942522
2,0,2,0,,,,,,,,,,,,,,,,,,,,,,,,,,463.2768109,None,thick,64,3,sing,red,461.2771001,None,None,461.2771001,None,,,,,,,,,,,,,,,,,,,,,,,,,,,,,,,,,,,Sep09Sing1,48,2022_Sep_09_1433,ProdSingRedoBetween,2021.2.3,59.93942522
3,0,3,0,,,,,,,,,,,,,,,,,,,,,,,,,,465.795905,None,exchange,67,4,sing,red,463.7886404,None,None,463.7886404,None,,,,,,,,,,,,,,,,,,,,,,,,,,,,,,,,,,,Sep09Sing1,48,2022_Sep_09_1433,ProdSingRedoBetween,2021.2.3,59.93942522
4,0,4,0,,,,,,,,,,,,,,,,,,,,,,,,,,468.2984377,None,prime,50,5,sing,blue,466.2967203,None,None,466.2967203,None,,,,,,,,,,,,,,,,,,,,,,,,,,,,,,,,,,,Sep09Sing1,48,2022_Sep_09_1433,ProdSingRedoBetween,2021.2.3,59.93942522
5,0,5,0,,,,,,,,,,,,,,,,,,,,,,,,,,470.8012641,None,bitter,55,6,sing,blue,468.7990401,None,None,468.7990401,None,,,,,,,,,,,,,,,,,,,,,,,,,,,,,,,,,,,Sep09Sing1,48,2022_Sep_09_1433,ProdSingRedoBetween,2021.2.3,59.93942522
6,0,6,0,,,,,,,,,,,,,,,,,,,,,,,,,,473.3038366,None,corner,0,7,sing,yellow,471.3037168,None,None,471.3037168,None,,,,,,,,,,,,,,,,,,,,,,,,,,,,,,,,,,,Sep09Sing1,48,2022_Sep_09_1433,ProdSingRedoBetween,2021.2.3,59.93942522
7,0,7,0,,,,,,,,,,,,,,,,,,,,,,,,,,475.8230309,None,colonel,57,8,sing,blue,473.809816,None,None,473.809816,None,,,,,,,,,,,,,,,,,,,,,,,,,,,,,,,,,,,Sep09Sing1,48,2022_Sep_09_1433,ProdSingRedoBetween,2021.2.3,59.93942522
8,0,8,0,,,,,,,,,,,,,,,,,,,,,,,,,,478.3255183,None,alert,39,9,sing,blue,476.3264577,None,None,476.3264577,None,,,,,,,,,,,,,,,,,,,,,,,,,,,,,,,,,,,Sep09Sing1,48,2022_Sep_09_1433,ProdSingRedoBetween,2021.2.3,59.93942522
9,0,9,0,,,,,,,,,,,,,,,,,,,,,,,,,,480.8279537,None,history,87,10,sing,red,478.8279754,None,None,478.8279754,None,,,,,,,,,,,,,,,,,,,,,,,,,,,,,,,,,,,Sep09Sing1,48,2022_Sep_09_1433,ProdSingRedoBetween,2021.2.3,59.93942522
10,0,10,0,,,,,,,,,,,,,,,,,,,,,,,,,,483.3304323,None,design,52,11,sing,blue,481.3285051,None,None,481.3285051,None,,,,,,,,,,,,,,,,,,,,,,,,,,,,,,,,,,,Sep09Sing1,48,2022_Sep_09_1433,ProdSingRedoBetween,2021.2.3,59.93942522
11,0,11,0,,,,,,,,,,,,,,,,,,,,,,,,,,485.8330141,None,point,7,12,sing,yellow,483.8336499,None,None,483.8336499,None,,,,,,,,,,,,,,,,,,,,,,,,,,,,,,,,,,,Sep09Sing1,48,2022_Sep_09_1433,ProdSingRedoBetween,2021.2.3,59.93942522
12,0,12,0,,,,,,,,,,,,,,,,,,,,,,,,,,488.3354762,None,weather,8,13,sing,yellow,486.3362461,None,None,486.3362461,None,,,,,,,,,,,,,,,,,,,,,,,,,,,,,,,,,,,Sep09Sing1,48,2022_Sep_09_1433,ProdSingRedoBetween,2021.2.3,59.93942522
13,0,13,0,,,,,,,,,,,,,,,,,,,,,,,,,,490.8544611,None,industry,27,14,sing,yellow,488.8493067,None,None,488.8493067,None,,,,,,,,,,,,,,,,,,,,,,,,,,,,,,,,,,,Sep09Sing1,48,2022_Sep_09_1433,ProdSingRedoBetween,2021.2.3,59.93942522
14,0,14,0,,,,,,,,,,,,,,,,,,,,,,,,,,493.3571597,None,meeting,63,15,sing,red,491.3576207,None,None,491.3576207,None,,,,,,,,,,,,,,,,,,,,,,,,,,,,,,,,,,,Sep09Sing1,48,2022_Sep_09_1433,ProdSingRedoBetween,2021.2.3,59.93942522
15,0,15,0,,,,,,,,,,,,,,,,,,,,,,,,,,495.8596558,None,birth,79,16,sing,red,493.8602465,None,None,493.8602465,None,,,,,,,,,,,,,,,,,,,,,,,,,,,,,,,,,,,Sep09Sing1,48,2022_Sep_09_1433,ProdSingRedoBetween,2021.2.3,59.93942522
16,0,16,0,,,,,,,,,,,,,,,,,,,,,,,,,,498.3789598,None,dance,41,17,sing,blue,496.3689378,None,None,496.3689378,None,,,,,,,,,,,,,,,,,,,,,,,,,,,,,,,,,,,Sep09Sing1,48,2022_Sep_09_1433,ProdSingRedoBetween,2021.2.3,59.93942522
17,0,17,0,,,,,,,,,,,,,,,,,,,,,,,,,,500.8812365,None,watch,42,18,sing,blue,498.8790735,None,None,498.8790735,None,,,,,,,,,,,,,,,,,,,,,,,,,,,,,,,,,,,Sep09Sing1,48,2022_Sep_09_1433,ProdSingRedoBetween,2021.2.3,59.93942522
18,0,18,0,,,,,,,,,,,,,,,,,,,,,,,,,,503.4005767,None,express,9,19,sing,yellow,501.3871859,None,None,501.3871859,None,,,,,,,,,,,,,,,,,,,,,,,,,,,,,,,,,,,Sep09Sing1,48,2022_Sep_09_1433,ProdSingRedoBetween,2021.2.3,59.93942522
19,0,19,0,,,,,,,,,,,,,,,,,,,,,,,,,,505.9031742,None,guest,23,20,sing,yellow,503.9015068,None,None,503.9015068,None,,,,,,,,,,,,,,,,,,,,,,,,,,,,,,,,,,,Sep09Sing1,48,2022_Sep_09_1433,ProdSingRedoBetween,2021.2.3,59.93942522
20,0,20,0,,,,,,,,,,,,,,,,,,,,,,,,,,508.4055036,None,public,35,21,sing,blue,506.4041285,None,None,506.4041285,None,,,,,,,,,,,,,,,,,,,,,,,,,,,,,,,,,,,Sep09Sing1,48,2022_Sep_09_1433,ProdSingRedoBetween,2021.2.3,59.93942522
21,0,21,0,,,,,,,,,,,,,,,,,,,,,,,,,,510.9247081,None,search,5,22,sing,yellow,508.9131889,None,None,508.9131889,None,,,,,,,,,,,,,,,,,,,,,,,,,,,,,,,,,,,Sep09Sing1,48,2022_Sep_09_1433,ProdSingRedoBetween,2021.2.3,59.93942522
22,0,22,0,,,,,,,,,,,,,,,,,,,,,,,,,,513.4272464,None,property,82,23,sing,red,511.4249752,None,None,511.4249752,None,,,,,,,,,,,,,,,,,,,,,,,,,,,,,,,,,,,Sep09Sing1,48,2022_Sep_09_1433,ProdSingRedoBetween,2021.2.3,59.93942522
23,0,23,0,,,,,,,,,,,,,,,,,,,,,,,,,,515.9297399,None,household,31,24,sing,blue,513.9282979,None,None,513.9282979,None,,,,,,,,,,,,,,,,,,,,,,,,,,,,,,,,,,,Sep09Sing1,48,2022_Sep_09_1433,ProdSingRedoBetween,2021.2.3,59.93942522
24,0,24,0,,,,,,,,,,,,,,,,,,,,,,,,,,518.4322477,None,company,43,25,sing,blue,516.4330485,None,None,516.4330485,None,,,,,,,,,,,,,,,,,,,,,,,,,,,,,,,,,,,Sep09Sing1,48,2022_Sep_09_1433,ProdSingRedoBetween,2021.2.3,59.93942522
25,0,25,0,,,,,,,,,,,,,,,,,,,,,,,,,,520.951434,None,research,83,26,sing,red,518.9371379,None,None,518.9371379,None,,,,,,,,,,,,,,,,,,,,,,,,,,,,,,,,,,,Sep09Sing1,48,2022_Sep_09_1433,ProdSingRedoBetween,2021.2.3,59.93942522
26,0,26,0,,,,,,,,,,,,,,,,,,,,,,,,,,523.4539246,None,population,70,27,sing,red,521.4541978,None,None,521.4541978,None,,,,,,,,,,,,,,,,,,,,,,,,,,,,,,,,,,,Sep09Sing1,48,2022_Sep_09_1433,ProdSingRedoBetween,2021.2.3,59.93942522
27,0,27,0,,,,,,,,,,,,,,,,,,,,,,,,,,525.9562805,None,color,4,28,sing,yellow,523.9544153,None,None,523.9544153,None,,,,,,,,,,,,,,,,,,,,,,,,,,,,,,,,,,,Sep09Sing1,48,2022_Sep_09_1433,ProdSingRedoBetween,2021.2.3,59.93942522
28,0,28,0,,,,,,,,,,,,,,,,,,,,,,,,,,528.4589236,None,under,69,29,sing,red,526.4575312,None,None,526.4575312,None,,,,,,,,,,,,,,,,,,,,,,,,,,,,,,,,,,,Sep09Sing1,48,2022_Sep_09_1433,ProdSingRedoBetween,2021.2.3,59.93942522
29,0,29,0,,,,,,,,,,,,,,,,,,,,,,,,,,530.9615578,None,career,78,30,sing,red,528.9594858,None,None,528.9594858,None,,,,,,,,,,,,,,,,,,,,,,,,,,,,,,,,,,,Sep09Sing1,48,2022_Sep_09_1433,ProdSingRedoBetween,2021.2.3,59.93942522
30,0,30,0,,,,,,,,,,,,,,,,,,,,,,,,,,533.4805148,None,speech,25,31,sing,yellow,531.4729304,None,None,531.4729304,None,,,,,,,,,,,,,,,,,,,,,,,,,,,,,,,,,,,Sep09Sing1,48,2022_Sep_09_1433,ProdSingRedoBetween,2021.2.3,59.93942522
31,0,31,0,,,,,,,,,,,,,,,,,,,,,,,,,,535.9830168,None,little,58,32,sing,blue,533.9833423,None,None,533.9833423,None,,,,,,,,,,,,,,,,,,,,,,,,,,,,,,,,,,,Sep09Sing1,48,2022_Sep_09_1433,ProdSingRedoBetween,2021.2.3,59.93942522
32,0,32,0,,,,,,,,,,,,,,,,,,,,,,,,,,538.4856435,None,charter,88,33,sing,red,536.4836141,None,None,536.4836141,None,,,,,,,,,,,,,,,,,,,,,,,,,,,,,,,,,,,Sep09Sing1,48,2022_Sep_09_1433,ProdSingRedoBetween,2021.2.3,59.93942522
33,0,33,0,,,,,,,,,,,,,,,,,,,,,,,,,,540.9881612,None,appearance,32,34,sing,blue,538.985918,None,None,538.985918,None,,,,,,,,,,,,,,,,,,,,,,,,,,,,,,,,,,,Sep09Sing1,48,2022_Sep_09_1433,ProdSingRedoBetween,2021.2.3,59.93942522
34,0,34,0,,,,,,,,,,,,,,,,,,,,,,,,,,543.5071689,None,division,86,35,sing,red,541.496683,None,None,541.496683,None,,,,,,,,,,,,,,,,,,,,,,,,,,,,,,,,,,,Sep09Sing1,48,2022_Sep_09_1433,ProdSingRedoBetween,2021.2.3,59.93942522
35,0,35,0,,,,,,,,,,,,,,,,,,,,,,,,,,546.009758,None,skill,89,36,sing,red,544.0077306,None,None,544.0077306,None,,,,,,,,,,,,,,,,,,,,,,,,,,,,,,,,,,,Sep09Sing1,48,2022_Sep_09_1433,ProdSingRedoBetween,2021.2.3,59.93942522
36,0,36,0,,,,,,,,,,,,,,,,,,,,,,,,,,548.5122976,None,light,75,37,sing,red,546.5103115,None,None,546.5103115,None,,,,,,,,,,,,,,,,,,,,,,,,,,,,,,,,,,,Sep09Sing1,48,2022_Sep_09_1433,ProdSingRedoBetween,2021.2.3,59.93942522
37,0,37,0,,,,,,,,,,,,,,,,,,,,,,,,,,551.03116,None,permit,37,38,sing,blue,549.0163264,None,None,549.0163264,None,,,,,,,,,,,,,,,,,,,,,,,,,,,,,,,,,,,Sep09Sing1,48,2022_Sep_09_1433,ProdSingRedoBetween,2021.2.3,59.93942522
38,0,38,0,,,,,,,,,,,,,,,,,,,,,,,,,,553.5506089,None,oxygen,59,39,sing,yellow,551.5423859,None,None,551.5423859,None,,,,,,,,,,,,,,,,,,,,,,,,,,,,,,,,,,,Sep09Sing1,48,2022_Sep_09_1433,ProdSingRedoBetween,2021.2.3,59.93942522
39,0,39,0,,,,,,,,,,,,,,,,,,,,,,,,,,556.0697894,None,rough,68,40,sing,red,554.0548898,None,None,554.0548898,None,,,,,,,,,,,,,,,,,,,,,,,,,,,,,,,,,,,Sep09Sing1,48,2022_Sep_09_1433,ProdSingRedoBetween,2021.2.3,59.93942522
40,0,40,0,,,,,,,,,,,,,,,,,,,,,,,,,,558.5889448,None,pancakes,10,41,sing,yellow,556.5764014,None,None,556.5764014,None,,,,,,,,,,,,,,,,,,,,,,,,,,,,,,,,,,,Sep09Sing1,48,2022_Sep_09_1433,ProdSingRedoBetween,2021.2.3,59.93942522
41,0,41,0,,,,,,,,,,,,,,,,,,,,,,,,,,561.0912506,None,union,71,42,sing,red,559.0894982,None,None,559.0894982,None,,,,,,,,,,,,,,,,,,,,,,,,,,,,,,,,,,,Sep09Sing1,48,2022_Sep_09_1433,ProdSingRedoBetween,2021.2.3,59.93942522
42,0,42,0,,,,,,,,,,,,,,,,,,,,,,,,,,563.593882,None,reach,54,43,sing,blue,561.5921584,None,None,561.5921584,None,,,,,,,,,,,,,,,,,,,,,,,,,,,,,,,,,,,Sep09Sing1,48,2022_Sep_09_1433,ProdSingRedoBetween,2021.2.3,59.93942522
43,0,43,0,,,,,,,,,,,,,,,,,,,,,,,,,,566.1132196,None,native,76,44,sing,red,564.1055063,None,None,564.1055063,None,,,,,,,,,,,,,,,,,,,,,,,,,,,,,,,,,,,Sep09Sing1,48,2022_Sep_09_1433,ProdSingRedoBetween,2021.2.3,59.93942522
44,0,44,0,,,,,,,,,,,,,,,,,,,,,,,,,,568.6157514,None,reading,53,45,sing,blue,566.6134928,None,None,566.6134928,None,,,,,,,,,,,,,,,,,,,,,,,,,,,,,,,,,,,Sep09Sing1,48,2022_Sep_09_1433,ProdSingRedoBetween,2021.2.3,59.93942522
45,0,45,0,,,,,,,,,,,,,,,,,,,,,,,,,,571.1182202,None,weight,81,46,sing,red,569.1181454,None,None,569.1181454,None,,,,,,,,,,,,,,,,,,,,,,,,,,,,,,,,,,,Sep09Sing1,48,2022_Sep_09_1433,ProdSingRedoBetween,2021.2.3,59.93942522
46,0,46,0,,,,,,,,,,,,,,,,,,,,,,,,,,573.6207403,None,nature,13,47,sing,yellow,571.6185414,None,None,571.6185414,None,,,,,,,,,,,,,,,,,,,,,,,,,,,,,,,,,,,Sep09Sing1,48,2022_Sep_09_1433,ProdSingRedoBetween,2021.2.3,59.93942522
47,0,47,0,,,,,,,,,,,,,,,,,,,,,,,,,,576.1399255,None,dream,15,48,sing,yellow,574.1269977,None,None,574.1269977,None,,,,,,,,,,,,,,,,,,,,,,,,,,,,,,,,,,,Sep09Sing1,48,2022_Sep_09_1433,ProdSingRedoBetween,2021.2.3,59.93942522
48,0,48,0,,,,,,,,,,,,,,,,,,,,,,,,,,578.6591988,None,growth,33,49,sing,blue,576.6456266,None,None,576.6456266,None,,,,,,,,,,,,,,,,,,,,,,,,,,,,,,,,,,,Sep09Sing1,48,2022_Sep_09_1433,ProdSingRedoBetween,2021.2.3,59.93942522
49,0,49,0,,,,,,,,,,,,,,,,,,,,,,,,,,581.1615645,None,subject,80,50,sing,red,579.1608435,None,None,579.1608435,None,,,,,,,,,,,,,,,,,,,,,,,,,,,,,,,,,,,Sep09Sing1,48,2022_Sep_09_1433,ProdSingRedoBetween,2021.2.3,59.93942522
50,0,50,0,,,,,,,,,,,,,,,,,,,,,,,,,,583.6640183,None,length,17,51,sing,yellow,581.6618372,None,None,581.6618372,None,,,,,,,,,,,,,,,,,,,,,,,,,,,,,,,,,,,Sep09Sing1,48,2022_Sep_09_1433,ProdSingRedoBetween,2021.2.3,59.93942522
51,0,51,0,,,,,,,,,,,,,,,,,,,,,,,,,,586.1832101,None,country,19,52,sing,yellow,584.1689443,None,None,584.1689443,None,,,,,,,,,,,,,,,,,,,,,,,,,,,,,,,,,,,Sep09Sing1,48,2022_Sep_09_1433,ProdSingRedoBetween,2021.2.3,59.93942522
52,0,52,0,,,,,,,,,,,,,,,,,,,,,,,,,,588.685773,None,swift,48,53,sing,blue,586.6837593,None,None,586.6837593,None,,,,,,,,,,,,,,,,,,,,,,,,,,,,,,,,,,,Sep09Sing1,48,2022_Sep_09_1433,ProdSingRedoBetween,2021.2.3,59.93942522
53,0,53,0,,,,,,,,,,,,,,,,,,,,,,,,,,591.2048834,None,expansion,44,54,sing,blue,589.1906026,None,None,589.1906026,None,,,,,,,,,,,,,,,,,,,,,,,,,,,,,,,,,,,Sep09Sing1,48,2022_Sep_09_1433,ProdSingRedoBetween,2021.2.3,59.93942522
54,0,54,0,,,,,,,,,,,,,,,,,,,,,,,,,,593.7075003,None,comfort,36,55,sing,blue,591.706782,None,None,591.706782,None,,,,,,,,,,,,,,,,,,,,,,,,,,,,,,,,,,,Sep09Sing1,48,2022_Sep_09_1433,ProdSingRedoBetween,2021.2.3,59.93942522
55,0,55,0,,,,,,,,,,,,,,,,,,,,,,,,,,596.2266823,None,stand,56,56,sing,blue,594.2173427,None,None,594.2173427,None,,,,,,,,,,,,,,,,,,,,,,,,,,,,,,,,,,,Sep09Sing1,48,2022_Sep_09_1433,ProdSingRedoBetween,2021.2.3,59.93942522
56,0,56,0,,,,,,,,,,,,,,,,,,,,,,,,,,598.7290654,None,service,62,57,sing,red,596.7269911,None,None,596.7269911,None,,,,,,,,,,,,,,,,,,,,,,,,,,,,,,,,,,,Sep09Sing1,48,2022_Sep_09_1433,ProdSingRedoBetween,2021.2.3,59.93942522
57,0,57,0,,,,,,,,,,,,,,,,,,,,,,,,,,601.231724,None,number,49,58,sing,blue,599.2292948,None,None,599.2292948,None,,,,,,,,,,,,,,,,,,,,,,,,,,,,,,,,,,,Sep09Sing1,48,2022_Sep_09_1433,ProdSingRedoBetween,2021.2.3,59.93942522
58,0,58,0,,,,,,,,,,,,,,,,,,,,,,,,,,603.7508926,None,order,30,59,sing,blue,601.7360979,None,None,601.7360979,None,,,,,,,,,,,,,,,,,,,,,,,,,,,,,,,,,,,Sep09Sing1,48,2022_Sep_09_1433,ProdSingRedoBetween,2021.2.3,59.93942522
59,0,59,0,,,,,,,,,,,,,,,,,,,,,,,,,,606.2533173,None,south,26,60,sing,yellow,604.2513389,None,None,604.2513389,None,,,,,,,,,,,,,,,,,,,,,,,,,,,,,,,,,,,Sep09Sing1,48,2022_Sep_09_1433,ProdSingRedoBetween,2021.2.3,59.93942522
60,0,60,0,,,,,,,,,,,,,,,,,,,,,,,,,,608.7558154,None,escape,24,61,sing,yellow,606.7559857,None,None,606.7559857,None,,,,,,,,,,,,,,,,,,,,,,,,,,,,,,,,,,,Sep09Sing1,48,2022_Sep_09_1433,ProdSingRedoBetween,2021.2.3,59.93942522
61,0,61,0,,,,,,,,,,,,,,,,,,,,,,,,,,611.2582501,None,dispute,11,62,sing,yellow,609.256104,None,None,609.256104,None,,,,,,,,,,,,,,,,,,,,,,,,,,,,,,,,,,,Sep09Sing1,48,2022_Sep_09_1433,ProdSingRedoBetween,2021.2.3,59.93942522
62,0,62,0,,,,,,,,,,,,,,,,,,,,,,,,,,613.777477,None,pressure,16,63,sing,yellow,611.7648155,None,None,611.7648155,None,,,,,,,,,,,,,,,,,,,,,,,,,,,,,,,,,,,Sep09Sing1,48,2022_Sep_09_1433,ProdSingRedoBetween,2021.2.3,59.93942522
63,0,63,0,,,,,,,,,,,,,,,,,,,,,,,,,,616.2800763,None,couch,65,64,sing,red,614.2778632,None,None,614.2778632,None,,,,,,,,,,,,,,,,,,,,,,,,,,,,,,,,,,,Sep09Sing1,48,2022_Sep_09_1433,ProdSingRedoBetween,2021.2.3,59.93942522
64,0,64,0,,,,,,,,,,,,,,,,,,,,,,,,,,618.7825579,None,addition,29,65,sing,blue,616.7806592,None,None,616.7806592,None,,,,,,,,,,,,,,,,,,,,,,,,,,,,,,,,,,,Sep09Sing1,48,2022_Sep_09_1433,ProdSingRedoBetween,2021.2.3,59.93942522
65,0,65,0,,,,,,,,,,,,,,,,,,,,,,,,,,621.2849384,None,column,45,66,sing,blue,619.2847821,None,None,619.2847821,None,,,,,,,,,,,,,,,,,,,,,,,,,,,,,,,,,,,Sep09Sing1,48,2022_Sep_09_1433,ProdSingRedoBetween,2021.2.3,59.93942522
66,0,66,0,,,,,,,,,,,,,,,,,,,,,,,,,,623.8041675,None,discovery,77,67,sing,red,621.7955259,None,None,621.7955259,None,,,,,,,,,,,,,,,,,,,,,,,,,,,,,,,,,,,Sep09Sing1,48,2022_Sep_09_1433,ProdSingRedoBetween,2021.2.3,59.93942522
67,0,67,0,,,,,,,,,,,,,,,,,,,,,,,,,,626.3065967,None,individual,6,68,sing,yellow,624.3074285,None,None,624.3074285,None,,,,,,,,,,,,,,,,,,,,,,,,,,,,,,,,,,,Sep09Sing1,48,2022_Sep_09_1433,ProdSingRedoBetween,2021.2.3,59.93942522
68,0,68,0,,,,,,,,,,,,,,,,,,,,,,,,,,628.8257686,None,frank,47,69,sing,blue,626.8123127,None,None,626.8123127,None,,,,,,,,,,,,,,,,,,,,,,,,,,,,,,,,,,,Sep09Sing1,48,2022_Sep_09_1433,ProdSingRedoBetween,2021.2.3,59.93942522
69,0,69,0,,,,,,,,,,,,,,,,,,,,,,,,,,631.3283534,None,rural,14,70,sing,yellow,629.3261212,None,None,629.3261212,None,,,,,,,,,,,,,,,,,,,,,,,,,,,,,,,,,,,Sep09Sing1,48,2022_Sep_09_1433,ProdSingRedoBetween,2021.2.3,59.93942522
70,0,70,0,,,,,,,,,,,,,,,,,,,,,,,,,,633.8307062,None,surface,12,71,sing,yellow,631.8289089,None,None,631.8289089,None,,,,,,,,,,,,,,,,,,,,,,,,,,,,,,,,,,,Sep09Sing1,48,2022_Sep_09_1433,ProdSingRedoBetween,2021.2.3,59.93942522
71,0,71,0,,,,,,,,,,,,,,,,,,,,,,,,,,636.3333938,None,worker,72,72,sing,red,634.3314031,None,None,634.3314031,None,,,,,,,,,,,,,,,,,,,,,,,,,,,,,,,,,,,Sep09Sing1,48,2022_Sep_09_1433,ProdSingRedoBetween,2021.2.3,59.93942522
72,0,72,0,,,,,,,,,,,,,,,,,,,,,,,,,,638.835838,None,split,1,73,sing,yellow,636.8340199,None,None,636.8340199,None,,,,,,,,,,,,,,,,,,,,,,,,,,,,,,,,,,,Sep09Sing1,48,2022_Sep_09_1433,ProdSingRedoBetween,2021.2.3,59.93942522
73,0,73,0,,,,,,,,,,,,,,,,,,,,,,,,,,641.3551324,None,attack,60,74,sing,red,639.3418779,None,None,639.3418779,None,,,,,,,,,,,,,,,,,,,,,,,,,,,,,,,,,,,Sep09Sing1,48,2022_Sep_09_1433,ProdSingRedoBetween,2021.2.3,59.93942522
74,0,74,0,,,,,,,,,,,,,,,,,,,,,,,,,,643.8741958,None,master,51,75,sing,blue,641.8595019,None,None,641.8595019,None,,,,,,,,,,,,,,,,,,,,,,,,,,,,,,,,,,,Sep09Sing1,48,2022_Sep_09_1433,ProdSingRedoBetween,2021.2.3,59.93942522
75,0,75,0,,,,,,,,,,,,,,,,,,,,,,,,,,646.3933875,None,brief,18,76,sing,yellow,644.3817209,None,None,644.3817209,None,,,,,,,,,,,,,,,,,,,,,,,,,,,,,,,,,,,Sep09Sing1,48,2022_Sep_09_1433,ProdSingRedoBetween,2021.2.3,59.93942522
76,0,76,0,,,,,,,,,,,,,,,,,,,,,,,,,,648.8958914,None,graduate,84,77,sing,red,646.8939574,None,None,646.8939574,None,,,,,,,,,,,,,,,,,,,,,,,,,,,,,,,,,,,Sep09Sing1,48,2022_Sep_09_1433,ProdSingRedoBetween,2021.2.3,59.93942522
77,0,77,0,,,,,,,,,,,,,,,,,,,,,,,,,,651.3984644,None,tennis,2,78,sing,yellow,649.3980133,None,None,649.3980133,None,,,,,,,,,,,,,,,,,,,,,,,,,,,,,,,,,,,Sep09Sing1,48,2022_Sep_09_1433,ProdSingRedoBetween,2021.2.3,59.93942522
78,0,78,0,,,,,,,,,,,,,,,,,,,,,,,,,,653.9176533,None,quick,20,79,sing,yellow,651.9163287,None,None,651.9163287,None,,,,,,,,,,,,,,,,,,,,,,,,,,,,,,,,,,,Sep09Sing1,48,2022_Sep_09_1433,ProdSingRedoBetween,2021.2.3,59.93942522
79,0,79,0,,,,,,,,,,,,,,,,,,,,,,,,,,656.4201221,None,music,38,80,sing,blue,654.4193508,None,None,654.4193508,None,,,,,,,,,,,,,,,,,,,,,,,,,,,,,,,,,,,Sep09Sing1,48,2022_Sep_09_1433,ProdSingRedoBetween,2021.2.3,59.93942522
80,0,80,0,,,,,,,,,,,,,,,,,,,,,,,,,,658.9389402,None,empty,74,81,sing,red,656.9245623,None,None,656.9245623,None,,,,,,,,,,,,,,,,,,,,,,,,,,,,,,,,,,,Sep09Sing1,48,2022_Sep_09_1433,ProdSingRedoBetween,2021.2.3,59.93942522
81,0,81,0,,,,,,,,,,,,,,,,,,,,,,,,,,661.4418551,None,mechanical,21,82,sing,yellow,659.4398219,None,None,659.4398219,None,,,,,,,,,,,,,,,,,,,,,,,,,,,,,,,,,,,Sep09Sing1,48,2022_Sep_09_1433,ProdSingRedoBetween,2021.2.3,59.93942522
82,0,82,0,,,,,,,,,,,,,,,,,,,,,,,,,,663.9442579,None,appeal,3,83,sing,yellow,661.944909,None,None,661.944909,None,,,,,,,,,,,,,,,,,,,,,,,,,,,,,,,,,,,Sep09Sing1,48,2022_Sep_09_1433,ProdSingRedoBetween,2021.2.3,59.93942522
83,0,83,0,,,,,,,,,,,,,,,,,,,,,,,,,,666.4468623,None,goose,22,84,sing,yellow,664.4447885,None,None,664.4447885,None,,,,,,,,,,,,,,,,,,,,,,,,,,,,,,,,,,,Sep09Sing1,48,2022_Sep_09_1433,ProdSingRedoBetween,2021.2.3,59.93942522
84,0,84,0,,,,,,,,,,,,,,,,,,,,,,,,,,668.9493292,None,bright,46,85,sing,blue,666.9501462,None,None,666.9501462,None,,,,,,,,,,,,,,,,,,,,,,,,,,,,,,,,,,,Sep09Sing1,48,2022_Sep_09_1433,ProdSingRedoBetween,2021.2.3,59.93942522
85,0,85,0,,,,,,,,,,,,,,,,,,,,,,,,,,671.4514623,None,equipment,28,86,sing,yellow,669.4519103,None,None,669.4519103,None,,,,,,,,,,,,,,,,,,,,,,,,,,,,,,,,,,,Sep09Sing1,48,2022_Sep_09_1433,ProdSingRedoBetween,2021.2.3,59.93942522
86,0,86,0,,,,,,,,,,,,,,,,,,,,,,,,,,673.9709917,None,break,34,87,sing,blue,671.9585828,None,None,671.9585828,None,,,,,,,,,,,,,,,,,,,,,,,,,,,,,,,,,,,Sep09Sing1,48,2022_Sep_09_1433,ProdSingRedoBetween,2021.2.3,59.93942522
87,0,87,0,,,,,,,,,,,,,,,,,,,,,,,,,,676.4733951,None,breath,85,88,sing,red,674.471543,None,None,674.471543,None,,,,,,,,,,,,,,,,,,,,,,,,,,,,,,,,,,,Sep09Sing1,48,2022_Sep_09_1433,ProdSingRedoBetween,2021.2.3,59.93942522
88,0,88,0,,,,,,,,,,,,,,,,,,,,,,,,,,678.9760046,None,payment,61,89,sing,red,676.9751914,None,None,676.9751914,None,,,,,,,,,,,,,,,,,,,,,,,,,,,,,,,,,,,Sep09Sing1,48,2022_Sep_09_1433,ProdSingRedoBetween,2021.2.3,59.93942522
89,0,89,0,,,,,,,,,,,,,,,,,,,,,,,,,,681.4785023,None,employment,66,90,sing,red,679.4791998,None,None,679.4791998,None,,,,,,,,,,,,,,,,,,,,,,,,,,,,,,,,,,,Sep09Sing1,48,2022_Sep_09_1433,ProdSingRedoBetween,2021.2.3,59.93942522
,,,,,,,,,,,,,,,,,,,,,,,,,,,,,,,,,,,,,,,,,681.9792546,None,k,131.5584639,681.9792546,None,,,,,,,,,,,,,,,,,,,,,,,,,,,,,Sep09Sing1,48,2022_Sep_09_1433,ProdSingRedoBetween,2021.2.3,59.93942522
,,,,0,0,0,0,,,,,,,,,,,,,,,,,,,,,,824.7077065,None,,,,,,,,,,,,,,,,,little,58,1,sing,old,blue,814.0734752,None,814.0734752,None,1,5.5039018,814.0734752,None,5.5039018,819.5996107,None,820.1019795,None,820.1019795,None,f,4.5794456,820.1019795,None,4.5794456,,,Sep09Sing1,48,2022_Sep_09_1433,ProdSingRedoBetween,2021.2.3,59.93942522
,,,,1,0,1,0,,,,,,,,,,,,,,,,,,,,,,834.0809605,None,,,,,,,,,,,,,,,,,income,166,2,sing,new,null,825.2251167,None,825.2251167,None,3,3.6962888,825.2251167,None,3.6962888,828.9423904,None,829.4431338,None,829.4431338,None,r,4.6141463,829.4431338,None,4.6141463,,,Sep09Sing1,48,2022_Sep_09_1433,ProdSingRedoBetween,2021.2.3,59.93942522
,,,,2,0,2,0,,,,,,,,,,,,,,,,,,,,,,845.6939607,None,,,,,,,,,,,,,,,,,short,170,3,sing,new,null,834.5848444,None,834.5848444,None,4,7.4245819,834.5848444,None,7.4245819,842.039901,None,842.5439454,None,842.5439454,None,f,3.129455,842.5439454,None,3.129455,,,Sep09Sing1,48,2022_Sep_09_1433,ProdSingRedoBetween,2021.2.3,59.93942522
,,,,3,0,3,0,,,,,,,,,,,,,,,,,,,,,,853.5016248,None,,,,,,,,,,,,,,,,,capital,179,4,sing,new,null,846.2022076,None,846.2022076,None,5,3.1271313,846.2022076,None,3.1271313,849.3481733,None,849.8640588,None,849.8640588,None,n,3.617538,849.8640588,None,3.617538,,,Sep09Sing1,48,2022_Sep_09_1433,ProdSingRedoBetween,2021.2.3,59.93942522
,,,,4,0,4,0,,,,,,,,,,,,,,,,,,,,,,860.4086343,None,,,,,,,,,,,,,,,,,colonel,57,5,sing,old,blue,854.0048492,None,854.0048492,None,6,2.8445765,854.0048492,None,2.8445765,856.8715088,None,857.3710642,None,857.3710642,None,r,3.0064185,857.3710642,None,3.0064185,,,Sep09Sing1,48,2022_Sep_09_1433,ProdSingRedoBetween,2021.2.3,59.93942522
,,,,5,0,5,0,,,,,,,,,,,,,,,,,,,,,,868.8154863,None,,,,,,,,,,,,,,,,,escape,24,6,sing,old,yellow,860.9155334,None,860.9155334,None,6,2.4138515,860.9155334,None,2.4138515,863.3610152,None,863.8649274,None,863.8649274,None,f,4.9205797,863.8649274,None,4.9205797,,,Sep09Sing1,48,2022_Sep_09_1433,ProdSingRedoBetween,2021.2.3,59.93942522
,,,,6,0,6,0,,,,,,,,,,,,,,,,,,,,,,874.3546151,None,,,,,,,,,,,,,,,,,pancakes,10,7,sing,old,yellow,869.3190275,None,869.3190275,None,6,1.8583975,869.3190275,None,1.8583975,871.2015902,None,871.7021181,None,871.7021181,None,r,2.635253,871.7021181,None,2.635253,,,Sep09Sing1,48,2022_Sep_09_1433,ProdSingRedoBetween,2021.2.3,59.93942522
,,,,7,0,7,0,,,,,,,,,,,,,,,,,,,,,,883.0298887,None,,,,,,,,,,,,,,,,,goose,22,8,sing,old,yellow,874.8657678,None,874.8657678,None,1,3.9437599,874.8657678,None,3.9437599,878.8264194,None,879.3277133,None,879.3277133,None,f,3.6817274,879.3277133,None,3.6817274,,,Sep09Sing1,48,2022_Sep_09_1433,ProdSingRedoBetween,2021.2.3,59.93942522
,,,,8,0,8,0,,,,,,,,,,,,,,,,,,,,,,891.2381235,None,,,,,,,,,,,,,,,,,nation,114,9,sing,new,null,883.5378943,None,883.5378943,None,4,3.3276344,883.5378943,None,3.3276344,886.8894161,None,887.4010813,None,887.4010813,None,r,3.8163653,887.4010813,None,3.8163653,,,Sep09Sing1,48,2022_Sep_09_1433,ProdSingRedoBetween,2021.2.3,59.93942522
,,,,9,0,9,0,,,,,,,,,,,,,,,,,,,,,,898.3118271,None,,,,,,,,,,,,,,,,,character,154,10,sing,new,null,891.7509277,None,891.7509277,None,2,2.402492,891.7509277,None,2.402492,894.1771262,None,894.6937525,None,894.6937525,None,f,3.5876827,894.6937525,None,3.5876827,,,Sep09Sing1,48,2022_Sep_09_1433,ProdSingRedoBetween,2021.2.3,59.93942522
,,,,10,0,10,0,,,,,,,,,,,,,,,,,,,,,,905.8731998,None,,,,,,,,,,,,,,,,,appearance,32,11,sing,old,blue,898.8225804,None,898.8225804,None,6,2.5708469,898.8225804,None,2.5708469,901.4171016,None,901.9322664,None,901.9322664,None,f,3.9174551,901.9322664,None,3.9174551,,,Sep09Sing1,48,2022_Sep_09_1433,ProdSingRedoBetween,2021.2.3,59.93942522
,,,,11,0,11,0,,,,,,,,,,,,,,,,,,,,,,913.7137821,None,,,,,,,,,,,,,,,,,empty,74,12,sing,old,red,906.3968442,None,906.3968442,None,2,2.8607816,906.3968442,None,2.8607816,909.2793995,None,909.7944969,None,909.7944969,None,f,3.8948403,909.7944969,None,3.8948403,,,Sep09Sing1,48,2022_Sep_09_1433,ProdSingRedoBetween,2021.2.3,59.93942522
,,,,12,0,12,0,,,,,,,,,,,,,,,,,,,,,,922.3870265,None,,,,,,,,,,,,,,,,,majority,94,13,sing,new,null,914.2338687,None,914.2338687,None,1,3.6475246,914.2338687,None,3.6475246,917.9005035,None,918.4208137,None,918.4208137,None,n,3.948769,918.4208137,None,3.948769,,,Sep09Sing1,48,2022_Sep_09_1433,ProdSingRedoBetween,2021.2.3,59.93942522
,,,,13,0,13,0,,,,,,,,,,,,,,,,,,,,,,931.0781256,None,,,,,,,,,,,,,,,,,month,173,14,sing,new,null,922.886578,None,922.886578,None,1,3.3071413,922.886578,None,3.3071413,926.2297824,None,926.7401926,None,926.7401926,None,f,4.3172707,926.7401926,None,4.3172707,,,Sep09Sing1,48,2022_Sep_09_1433,ProdSingRedoBetween,2021.2.3,59.93942522
,,,,14,0,14,0,,,,,,,,,,,,,,,,,,,,,,937.5344256,None,,,,,,,,,,,,,,,,,rough,68,15,sing,old,red,931.5869775,None,931.5869775,None,2,2.8065108,931.5869775,None,2.8065108,934.4177746,None,934.9319781,None,934.9319781,None,f,2.5814912,934.9319781,None,2.5814912,,,Sep09Sing1,48,2022_Sep_09_1433,ProdSingRedoBetween,2021.2.3,59.93942522
,,,,15,0,15,0,,,,,,,,,,,,,,,,,,,,,,945.1424077,None,,,,,,,,,,,,,,,,,object,110,16,sing,new,null,938.0407967,None,938.0407967,None,3,3.0726572,938.0407967,None,3.0726572,941.1390814,None,941.6418502,None,941.6418502,None,f,3.4795372,941.6418502,None,3.4795372,,,Sep09Sing1,48,2022_Sep_09_1433,ProdSingRedoBetween,2021.2.3,59.93942522
,,,,16,0,16,0,,,,,,,,,,,,,,,,,,,,,,953.2164212,None,,,,,,,,,,,,,,,,,length,17,17,sing,old,yellow,945.6509677,None,945.6509677,None,1,2.4864882,945.6509677,None,2.4864882,948.161448,None,948.6623932,None,948.6623932,None,f,4.5390403,948.6623932,None,4.5390403,,,Sep09Sing1,48,2022_Sep_09_1433,ProdSingRedoBetween,2021.2.3,59.93942522
,,,,17,0,17,0,,,,,,,,,,,,,,,,,,,,,,962.5928391,None,,,,,,,,,,,,,,,,,native,76,18,sing,old,red,953.7314495,None,953.7314495,None,5,4.4460017,953.7314495,None,4.4460017,958.2118124,None,958.7254021,None,958.7254021,None,n,3.8520453,958.7254021,None,3.8520453,,,Sep09Sing1,48,2022_Sep_09_1433,ProdSingRedoBetween,2021.2.3,59.93942522
,,,,18,0,18,0,,,,,,,,,,,,,,,,,,,,,,971.0345501,None,,,,,,,,,,,,,,,,,dispute,11,19,sing,old,yellow,963.0961679,None,963.0961679,None,4,2.9773531,963.0961679,None,2.9773531,966.1003094,None,966.619698,None,966.619698,None,n,4.3901522,966.619698,None,4.3901522,,,Sep09Sing1,48,2022_Sep_09_1433,ProdSingRedoBetween,2021.2.3,59.93942522
,,,,19,0,19,0,,,,,,,,,,,,,,,,,,,,,,975.3222021,None,,,,,,,,,,,,,,,,,theme,168,20,sing,new,null,971.5382899,None,971.5382899,None,1,1.9510911,971.5382899,None,1.9510911,973.5223419,None,974.041455,None,974.041455,None,n,1.2639835,974.041455,None,1.2639835,,,Sep09Sing1,48,2022_Sep_09_1433,ProdSingRedoBetween,2021.2.3,59.93942522
,,,,20,0,20,0,,,,,,,,,,,,,,,,,,,,,,986.1660976,None,,,,,,,,,,,,,,,,,pattern,152,21,sing,new,null,975.8288031,None,975.8288031,None,4,5.86874,975.8288031,None,5.86874,981.730425,None,982.2596737,None,982.2596737,None,r,3.8778179,982.2596737,None,3.8778179,,,Sep09Sing1,48,2022_Sep_09_1433,ProdSingRedoBetween,2021.2.3,59.93942522
,,,,21,0,21,0,,,,,,,,,,,,,,,,,,,,,,994.0074885,None,,,,,,,,,,,,,,,,,master,51,22,sing,old,blue,986.6784732,None,986.6784732,None,1,2.9309264,986.6784732,None,2.9309264,989.643499,None,990.1583785,None,990.1583785,None,f,3.8271162,990.1583785,None,3.8271162,,,Sep09Sing1,48,2022_Sep_09_1433,ProdSingRedoBetween,2021.2.3,59.93942522
,,,,22,0,22,0,,,,,,,,,,,,,,,,,,,,,,1000.833754,None,,,,,,,,,,,,,,,,,dozen,125,23,sing,new,null,994.5235124,None,994.5235124,None,1,2.1501727,994.5235124,None,2.1501727,996.7018592,None,997.2114158,None,997.2114158,None,r,3.5979768,997.2114158,None,3.5979768,,,Sep09Sing1,48,2022_Sep_09_1433,ProdSingRedoBetween,2021.2.3,59.93942522
,,,,23,0,23,0,,,,,,,,,,,,,,,,,,,,,,1022.152257,None,,,,,,,,,,,,,,,,,community,137,24,sing,new,null,1001.35214,None,1001.35214,None,2,17.1133597,1001.35214,None,17.1133597,1018.483015,None,1018.999647,None,1018.999647,None,n,3.1218154,1018.999647,None,3.1218154,,,Sep09Sing1,48,2022_Sep_09_1433,ProdSingRedoBetween,2021.2.3,59.93942522
,,,,24,0,24,0,,,,,,,,,,,,,,,,,,,,,,1029.909996,None,,,,,,,,,,,,,,,,,match,149,25,sing,new,null,1022.658925,None,1022.658925,None,2,3.6705092,1022.658925,None,3.6705092,1026.357118,None,1026.859302,None,1026.859302,None,n,3.0222034,1026.859302,None,3.0222034,,,Sep09Sing1,48,2022_Sep_09_1433,ProdSingRedoBetween,2021.2.3,59.93942522
,,,,25,0,25,0,,,,,,,,,,,,,,,,,,,,,,1037.534297,None,,,,,,,,,,,,,,,,,straight,144,26,sing,new,null,1030.416235,None,1030.416235,None,3,4.5294098,1030.416235,None,4.5294098,1034.969977,None,1035.487938,None,1035.487938,None,f,2.0255694,1035.487938,None,2.0255694,,,Sep09Sing1,48,2022_Sep_09_1433,ProdSingRedoBetween,2021.2.3,59.93942522
,,,,26,0,26,0,,,,,,,,,,,,,,,,,,,,,,1041.738531,None,,,,,,,,,,,,,,,,,oxygen,59,27,sing,old,yellow,1038.044812,None,1038.044812,None,6,2.1726874,1038.044812,None,2.1726874,1040.238012,None,1040.737469,None,1040.737469,None,r,0.9840643,1040.737469,None,0.9840643,,,Sep09Sing1,48,2022_Sep_09_1433,ProdSingRedoBetween,2021.2.3,59.93942522
,,,,27,0,27,0,,,,,,,,,,,,,,,,,,,,,,1046.81021,None,,,,,,,,,,,,,,,,,sight,146,28,sing,new,null,1042.245091,None,1042.245091,None,2,2.3483412,1042.245091,None,2.3483412,1044.624734,None,1045.129267,None,1045.129267,None,n,1.6562646,1045.129267,None,1.6562646,,,Sep09Sing1,48,2022_Sep_09_1433,ProdSingRedoBetween,2021.2.3,59.93942522
,,,,28,0,28,0,,,,,,,,,,,,,,,,,,,,,,1051.582341,None,,,,,,,,,,,,,,,,,union,71,29,sing,old,red,1047.31252,None,1047.31252,None,6,2.7129812,1047.31252,None,2.7129812,1050.04777,None,1050.549181,None,1050.549181,None,r,1.0043449,1050.549181,None,1.0043449,,,Sep09Sing1,48,2022_Sep_09_1433,ProdSingRedoBetween,2021.2.3,59.93942522
,,,,29,0,29,0,,,,,,,,,,,,,,,,,,,,,,1055.535738,None,,,,,,,,,,,,,,,,,expansion,44,30,sing,old,blue,1052.105465,None,1052.105465,None,6,1.8559764,1052.105465,None,1.8559764,1053.983882,None,1054.48468,None,1054.48468,None,r,1.0290096,1054.48468,None,1.0290096,,,Sep09Sing1,48,2022_Sep_09_1433,ProdSingRedoBetween,2021.2.3,59.93942522
,,,,30,0,30,0,,,,,,,,,,,,,,,,,,,,,,1060.373816,None,,,,,,,,,,,,,,,,,display,132,31,sing,new,null,1056.042406,None,1056.042406,None,3,2.7030396,1056.042406,None,2.7030396,1058.772362,None,1059.276776,None,1059.276776,None,f,1.0687606,1059.276776,None,1.0687606,,,Sep09Sing1,48,2022_Sep_09_1433,ProdSingRedoBetween,2021.2.3,59.93942522
,,,,31,0,31,0,,,,,,,,,,,,,,,,,,,,,,1063.994008,None,,,,,,,,,,,,,,,,,corner,0,32,sing,old,yellow,1060.877539,None,1060.877539,None,2,1.5879196,1060.877539,None,1.5879196,1062.501664,None,1063.009913,None,1063.009913,None,n,0.9595868,1063.009913,None,0.9595868,,,Sep09Sing1,48,2022_Sep_09_1433,ProdSingRedoBetween,2021.2.3,59.93942522
,,,,32,0,32,0,,,,,,,,,,,,,,,,,,,,,,1069.254638,None,,,,,,,,,,,,,,,,,engineer,141,33,sing,new,null,1064.499039,None,1064.499039,None,5,2.9504872,1064.499039,None,2.9504872,1067.480937,None,1067.981595,None,1067.981595,None,f,1.2521117,1067.981595,None,1.2521117,,,Sep09Sing1,48,2022_Sep_09_1433,ProdSingRedoBetween,2021.2.3,59.93942522
,,,,33,0,33,0,,,,,,,,,,,,,,,,,,,,,,1073.136572,None,,,,,,,,,,,,,,,,,treatment,98,34,sing,new,null,1069.766634,None,1069.766634,None,1,1.9229342,1069.766634,None,1.9229342,1071.720928,None,1072.246815,None,1072.246815,None,n,0.8667055,1072.246815,None,0.8667055,,,Sep09Sing1,48,2022_Sep_09_1433,ProdSingRedoBetween,2021.2.3,59.93942522
,,,,34,0,34,0,,,,,,,,,,,,,,,,,,,,,,1081.244677,None,,,,,,,,,,,,,,,,,signal,40,35,sing,old,blue,1073.647985,None,1073.647985,None,3,2.3535272,1073.647985,None,2.3535272,1076.022572,None,1076.527088,None,1076.527088,None,f,4.6984354,1076.527088,None,4.6984354,,,Sep09Sing1,48,2022_Sep_09_1433,ProdSingRedoBetween,2021.2.3,59.93942522
,,,,35,0,35,0,,,,,,,,,,,,,,,,,,,,,,1085.550725,None,,,,,,,,,,,,,,,,,running,138,36,sing,new,null,1081.753933,None,1081.753933,None,1,1.8395781,1081.753933,None,1.8395781,1083.614647,None,1084.119045,None,1084.119045,None,n,1.4025398,1084.119045,None,1.4025398,,,Sep09Sing1,48,2022_Sep_09_1433,ProdSingRedoBetween,2021.2.3,59.93942522
,,,,36,0,36,0,,,,,,,,,,,,,,,,,,,,,,1092.505943,None,,,,,,,,,,,,,,,,,tennis,2,37,sing,old,yellow,1086.07036,None,1086.07036,None,4,1.7393728,1086.07036,None,1.7393728,1087.841619,None,1088.352616,None,1088.352616,None,r,4.136976,1088.352616,None,4.136976,,,Sep09Sing1,48,2022_Sep_09_1433,ProdSingRedoBetween,2021.2.3,59.93942522
,,,,37,0,37,0,,,,,,,,,,,,,,,,,,,,,,1096.376449,None,,,,,,,,,,,,,,,,,nature,13,38,sing,old,yellow,1093.010765,None,1093.010765,None,6,1.878988,1093.010765,None,1.878988,1094.910042,None,1095.428661,None,1095.428661,None,r,0.9248748,1095.428661,None,0.9248748,,,Sep09Sing1,48,2022_Sep_09_1433,ProdSingRedoBetween,2021.2.3,59.93942522
,,,,38,0,38,0,,,,,,,,,,,,,,,,,,,,,,1103.366796,None,,,,,,,,,,,,,,,,,comfort,36,39,sing,old,blue,1096.88321,None,1096.88321,None,5,1.8622812,1096.88321,None,1.8622812,1098.762175,None,1099.26726,None,1099.26726,None,f,4.0703545,1099.26726,None,4.0703545,,,Sep09Sing1,48,2022_Sep_09_1433,ProdSingRedoBetween,2021.2.3,59.93942522
,,,,39,0,39,0,,,,,,,,,,,,,,,,,,,,,,1109.22394,None,,,,,,,,,,,,,,,,,front,159,40,sing,new,null,1103.88422,None,1103.88422,None,1,1.8771694,1103.88422,None,1.8771694,1105.786453,None,1106.286798,None,1106.286798,None,f,2.9066626,1106.286798,None,2.9066626,,,Sep09Sing1,48,2022_Sep_09_1433,ProdSingRedoBetween,2021.2.3,59.93942522
,,,,40,0,40,0,,,,,,,,,,,,,,,,,,,,,,1114.711474,None,,,,,,,,,,,,,,,,,history,87,41,sing,old,red,1109.723057,None,1109.723057,None,5,3.1906013,1109.723057,None,3.1906013,1112.942853,None,1113.443706,None,1113.443706,None,f,1.2458554,1113.443706,None,1.2458554,,,Sep09Sing1,48,2022_Sep_09_1433,ProdSingRedoBetween,2021.2.3,59.93942522
,,,,41,0,41,0,,,,,,,,,,,,,,,,,,,,,,1118.882283,None,,,,,,,,,,,,,,,,,narrow,178,42,sing,new,null,1115.227906,None,1115.227906,None,3,2.1496441,1115.227906,None,2.1496441,1117.40048,None,1117.91804,None,1117.91804,None,n,0.9395591,1117.91804,None,0.9395591,,,Sep09Sing1,48,2022_Sep_09_1433,ProdSingRedoBetween,2021.2.3,59.93942522
,,,,42,0,42,0,,,,,,,,,,,,,,,,,,,,,,1127.591914,None,,,,,,,,,,,,,,,,,meeting,63,43,sing,old,red,1119.385,None,1119.385,None,2,5.7525953,1119.385,None,5.7525953,1125.155391,None,1125.66036,None,1125.66036,None,n,1.9093254,1125.66036,None,1.9093254,,,Sep09Sing1,48,2022_Sep_09_1433,ProdSingRedoBetween,2021.2.3,59.93942522
,,,,43,0,43,0,,,,,,,,,,,,,,,,,,,,,,1131.661746,None,,,,,,,,,,,,,,,,,discovery,77,44,sing,old,red,1128.093634,None,1128.093634,None,4,1.9959183,1128.093634,None,1.9959183,1130.114342,None,1130.632529,None,1130.632529,None,f,1.0090479,1130.632529,None,1.0090479,,,Sep09Sing1,48,2022_Sep_09_1433,ProdSingRedoBetween,2021.2.3,59.93942522
,,,,44,0,44,0,,,,,,,,,,,,,,,,,,,,,,1135.56544,None,,,,,,,,,,,,,,,,,weather,8,45,sing,old,yellow,1132.168166,None,1132.168166,None,5,1.9615149,1132.168166,None,1.9615149,1134.155049,None,1134.674669,None,1134.674669,None,f,0.8628952,1134.674669,None,0.8628952,,,Sep09Sing1,48,2022_Sep_09_1433,ProdSingRedoBetween,2021.2.3,59.93942522
,,,,45,0,45,0,,,,,,,,,,,,,,,,,,,,,,1143.723898,None,,,,,,,,,,,,,,,,,route,104,46,sing,new,null,1136.070567,None,1136.070567,None,3,1.4669683,1136.070567,None,1.4669683,1137.5697,None,1138.084893,None,1138.084893,None,f,5.6127183,1138.084893,None,5.6127183,,,Sep09Sing1,48,2022_Sep_09_1433,ProdSingRedoBetween,2021.2.3,59.93942522
,,,,46,0,46,0,,,,,,,,,,,,,,,,,,,,,,1148.198423,None,,,,,,,,,,,,,,,,,spoke,157,47,sing,new,null,1144.22692,None,1144.22692,None,1,1.7268682,1144.22692,None,1.7268682,1145.982636,None,1146.49334,None,1146.49334,None,n,1.6762786,1146.49334,None,1.6762786,,,Sep09Sing1,48,2022_Sep_09_1433,ProdSingRedoBetween,2021.2.3,59.93942522
,,,,47,0,47,0,,,,,,,,,,,,,,,,,,,,,,1153.116494,None,,,,,,,,,,,,,,,,,position,106,48,sing,new,null,1148.71415,None,1148.71415,None,3,1.8394282,1148.71415,None,1.8394282,1150.58944,None,1151.100089,None,1151.100089,None,f,1.9975364,1151.100089,None,1.9975364,,,Sep09Sing1,48,2022_Sep_09_1433,ProdSingRedoBetween,2021.2.3,59.93942522
,,,,48,0,48,0,,,,,,,,,,,,,,,,,,,,,,1157.537595,None,,,,,,,,,,,,,,,,,surface,12,49,sing,old,yellow,1153.628236,None,1153.628236,None,4,2.1173278,1153.628236,None,2.1173278,1155.770159,None,1156.269611,None,1156.269611,None,f,1.2439706,1156.269611,None,1.2439706,,,Sep09Sing1,48,2022_Sep_09_1433,ProdSingRedoBetween,2021.2.3,59.93942522
,,,,49,0,49,0,,,,,,,,,,,,,,,,,,,,,,1162.842775,None,,,,,,,,,,,,,,,,,household,31,50,sing,old,blue,1158.045784,None,1158.045784,None,6,2.2918995,1158.045784,None,2.2918995,1160.356929,None,1160.866593,None,1160.866593,None,r,1.9589137,1160.866593,None,1.9589137,,,Sep09Sing1,48,2022_Sep_09_1433,ProdSingRedoBetween,2021.2.3,59.93942522
,,,,50,0,50,0,,,,,,,,,,,,,,,,,,,,,,1167.764571,None,,,,,,,,,,,,,,,,,clean,135,51,sing,new,null,1163.347785,None,1163.347785,None,3,2.8539029,1163.347785,None,2.8539029,1166.233043,None,1166.746987,None,1166.746987,None,f,0.9905408,1166.746987,None,0.9905408,,,Sep09Sing1,48,2022_Sep_09_1433,ProdSingRedoBetween,2021.2.3,59.93942522
,,,,51,0,51,0,,,,,,,,,,,,,,,,,,,,,,1172.819483,None,,,,,,,,,,,,,,,,,direction,99,52,sing,new,null,1168.269697,None,1168.269697,None,4,2.795928,1168.269697,None,2.795928,1171.086102,None,1171.590746,None,1171.590746,None,n,1.2107487,1171.590746,None,1.2107487,,,Sep09Sing1,48,2022_Sep_09_1433,ProdSingRedoBetween,2021.2.3,59.93942522
,,,,52,0,52,0,,,,,,,,,,,,,,,,,,,,,,1177.991419,None,,,,,,,,,,,,,,,,,beginning,90,53,sing,new,null,1173.330556,None,1173.330556,None,3,2.7990362,1173.330556,None,2.7990362,1176.16048,None,1176.673397,None,1176.673397,None,n,1.2961517,1176.673397,None,1.2961517,,,Sep09Sing1,48,2022_Sep_09_1433,ProdSingRedoBetween,2021.2.3,59.93942522
,,,,53,0,53,0,,,,,,,,,,,,,,,,,,,,,,1182.062138,None,,,,,,,,,,,,,,,,,carry,92,54,sing,new,null,1178.499485,None,1178.499485,None,3,1.8221293,1178.499485,None,1.8221293,1180.347133,None,1180.860991,None,1180.860991,None,f,1.1806201,1180.860991,None,1.1806201,,,Sep09Sing1,48,2022_Sep_09_1433,ProdSingRedoBetween,2021.2.3,59.93942522
,,,,54,0,54,0,,,,,,,,,,,,,,,,,,,,,,1189.335793,None,,,,,,,,,,,,,,,,,military,101,55,sing,new,null,1182.568098,None,1182.568098,None,2,3.7054602,1182.568098,None,3.7054602,1186.300734,None,1186.800381,None,1186.800381,None,n,2.5131799,1186.800381,None,2.5131799,,,Sep09Sing1,48,2022_Sep_09_1433,ProdSingRedoBetween,2021.2.3,59.93942522
,,,,55,0,55,0,,,,,,,,,,,,,,,,,,,,,,1194.190844,None,,,,,,,,,,,,,,,,,youth,176,56,sing,new,null,1189.837927,None,1189.837927,None,3,2.8516796,1189.837927,None,2.8516796,1192.707406,None,1193.206742,None,1193.206742,None,f,0.9548373,1193.206742,None,0.9548373,,,Sep09Sing1,48,2022_Sep_09_1433,ProdSingRedoBetween,2021.2.3,59.93942522
,,,,56,0,56,0,,,,,,,,,,,,,,,,,,,,,,1198.628642,None,,,,,,,,,,,,,,,,,education,112,57,sing,new,null,1194.700031,None,1194.700031,None,3,2.3735518,1194.700031,None,2.3735518,1197.094802,None,1197.599662,None,1197.599662,None,n,1.0018667,1197.599662,None,1.0018667,,,Sep09Sing1,48,2022_Sep_09_1433,ProdSingRedoBetween,2021.2.3,59.93942522
,,,,57,0,57,0,,,,,,,,,,,,,,,,,,,,,,1205.636342,None,,,,,,,,,,,,,,,,,sound,143,58,sing,new,null,1199.131572,None,1199.131572,None,3,1.781973,1199.131572,None,1.781973,1200.932291,None,1201.436256,None,1201.436256,None,n,4.1734041,1201.436256,None,4.1734041,,,Sep09Sing1,48,2022_Sep_09_1433,ProdSingRedoBetween,2021.2.3,59.93942522
,,,,58,0,58,0,,,,,,,,,,,,,,,,,,,,,,1210.513906,None,,,,,,,,,,,,,,,,,stand,56,59,sing,old,blue,1206.139381,None,1206.139381,None,3,2.0542751,1206.139381,None,2.0542751,1208.228544,None,1208.73938,None,1208.73938,None,f,1.7504754,1208.73938,None,1.7504754,,,Sep09Sing1,48,2022_Sep_09_1433,ProdSingRedoBetween,2021.2.3,59.93942522
,,,,59,0,59,0,,,,,,,,,,,,,,,,,,,,,,1215.478814,None,,,,,,,,,,,,,,,,,store,163,60,sing,new,null,1211.027378,None,1211.027378,None,2,2.486108,1211.027378,None,2.486108,1213.552385,None,1214.068503,None,1214.068503,None,n,1.3891499,1214.068503,None,1.3891499,,,Sep09Sing1,48,2022_Sep_09_1433,ProdSingRedoBetween,2021.2.3,59.93942522
,,,,60,0,60,0,,,,,,,,,,,,,,,,,,,,,,1222.26894,None,,,,,,,,,,,,,,,,,motion,155,61,sing,new,null,1215.988638,None,1215.988638,None,4,3.7729686,1215.988638,None,3.7729686,1219.783539,None,1220.286747,None,1220.286747,None,f,1.9548561,1220.286747,None,1.9548561,,,Sep09Sing1,48,2022_Sep_09_1433,ProdSingRedoBetween,2021.2.3,59.93942522
,,,,61,0,61,0,,,,,,,,,,,,,,,,,,,,,,1227.307393,None,,,,,,,,,,,,,,,,,season,109,62,sing,new,null,1222.772352,None,1222.772352,None,3,2.44525,1222.772352,None,2.44525,1225.23988,None,1225.739268,None,1225.739268,None,n,1.5502563,1225.739268,None,1.5502563,,,Sep09Sing1,48,2022_Sep_09_1433,ProdSingRedoBetween,2021.2.3,59.93942522
,,,,62,0,62,0,,,,,,,,,,,,,,,,,,,,,,1234.014053,None,,,,,,,,,,,,,,,,,point,7,63,sing,old,yellow,1227.816961,None,1227.816961,None,4,4.0966565,1227.816961,None,4.0966565,1231.929706,None,1232.434008,None,1232.434008,None,f,1.5595793,1232.434008,None,1.5595793,,,Sep09Sing1,48,2022_Sep_09_1433,ProdSingRedoBetween,2021.2.3,59.93942522
,,,,63,0,63,0,,,,,,,,,,,,,,,,,,,,,,1240.855614,None,,,,,,,,,,,,,,,,,murder,139,64,sing,new,null,1234.520503,None,1234.520503,None,1,2.6170691,1234.520503,None,2.6170691,1237.167805,None,1237.671442,None,1237.671442,None,n,3.1624872,1237.671442,None,3.1624872,,,Sep09Sing1,48,2022_Sep_09_1433,ProdSingRedoBetween,2021.2.3,59.93942522
,,,,64,0,64,0,,,,,,,,,,,,,,,,,,,,,,1246.559763,None,,,,,,,,,,,,,,,,,heavy,120,65,sing,new,null,1241.375914,None,1241.375914,None,1,2.8655977,1241.375914,None,2.8655977,1244.260935,None,1244.780596,None,1244.780596,None,n,1.7568787,1244.780596,None,1.7568787,,,Sep09Sing1,48,2022_Sep_09_1433,ProdSingRedoBetween,2021.2.3,59.93942522
,,,,65,0,65,0,,,,,,,,,,,,,,,,,,,,,,1250.897546,None,,,,,,,,,,,,,,,,,vision,127,66,sing,new,null,1247.064713,None,1247.064713,None,4,2.4889031,1247.064713,None,2.4889031,1249.580922,None,1250.08486,None,1250.08486,None,f,0.7966874,1250.08486,None,0.7966874,,,Sep09Sing1,48,2022_Sep_09_1433,ProdSingRedoBetween,2021.2.3,59.93942522
,,,,66,0,66,0,,,,,,,,,,,,,,,,,,,,,,1256.63706,None,,,,,,,,,,,,,,,,,south,26,67,sing,old,yellow,1251.401269,None,1251.401269,None,2,2.4083616,1251.401269,None,2.4083616,1253.835064,None,1254.338824,None,1254.338824,None,f,2.2789001,1254.338824,None,2.2789001,,,Sep09Sing1,48,2022_Sep_09_1433,ProdSingRedoBetween,2021.2.3,59.93942522
,,,,67,0,67,0,,,,,,,,,,,,,,,,,,,,,,1260.99107,None,,,,,,,,,,,,,,,,,weight,81,68,sing,old,red,1257.147632,None,1257.147632,None,3,2.3899098,1257.147632,None,2.3899098,1259.560622,None,1260.073589,None,1260.073589,None,n,0.8880538,1260.073589,None,0.8880538,,,Sep09Sing1,48,2022_Sep_09_1433,ProdSingRedoBetween,2021.2.3,59.93942522
,,,,68,0,68,0,,,,,,,,,,,,,,,,,,,,,,1265.512213,None,,,,,,,,,,,,,,,,,commercial,165,69,sing,new,null,1261.495207,None,1261.495207,None,3,2.3543669,1261.495207,None,2.3543669,1263.877879,None,1264.38412,None,1264.38412,None,f,1.0974875,1264.38412,None,1.0974875,,,Sep09Sing1,48,2022_Sep_09_1433,ProdSingRedoBetween,2021.2.3,59.93942522
,,,,69,0,69,0,,,,,,,,,,,,,,,,,,,,,,1270.43385,None,,,,,,,,,,,,,,,,,under,69,70,sing,old,red,1266.015847,None,1266.015847,None,2,2.9859296,1266.015847,None,2.9859296,1269.03241,None,1269.537044,None,1269.537044,None,n,0.8725623,1269.537044,None,0.8725623,,,Sep09Sing1,48,2022_Sep_09_1433,ProdSingRedoBetween,2021.2.3,59.93942522
,,,,70,0,70,0,,,,,,,,,,,,,,,,,,,,,,1275.555631,None,,,,,,,,,,,,,,,,,write,153,71,sing,new,null,1270.939923,None,1270.939923,None,3,3.0457497,1270.939923,None,3.0457497,1274.007409,None,1274.521202,None,1274.521202,None,f,1.0083571,1274.521202,None,1.0083571,,,Sep09Sing1,48,2022_Sep_09_1433,ProdSingRedoBetween,2021.2.3,59.93942522
,,,,71,0,71,0,,,,,,,,,,,,,,,,,,,,,,1282.162102,None,,,,,,,,,,,,,,,,,watch,42,72,sing,old,blue,1276.05884,None,1276.05884,None,4,4.2867293,1276.05884,None,4.2867293,1280.376961,None,1280.882181,None,1280.882181,None,f,1.2554212,1280.882181,None,1.2554212,,,Sep09Sing1,48,2022_Sep_09_1433,ProdSingRedoBetween,2021.2.3,59.93942522
,,,,72,0,72,0,,,,,,,,,,,,,,,,,,,,,,1287.367935,None,,,,,,,,,,,,,,,,,public,35,73,sing,old,blue,1282.665549,None,1282.665549,None,4,2.7681205,1282.665549,None,2.7681205,1285.452325,None,1285.966047,None,1285.966047,None,f,1.371706,1285.966047,None,1.371706,,,Sep09Sing1,48,2022_Sep_09_1433,ProdSingRedoBetween,2021.2.3,59.93942522
,,,,73,0,73,0,,,,,,,,,,,,,,,,,,,,,,1293.540189,None,,,,,,,,,,,,,,,,,addition,29,74,sing,old,blue,1287.87061,None,1287.87061,None,4,4.2590027,1287.87061,None,4.2590027,1292.155285,None,1292.658386,None,1292.658386,None,f,0.8632224,1292.658386,None,0.8632224,,,Sep09Sing1,48,2022_Sep_09_1433,ProdSingRedoBetween,2021.2.3,59.93942522
,,,,74,0,74,0,,,,,,,,,,,,,,,,,,,,,,1298.528534,None,,,,,,,,,,,,,,,,,citizen,167,75,sing,new,null,1294.043509,None,1294.043509,None,5,2.7341081,1294.043509,None,2.7341081,1296.798186,None,1297.310766,None,1297.310766,None,f,1.1947278,1297.310766,None,1.1947278,,,Sep09Sing1,48,2022_Sep_09_1433,ProdSingRedoBetween,2021.2.3,59.93942522
,,,,75,0,75,0,,,,,,,,,,,,,,,,,,,,,,1303.416767,None,,,,,,,,,,,,,,,,,reach,54,76,sing,old,blue,1299.031661,None,1299.031661,None,3,2.7138964,1299.031661,None,2.7138964,1301.766896,None,1302.282422,None,1302.282422,None,f,1.1032661,1302.282422,None,1.1032661,,,Sep09Sing1,48,2022_Sep_09_1433,ProdSingRedoBetween,2021.2.3,59.93942522
,,,,76,0,76,0,,,,,,,,,,,,,,,,,,,,,,1309.689614,None,,,,,,,,,,,,,,,,,power,164,77,sing,new,null,1303.930087,None,1303.930087,None,2,4.2717416,1303.930087,None,4.2717416,1308.221804,None,1308.722149,None,1308.722149,None,n,0.9514184,1308.722149,None,0.9514184,,,Sep09Sing1,48,2022_Sep_09_1433,ProdSingRedoBetween,2021.2.3,59.93942522
,,,,77,0,77,0,,,,,,,,,,,,,,,,,,,,,,1317.448614,None,,,,,,,,,,,,,,,,,detective,119,78,sing,new,null,1310.197371,None,1310.197371,None,3,2.5163526,1310.197371,None,2.5163526,1312.745239,None,1313.261846,None,1313.261846,None,n,4.1639916,1313.261846,None,4.1639916,,,Sep09Sing1,48,2022_Sep_09_1433,ProdSingRedoBetween,2021.2.3,59.93942522
,,,,78,0,78,0,,,,,,,,,,,,,,,,,,,,,,1321.918499,None,,,,,,,,,,,,,,,,,brief,18,79,sing,old,yellow,1317.952481,None,1317.952481,None,3,1.7930387,1317.952481,None,1.7930387,1319.766096,None,1320.267053,None,1320.267053,None,f,1.6305012,1320.267053,None,1.6305012,,,Sep09Sing1,48,2022_Sep_09_1433,ProdSingRedoBetween,2021.2.3,59.93942522
,,,,79,0,79,0,,,,,,,,,,,,,,,,,,,,,,1325.488797,None,,,,,,,,,,,,,,,,,relation,142,80,sing,new,null,1322.423809,None,1322.423809,None,4,1.9457201,1322.423809,None,1.9457201,1324.388948,None,1324.893629,None,1324.893629,None,f,0.5800017,1324.893629,None,0.5800017,,,Sep09Sing1,48,2022_Sep_09_1433,ProdSingRedoBetween,2021.2.3,59.93942522
,,,,80,0,80,0,,,,,,,,,,,,,,,,,,,,,,1330.143138,None,,,,,,,,,,,,,,,,,childhood,113,81,sing,new,null,1325.989212,None,1325.989212,None,3,2.1723957,1325.989212,None,2.1723957,1328.193351,None,1328.713341,None,1328.713341,None,f,1.4002957,1328.713341,None,1.4002957,,,Sep09Sing1,48,2022_Sep_09_1433,ProdSingRedoBetween,2021.2.3,59.93942522
,,,,81,0,81,0,,,,,,,,,,,,,,,,,,,,,,1338.38502,None,,,,,,,,,,,,,,,,,express,9,82,sing,old,yellow,1330.652914,None,1330.652914,None,3,5.0527751,1330.652914,None,5.0527751,1335.73545,None,1336.25451,None,1336.25451,None,n,2.0991491,1336.25451,None,2.0991491,,,Sep09Sing1,48,2022_Sep_09_1433,ProdSingRedoBetween,2021.2.3,59.93942522
,,,,82,0,82,0,,,,,,,,,,,,,,,,,,,,,,1348.128076,None,,,,,,,,,,,,,,,,,background,93,83,sing,new,null,1338.888377,None,1338.888377,None,3,3.4652278,1338.888377,None,3.4652278,1342.373637,None,1342.878368,None,1342.878368,None,n,5.2192651,1342.878368,None,5.2192651,,,Sep09Sing1,48,2022_Sep_09_1433,ProdSingRedoBetween,2021.2.3,59.93942522
,,,,83,0,83,0,,,,,,,,,,,,,,,,,,,,,,1353.817206,None,,,,,,,,,,,,,,,,,attack,60,84,sing,old,red,1348.635959,None,1348.635959,None,4,3.3496879,1348.635959,None,3.3496879,1352.016237,None,1352.51861,None,1352.51861,None,f,1.2670988,1352.51861,None,1.2670988,,,Sep09Sing1,48,2022_Sep_09_1433,ProdSingRedoBetween,2021.2.3,59.93942522
,,,,84,0,84,0,,,,,,,,,,,,,,,,,,,,,,1358.473043,None,,,,,,,,,,,,,,,,,number,49,85,sing,old,blue,1354.322609,None,1354.322609,None,3,2.5830727,1354.322609,None,2.5830727,1356.938025,None,1357.437891,None,1357.437891,None,f,1.0117709,1357.437891,None,1.0117709,,,Sep09Sing1,48,2022_Sep_09_1433,ProdSingRedoBetween,2021.2.3,59.93942522
,,,,85,0,85,0,,,,,,,,,,,,,,,,,,,,,,1362.576122,None,,,,,,,,,,,,,,,,,design,52,86,sing,old,blue,1358.980922,None,1358.980922,None,4,2.0847267,1358.980922,None,2.0847267,1361.092286,None,1361.591727,None,1361.591727,None,f,0.9619526,1361.591727,None,0.9619526,,,Sep09Sing1,48,2022_Sep_09_1433,ProdSingRedoBetween,2021.2.3,59.93942522
,,,,86,0,86,0,,,,,,,,,,,,,,,,,,,,,,1366.846867,None,,,,,,,,,,,,,,,,,conference,124,87,sing,new,null,1363.079317,None,1363.079317,None,4,2.4263293,1363.079317,None,2.4263293,1365.529892,None,1366.031038,None,1366.031038,None,f,0.7867102,1366.031038,None,0.7867102,,,Sep09Sing1,48,2022_Sep_09_1433,ProdSingRedoBetween,2021.2.3,59.93942522
,,,,87,0,87,0,,,,,,,,,,,,,,,,,,,,,,1373.970527,None,,,,,,,,,,,,,,,,,equipment,28,88,sing,old,yellow,1367.354261,None,1367.354261,None,5,2.0075341,1367.354261,None,2.0075341,1369.384874,None,1369.899943,None,1369.899943,None,r,4.0457049,1369.899943,None,4.0457049,,,Sep09Sing1,48,2022_Sep_09_1433,ProdSingRedoBetween,2021.2.3,59.93942522
,,,,88,0,88,0,,,,,,,,,,,,,,,,,,,,,,1383.170301,None,,,,,,,,,,,,,,,,,dance,41,89,sing,old,blue,1374.476066,None,1374.476066,None,3,2.2695451,1374.476066,None,2.2695451,1376.774069,None,1377.277618,None,1377.277618,None,r,5.8682706,1377.277618,None,5.8682706,,,Sep09Sing1,48,2022_Sep_09_1433,ProdSingRedoBetween,2021.2.3,59.93942522
,,,,89,0,89,0,,,,,,,,,,,,,,,,,,,,,,1390.537146,None,,,,,,,,,,,,,,,,,machinery,174,90,sing,new,null,1383.689582,None,1383.689582,None,2,1.8724235,1383.689582,None,1.8724235,1385.588384,None,1386.100379,None,1386.100379,None,n,4.4212729,1386.100379,None,4.4212729,,,Sep09Sing1,48,2022_Sep_09_1433,ProdSingRedoBetween,2021.2.3,59.93942522
,,,,90,0,90,0,,,,,,,,,,,,,,,,,,,,,,1396.693321,None,,,,,,,,,,,,,,,,,blind,130,91,sing,new,null,1391.039194,None,1391.039194,None,2,3.5144736,1391.039194,None,3.5144736,1394.57483,None,1395.080502,None,1395.080502,None,n,1.5931607,1395.080502,None,1.5931607,,,Sep09Sing1,48,2022_Sep_09_1433,ProdSingRedoBetween,2021.2.3,59.93942522
,,,,91,0,91,0,,,,,,,,,,,,,,,,,,,,,,1401.097764,None,,,,,,,,,,,,,,,,,taste,107,92,sing,new,null,1397.205706,None,1397.205706,None,2,1.7800256,1397.205706,None,1.7800256,1399.018984,None,1399.533945,None,1399.533945,None,n,1.5478169,1399.533945,None,1.5478169,,,Sep09Sing1,48,2022_Sep_09_1433,ProdSingRedoBetween,2021.2.3,59.93942522
,,,,92,0,92,0,,,,,,,,,,,,,,,,,,,,,,1405.10195,None,,,,,,,,,,,,,,,,,reading,53,93,sing,old,blue,1401.607187,None,1401.607187,None,3,1.8584543,1401.607187,None,1.8584543,1403.486821,None,1404.000615,None,1404.000615,None,n,1.0730598,1404.000615,None,1.0730598,,,Sep09Sing1,48,2022_Sep_09_1433,ProdSingRedoBetween,2021.2.3,59.93942522
,,,,93,0,93,0,,,,,,,,,,,,,,,,,,,,,,1410.740656,None,,,,,,,,,,,,,,,,,portion,140,94,sing,new,null,1405.608723,None,1405.608723,None,3,2.1129897,1405.608723,None,2.1129897,1407.74938,None,1408.257687,None,1408.257687,None,n,2.4640717,1408.257687,None,2.4640717,,,Sep09Sing1,48,2022_Sep_09_1433,ProdSingRedoBetween,2021.2.3,59.93942522
,,,,94,0,94,0,,,,,,,,,,,,,,,,,,,,,,1415.19512,None,,,,,,,,,,,,,,,,,series,172,95,sing,new,null,1411.245375,None,1411.245375,None,3,1.9723157,1411.245375,None,1.9723157,1413.246266,None,1413.761443,None,1413.761443,None,n,1.4163268,1413.761443,None,1.4163268,,,Sep09Sing1,48,2022_Sep_09_1433,ProdSingRedoBetween,2021.2.3,59.93942522
,,,,95,0,95,0,,,,,,,,,,,,,,,,,,,,,,1419.015623,None,,,,,,,,,,,,,,,,,pressure,16,96,sing,old,yellow,1415.704364,None,1415.704364,None,4,1.7535671,1415.704364,None,1.7535671,1417.492448,None,1417.999251,None,1417.999251,None,f,0.9864379,1417.999251,None,0.9864379,,,Sep09Sing1,48,2022_Sep_09_1433,ProdSingRedoBetween,2021.2.3,59.93942522
,,,,96,0,96,0,,,,,,,,,,,,,,,,,,,,,,1424.838667,None,,,,,,,,,,,,,,,,,prime,50,97,sing,old,blue,1419.520331,None,1419.520331,None,2,1.9533085,1419.520331,None,1.9533085,1421.503312,None,1422.021766,None,1422.021766,None,n,2.7960895,1422.021766,None,2.7960895,,,Sep09Sing1,48,2022_Sep_09_1433,ProdSingRedoBetween,2021.2.3,59.93942522
,,,,97,0,97,0,,,,,,,,,,,,,,,,,,,,,,1435.71567,None,,,,,,,,,,,,,,,,,afternoon,100,98,sing,new,null,1425.343621,None,1425.343621,None,3,3.6980381,1425.343621,None,3.6980381,1429.061895,None,1429.57636,None,1429.57636,None,n,6.1212814,1429.57636,None,6.1212814,,,Sep09Sing1,48,2022_Sep_09_1433,ProdSingRedoBetween,2021.2.3,59.93942522
,,,,98,0,98,0,,,,,,,,,,,,,,,,,,,,,,1440.521551,None,,,,,,,,,,,,,,,,,worker,72,99,sing,old,red,1436.224993,None,1436.224993,None,3,3.152584,1436.224993,None,3.152584,1439.402389,None,1439.903174,None,1439.903174,None,f,0.5866094,1439.903174,None,0.5866094,,,Sep09Sing1,48,2022_Sep_09_1433,ProdSingRedoBetween,2021.2.3,59.93942522
,,,,99,0,99,0,,,,,,,,,,,,,,,,,,,,,,1447.727622,None,,,,,,,,,,,,,,,,,council,129,100,sing,new,null,1441.025273,None,1441.025273,None,4,5.0485936,1441.025273,None,5.0485936,1446.099552,None,1446.61481,None,1446.61481,None,f,1.0909123,1446.61481,None,1.0909123,,,Sep09Sing1,48,2022_Sep_09_1433,ProdSingRedoBetween,2021.2.3,59.93942522
,,,,100,0,100,0,,,,,,,,,,,,,,,,,,,,,,1451.581535,None,,,,,,,,,,,,,,,,,skill,89,101,sing,old,red,1448.229625,None,1448.229625,None,3,1.5800755,1448.229625,None,1.5800755,1449.832978,None,1450.347022,None,1450.347022,None,n,1.2066357,1450.347022,None,1.2066357,,,Sep09Sing1,48,2022_Sep_09_1433,ProdSingRedoBetween,2021.2.3,59.93942522
,,,,101,0,101,0,,,,,,,,,,,,,,,,,,,,,,1459.606098,None,,,,,,,,,,,,,,,,,answer,177,102,sing,new,null,1452.092178,None,1452.092178,None,4,4.7975422,1452.092178,None,4.7975422,1456.923081,None,1457.439684,None,1457.439684,None,f,2.1460239,1457.439684,None,2.1460239,,,Sep09Sing1,48,2022_Sep_09_1433,ProdSingRedoBetween,2021.2.3,59.93942522
,,,,102,0,102,0,,,,,,,,,,,,,,,,,,,,,,1465.34523,None,,,,,,,,,,,,,,,,,crowd,117,103,sing,new,null,1460.10666,None,1460.10666,None,3,4.2310376,1460.10666,None,4.2310376,1464.360744,None,1464.867667,None,1464.867667,None,f,0.4540357,1464.867667,None,0.4540357,,,Sep09Sing1,48,2022_Sep_09_1433,ProdSingRedoBetween,2021.2.3,59.93942522
,,,,103,0,103,0,,,,,,,,,,,,,,,,,,,,,,1469.634062,None,,,,,,,,,,,,,,,,,rural,14,104,sing,old,yellow,1465.853475,None,1465.853475,None,6,2.0761346,1465.853475,None,2.0761346,1467.948152,None,1468.453542,None,1468.453542,None,r,1.1481256,1468.453542,None,1.1481256,,,Sep09Sing1,48,2022_Sep_09_1433,ProdSingRedoBetween,2021.2.3,59.93942522
,,,,104,0,104,0,,,,,,,,,,,,,,,,,,,,,,1474.154026,None,,,,,,,,,,,,,,,,,build,73,105,sing,old,red,1470.133194,None,1470.133194,None,5,2.4764492,1470.133194,None,2.4764492,1472.637696,None,1473.153216,None,1473.153216,None,r,0.9764891,1473.153216,None,0.9764891,,,Sep09Sing1,48,2022_Sep_09_1433,ProdSingRedoBetween,2021.2.3,59.93942522
,,,,105,0,105,0,,,,,,,,,,,,,,,,,,,,,,1478.158102,None,,,,,,,,,,,,,,,,,property,82,106,sing,old,red,1474.664331,None,1474.664331,None,3,2.3934171,1474.664331,None,2.3934171,1477.074874,None,1477.574331,None,1477.574331,None,f,0.5633876,1477.574331,None,0.5633876,,,Sep09Sing1,48,2022_Sep_09_1433,ProdSingRedoBetween,2021.2.3,59.93942522
,,,,106,0,106,0,,,,,,,,,,,,,,,,,,,,,,1482.914879,None,,,,,,,,,,,,,,,,,benefit,116,107,sing,new,null,1478.668615,None,1478.668615,None,2,2.4530817,1478.668615,None,2.4530817,1481.145524,None,1481.65087,None,1481.65087,None,n,1.24685,1481.65087,None,1.24685,,,Sep09Sing1,48,2022_Sep_09_1433,ProdSingRedoBetween,2021.2.3,59.93942522
,,,,107,0,107,0,,,,,,,,,,,,,,,,,,,,,,1487.050306,None,,,,,,,,,,,,,,,,,bucket,136,108,sing,new,null,1483.444093,None,1483.444093,None,2,1.733599,1483.444093,None,1.733599,1485.1996,None,1485.703229,None,1485.703229,None,n,1.3224658,1485.703229,None,1.3224658,,,Sep09Sing1,48,2022_Sep_09_1433,ProdSingRedoBetween,2021.2.3,59.93942522
,,,,108,0,108,0,,,,,,,,,,,,,,,,,,,,,,1490.887489,None,,,,,,,,,,,,,,,,,degree,160,109,sing,new,null,1487.55924,None,1487.55924,None,3,2.2264053,1487.55924,None,2.2264053,1489.803564,None,1490.303529,None,1490.303529,None,f,0.5621945,1490.303529,None,0.5621945,,,Sep09Sing1,48,2022_Sep_09_1433,ProdSingRedoBetween,2021.2.3,59.93942522
,,,,109,0,109,0,,,,,,,,,,,,,,,,,,,,,,1494.762165,None,,,,,,,,,,,,,,,,,career,78,110,sing,old,red,1491.387931,None,1491.387931,None,4,1.9738107,1491.387931,None,1.9738107,1493.389927,None,1493.890526,None,1493.890526,None,f,0.8393627,1493.890526,None,0.8393627,,,Sep09Sing1,48,2022_Sep_09_1433,ProdSingRedoBetween,2021.2.3,59.93942522
,,,,110,0,110,0,,,,,,,,,,,,,,,,,,,,,,1500.246729,None,,,,,,,,,,,,,,,,,color,4,111,sing,old,yellow,1495.275243,None,1495.275243,None,6,3.0064596,1495.275243,None,3.0064596,1498.311614,None,1498.812157,None,1498.812157,None,r,1.4056404,1498.812157,None,1.4056404,,,Sep09Sing1,48,2022_Sep_09_1433,ProdSingRedoBetween,2021.2.3,59.93942522
,,,,111,0,111,0,,,,,,,,,,,,,,,,,,,,,,1506.219432,None,,,,,,,,,,,,,,,,,country,19,112,sing,old,yellow,1500.755884,None,1500.755884,None,5,3.0299064,1500.755884,None,3.0299064,1503.821718,None,1504.334403,None,1504.334403,None,r,1.8673997,1504.334403,None,1.8673997,,,Sep09Sing1,48,2022_Sep_09_1433,ProdSingRedoBetween,2021.2.3,59.93942522
,,,,112,0,112,0,,,,,,,,,,,,,,,,,,,,,,1510.123346,None,,,,,,,,,,,,,,,,,style,95,113,sing,new,null,1506.733139,None,1506.733139,None,3,1.6766177,1506.733139,None,1.6766177,1508.439071,None,1508.943453,None,1508.943453,None,f,1.1622252,1508.943453,None,1.1622252,,,Sep09Sing1,48,2022_Sep_09_1433,ProdSingRedoBetween,2021.2.3,59.93942522
,,,,113,0,113,0,,,,,,,,,,,,,,,,,,,,,,1513.927112,None,,,,,,,,,,,,,,,,,charter,88,114,sing,old,red,1510.632542,None,1510.632542,None,6,1.7373854,1510.632542,None,1.7373854,1512.398856,None,1512.910384,None,1512.910384,None,r,0.9953413,1512.910384,None,0.9953413,,,Sep09Sing1,48,2022_Sep_09_1433,ProdSingRedoBetween,2021.2.3,59.93942522
,,,,114,0,114,0,,,,,,,,,,,,,,,,,,,,,,1521.334266,None,,,,,,,,,,,,,,,,,husband,97,115,sing,new,null,1514.434951,None,1514.434951,None,3,5.8386628,1514.434951,None,5.8386628,1520.304318,None,1520.817289,None,1520.817289,None,f,0.488488,1520.817289,None,0.488488,,,Sep09Sing1,48,2022_Sep_09_1433,ProdSingRedoBetween,2021.2.3,59.93942522
,,,,115,0,115,0,,,,,,,,,,,,,,,,,,,,,,1525.255081,None,,,,,,,,,,,,,,,,,birth,79,116,sing,old,red,1521.845401,None,1521.845401,None,6,2.3803453,1521.845401,None,2.3803453,1524.258224,None,1524.771451,None,1524.771451,None,r,0.4543293,1524.771451,None,0.4543293,,,Sep09Sing1,48,2022_Sep_09_1433,ProdSingRedoBetween,2021.2.3,59.93942522
,,,,116,0,116,0,,,,,,,,,,,,,,,,,,,,,,1534.214119,None,,,,,,,,,,,,,,,,,music,38,117,sing,old,blue,1525.772065,None,1525.772065,None,3,6.2457026,1525.772065,None,6.2457026,1532.049575,None,1532.562567,None,1532.562567,None,f,1.6312217,1532.562567,None,1.6312217,,,Sep09Sing1,48,2022_Sep_09_1433,ProdSingRedoBetween,2021.2.3,59.93942522
,,,,117,0,117,0,,,,,,,,,,,,,,,,,,,,,,1541.855045,None,,,,,,,,,,,,,,,,,break,34,118,sing,old,blue,1534.724694,None,1534.724694,None,3,3.373049,1534.724694,None,3.373049,1538.11923,None,1538.618573,None,1538.618573,None,n,3.2151614,1538.618573,None,3.2151614,,,Sep09Sing1,48,2022_Sep_09_1433,ProdSingRedoBetween,2021.2.3,59.93942522
,,,,118,0,118,0,,,,,,,,,,,,,,,,,,,,,,1546.676503,None,,,,,,,,,,,,,,,,,swift,48,119,sing,old,blue,1542.368045,None,1542.368045,None,6,2.1857002,1542.368045,None,2.1857002,1544.577429,None,1545.095254,None,1545.095254,None,r,1.5544426,1545.095254,None,1.5544426,,,Sep09Sing1,48,2022_Sep_09_1433,ProdSingRedoBetween,2021.2.3,59.93942522
,,,,119,0,119,0,,,,,,,,,,,,,,,,,,,,,,1550.430279,None,,,,,,,,,,,,,,,,,question,161,120,sing,new,null,1547.192933,None,1547.192933,None,3,2.2567918,1547.192933,None,2.2567918,1549.483582,None,1549.999519,None,1549.999519,None,f,0.410222,1549.999519,None,0.410222,,,Sep09Sing1,48,2022_Sep_09_1433,ProdSingRedoBetween,2021.2.3,59.93942522
,,,,120,0,120,0,,,,,,,,,,,,,,,,,,,,,,1555.704795,None,,,,,,,,,,,,,,,,,couch,65,121,sing,old,red,1550.933284,None,1550.933284,None,4,3.0684523,1550.933284,None,3.0684523,1554.018108,None,1554.521781,None,1554.521781,None,f,1.1599827,1554.521781,None,1.1599827,,,Sep09Sing1,48,2022_Sep_09_1433,ProdSingRedoBetween,2021.2.3,59.93942522
,,,,121,0,121,0,,,,,,,,,,,,,,,,,,,,,,1559.274237,None,,,,,,,,,,,,,,,,,passage,105,122,sing,new,null,1556.22028,None,1556.22028,None,3,1.6854325,1556.22028,None,1.6854325,1557.922492,None,1558.427206,None,1558.427206,None,f,0.8144507,1558.427206,None,0.8144507,,,Sep09Sing1,48,2022_Sep_09_1433,ProdSingRedoBetween,2021.2.3,59.93942522
,,,,122,0,122,0,,,,,,,,,,,,,,,,,,,,,,1564.394238,None,,,,,,,,,,,,,,,,,guest,23,123,sing,old,yellow,1559.789515,None,1559.789515,None,2,3.7083207,1559.789515,None,3.7083207,1563.527675,None,1564.028995,None,1564.028995,None,n,0.348777,1564.028995,None,0.348777,,,Sep09Sing1,48,2022_Sep_09_1433,ProdSingRedoBetween,2021.2.3,59.93942522
,,,,123,0,123,0,,,,,,,,,,,,,,,,,,,,,,1567.316819,None,,,,,,,,,,,,,,,,,trail,131,124,sing,new,null,1564.900967,None,1564.900967,None,3,1.3568776,1564.900967,None,1.3568776,1566.280044,None,1566.7846,None,1566.7846,None,n,0.5131222,1566.7846,None,0.5131222,,,Sep09Sing1,48,2022_Sep_09_1433,ProdSingRedoBetween,2021.2.3,59.93942522
,,,,124,0,124,0,,,,,,,,,,,,,,,,,,,,,,1570.300216,None,,,,,,,,,,,,,,,,,bright,46,125,sing,old,blue,1567.833643,None,1567.833643,None,4,1.3841817,1567.833643,None,1.3841817,1569.249773,None,1569.751822,None,1569.751822,None,f,0.5219137,1569.751822,None,0.5219137,,,Sep09Sing1,48,2022_Sep_09_1433,ProdSingRedoBetween,2021.2.3,59.93942522
,,,,125,0,125,0,,,,,,,,,,,,,,,,,,,,,,1576.289262,None,,,,,,,,,,,,,,,,,shape,175,126,sing,new,null,1570.812204,None,1570.812204,None,4,3.8135606,1570.812204,None,3.8135606,1574.655501,None,1575.158652,None,1575.158652,None,f,1.1152801,1575.158652,None,1.1152801,,,Sep09Sing1,48,2022_Sep_09_1433,ProdSingRedoBetween,2021.2.3,59.93942522
,,,,126,0,126,0,,,,,,,,,,,,,,,,,,,,,,1579.95962,None,,,,,,,,,,,,,,,,,minor,156,127,sing,new,null,1576.791219,None,1576.791219,None,5,1.6185395,1576.791219,None,1.6185395,1578.425018,None,1578.925376,None,1578.925376,None,f,1.0123615,1578.925376,None,1.0123615,,,Sep09Sing1,48,2022_Sep_09_1433,ProdSingRedoBetween,2021.2.3,59.93942522
,,,,127,0,127,0,,,,,,,,,,,,,,,,,,,,,,1598.328024,None,,,,,,,,,,,,,,,,,alert,39,128,sing,old,blue,1580.471892,None,1580.471892,None,3,4.3378744,1580.471892,None,4.3378744,1584.831259,None,1585.335771,None,1585.335771,None,f,12.9699895,1585.335771,None,12.9699895,,,Sep09Sing1,48,2022_Sep_09_1433,ProdSingRedoBetween,2021.2.3,59.93942522
,,,,128,0,128,0,,,,,,,,,,,,,,,,,,,,,,1602.949423,None,,,,,,,,,,,,,,,,,subject,80,129,sing,old,red,1598.837128,None,1598.837128,None,4,2.5726279,1598.837128,None,2.5726279,1601.432493,None,1601.935482,None,1601.935482,None,f,0.986241,1601.935482,None,0.986241,,,Sep09Sing1,48,2022_Sep_09_1433,ProdSingRedoBetween,2021.2.3,59.93942522
,,,,129,0,129,0,,,,,,,,,,,,,,,,,,,,,,1608.638537,None,,,,,,,,,,,,,,,,,service,62,130,sing,old,red,1603.465195,None,1603.465195,None,5,1.8805398,1603.465195,None,1.8805398,1605.369832,None,1605.877671,None,1605.877671,None,r,2.7400988,1605.877671,None,2.7400988,,,Sep09Sing1,48,2022_Sep_09_1433,ProdSingRedoBetween,2021.2.3,59.93942522
,,,,130,0,130,0,,,,,,,,,,,,,,,,,,,,,,1612.425604,None,,,,,,,,,,,,,,,,,thick,64,131,sing,old,red,1609.148661,None,1609.148661,None,6,1.9650674,1609.148661,None,1.9650674,1611.146339,None,1611.662763,None,1611.662763,None,r,0.7471913,1611.662763,None,0.7471913,,,Sep09Sing1,48,2022_Sep_09_1433,ProdSingRedoBetween,2021.2.3,59.93942522
,,,,131,0,131,0,,,,,,,,,,,,,,,,,,,,,,1617.130402,None,,,,,,,,,,,,,,,,,company,43,132,sing,old,blue,1612.933873,None,1612.933873,None,6,2.5880102,1612.933873,None,2.5880102,1615.556634,None,1616.065661,None,1616.065661,None,r,1.0401776,1616.065661,None,1.0401776,,,Sep09Sing1,48,2022_Sep_09_1433,ProdSingRedoBetween,2021.2.3,59.93942522
,,,,132,0,132,0,,,,,,,,,,,,,,,,,,,,,,1622.83607,None,,,,,,,,,,,,,,,,,estate,145,133,sing,new,null,1617.633511,None,1617.633511,None,2,1.5921743,1617.633511,None,1.5921743,1619.256297,None,1619.766079,None,1619.766079,None,n,3.0437461,1619.766079,None,3.0437461,,,Sep09Sing1,48,2022_Sep_09_1433,ProdSingRedoBetween,2021.2.3,59.93942522
,,,,133,0,133,0,,,,,,,,,,,,,,,,,,,,,,1625.989202,None,,,,,,,,,,,,,,,,,marriage,111,134,sing,new,null,1623.33888,None,1623.33888,None,3,1.5988588,1623.33888,None,1.5988588,1624.955751,None,1625.457693,None,1625.457693,None,f,0.5040222,1625.457693,None,0.5040222,,,Sep09Sing1,48,2022_Sep_09_1433,ProdSingRedoBetween,2021.2.3,59.93942522
,,,,134,0,134,0,,,,,,,,,,,,,,,,,,,,,,1630.109963,None,,,,,,,,,,,,,,,,,industry,27,135,sing,old,yellow,1626.497646,None,1626.497646,None,4,1.7281118,1626.497646,None,1.7281118,1628.245594,None,1628.765515,None,1628.765515,None,f,1.3241443,1628.765515,None,1.3241443,,,Sep09Sing1,48,2022_Sep_09_1433,ProdSingRedoBetween,2021.2.3,59.93942522
,,,,135,0,135,0,,,,,,,,,,,,,,,,,,,,,,1634.430923,None,,,,,,,,,,,,,,,,,atmosphere,158,136,sing,new,null,1630.628184,None,1630.628184,None,1,1.7016212,1630.628184,None,1.7016212,1632.353927,None,1632.866855,None,1632.866855,None,n,1.5349659,1632.866855,None,1.5349659,,,Sep09Sing1,48,2022_Sep_09_1433,ProdSingRedoBetween,2021.2.3,59.93942522
,,,,136,0,136,0,,,,,,,,,,,,,,,,,,,,,,1638.518146,None,,,,,,,,,,,,,,,,,device,171,137,sing,new,null,1634.944941,None,1634.944941,None,2,1.6408226,1634.944941,None,1.6408226,1636.617354,None,1637.116985,None,1637.116985,None,f,1.372891,1637.116985,None,1.372891,,,Sep09Sing1,48,2022_Sep_09_1433,ProdSingRedoBetween,2021.2.3,59.93942522
,,,,137,0,137,0,,,,,,,,,,,,,,,,,,,,,,1641.254358,None,,,,,,,,,,,,,,,,,shock,128,138,sing,new,null,1639.028714,None,1639.028714,None,3,1.2849627,1639.028714,None,1.2849627,1640.337479,None,1640.843771,None,1640.843771,None,f,0.3820765,1640.843771,None,0.3820765,,,Sep09Sing1,48,2022_Sep_09_1433,ProdSingRedoBetween,2021.2.3,59.93942522
,,,,138,0,138,0,,,,,,,,,,,,,,,,,,,,,,1644.027292,None,,,,,,,,,,,,,,,,,production,147,139,sing,new,null,1641.760815,None,1641.760815,None,3,1.5289442,1641.760815,None,1.5289442,1643.311042,None,1643.828466,None,1643.828466,None,f,0.1655778,1643.828466,None,0.1655778,,,Sep09Sing1,48,2022_Sep_09_1433,ProdSingRedoBetween,2021.2.3,59.93942522
,,,,139,0,139,0,,,,,,,,,,,,,,,,,,,,,,1650.063059,None,,,,,,,,,,,,,,,,,bitter,55,140,sing,old,blue,1644.547261,None,1644.547261,None,4,2.9425335,1644.547261,None,2.9425335,1647.518465,None,1648.027847,None,1648.027847,None,r,2.0137942,1648.027847,None,2.0137942,,,Sep09Sing1,48,2022_Sep_09_1433,ProdSingRedoBetween,2021.2.3,59.93942522
,,,,140,0,140,0,,,,,,,,,,,,,,,,,,,,,,1654.100539,None,,,,,,,,,,,,,,,,,research,83,141,sing,old,red,1650.564528,None,1650.564528,None,6,2.4052317,1650.564528,None,2.4052317,1653.003206,None,1653.519776,None,1653.519776,None,r,0.562042,1653.519776,None,0.562042,,,Sep09Sing1,48,2022_Sep_09_1433,ProdSingRedoBetween,2021.2.3,59.93942522
,,,,141,0,141,0,,,,,,,,,,,,,,,,,,,,,,1660.807234,None,,,,,,,,,,,,,,,,,mechanical,21,142,sing,old,yellow,1654.611324,None,1654.611324,None,5,3.182388,1654.611324,None,3.182388,1657.820952,None,1658.326479,None,1658.326479,None,r,2.4592989,1658.326479,None,2.4592989,,,Sep09Sing1,48,2022_Sep_09_1433,ProdSingRedoBetween,2021.2.3,59.93942522
,,,,142,0,142,0,,,,,,,,,,,,,,,,,,,,,,1667.83095,None,,,,,,,,,,,,,,,,,growth,33,143,sing,old,blue,1661.320735,None,1661.320735,None,3,1.6251935,1661.320735,None,1.6251935,1662.980341,None,1663.493363,None,1663.493363,None,f,4.3164372,1663.493363,None,4.3164372,,,Sep09Sing1,48,2022_Sep_09_1433,ProdSingRedoBetween,2021.2.3,59.93942522
,,,,143,0,143,0,,,,,,,,,,,,,,,,,,,,,,1672.886016,None,,,,,,,,,,,,,,,,,society,148,144,sing,new,null,1668.331822,None,1668.331822,None,4,2.206001,1668.331822,None,2.206001,1670.568445,None,1671.067356,None,1671.067356,None,n,1.7903688,1671.067356,None,1.7903688,,,Sep09Sing1,48,2022_Sep_09_1433,ProdSingRedoBetween,2021.2.3,59.93942522
,,,,144,0,144,0,,,,,,,,,,,,,,,,,,,,,,1677.15697,None,,,,,,,,,,,,,,,,,harmony,122,145,sing,new,null,1673.389723,None,1673.389723,None,1,1.7240721,1673.389723,None,1.7240721,1675.15388,None,1675.655706,None,1675.655706,None,n,1.4823568,1675.655706,None,1.4823568,,,Sep09Sing1,48,2022_Sep_09_1433,ProdSingRedoBetween,2021.2.3,59.93942522
,,,,145,0,145,0,,,,,,,,,,,,,,,,,,,,,,1682.662931,None,,,,,,,,,,,,,,,,,population,70,146,sing,old,red,1677.665322,None,1677.665322,None,5,2.2804142,1677.665322,None,2.2804142,1679.979449,None,1680.493853,None,1680.493853,None,f,2.1479381,1680.493853,None,2.1479381,,,Sep09Sing1,48,2022_Sep_09_1433,ProdSingRedoBetween,2021.2.3,59.93942522
,,,,146,0,146,0,,,,,,,,,,,,,,,,,,,,,,1686.218137,None,,,,,,,,,,,,,,,,,order,30,147,sing,old,blue,1683.180961,None,1683.180961,None,3,1.8608203,1683.180961,None,1.8608203,1685.064897,None,1685.565559,None,1685.565559,None,f,0.6282432,1685.565559,None,0.6282432,,,Sep09Sing1,48,2022_Sep_09_1433,ProdSingRedoBetween,2021.2.3,59.93942522
,,,,147,0,147,0,,,,,,,,,,,,,,,,,,,,,,1694.874581,None,,,,,,,,,,,,,,,,,enemy,108,148,sing,new,null,1686.735299,None,1686.735299,None,1,1.6984733,1686.735299,None,1.6984733,1688.452853,None,1688.955449,None,1688.955449,None,n,5.9023417,1688.955449,None,5.9023417,,,Sep09Sing1,48,2022_Sep_09_1433,ProdSingRedoBetween,2021.2.3,59.93942522
,,,,148,0,148,0,,,,,,,,,,,,,,,,,,,,,,1697.994513,None,,,,,,,,,,,,,,,,,appeal,3,149,sing,old,yellow,1695.380004,None,1695.380004,None,3,1.5658969,1695.380004,None,1.5658969,1696.978732,None,1697.494037,None,1697.494037,None,f,0.4837784,1697.494037,None,0.4837784,,,Sep09Sing1,48,2022_Sep_09_1433,ProdSingRedoBetween,2021.2.3,59.93942522
,,,,149,0,149,0,,,,,,,,,,,,,,,,,,,,,,1717.997707,None,,,,,,,,,,,,,,,,,employment,66,150,sing,old,red,1698.501774,None,1698.501774,None,4,15.5720397,1698.501774,None,15.5720397,1714.095272,None,1714.600807,None,1714.600807,None,n,3.3771472,1714.600807,None,3.3771472,,,Sep09Sing1,48,2022_Sep_09_1433,ProdSingRedoBetween,2021.2.3,59.93942522
,,,,150,0,150,0,,,,,,,,,,,,,,,,,,,,,,1731.628107,None,,,,,,,,,,,,,,,,,breath,85,151,sing,old,red,1718.502268,None,1718.502268,None,4,11.32352,1718.502268,None,11.32352,1729.84397,None,1730.345021,None,1730.345021,None,n,1.2647194,1730.345021,None,1.2647194,,,Sep09Sing1,48,2022_Sep_09_1433,ProdSingRedoBetween,2021.2.3,59.93942522
,,,,151,0,151,0,,,,,,,,,,,,,,,,,,,,,,1736.149319,None,,,,,,,,,,,,,,,,,division,86,152,sing,old,red,1732.137058,None,1732.137058,None,6,2.1447326,1732.137058,None,2.1447326,1734.299739,None,1734.81468,None,1734.81468,None,r,1.3153421,1734.81468,None,1.3153421,,,Sep09Sing1,48,2022_Sep_09_1433,ProdSingRedoBetween,2021.2.3,59.93942522
,,,,152,0,152,0,,,,,,,,,,,,,,,,,,,,,,1742.955977,None,,,,,,,,,,,,,,,,,foundation,126,153,sing,new,null,1736.652598,None,1736.652598,None,4,4.3893382,1736.652598,None,4.3893382,1741.071648,None,1741.571247,None,1741.571247,None,n,1.3664727,1741.571247,None,1.3664727,,,Sep09Sing1,48,2022_Sep_09_1433,ProdSingRedoBetween,2021.2.3,59.93942522
,,,,153,0,153,0,,,,,,,,,,,,,,,,,,,,,,1747.24363,None,,,,,,,,,,,,,,,,,member,133,154,sing,new,null,1743.46519,None,1743.46519,None,3,1.7287251,1743.46519,None,1.7287251,1745.226225,None,1745.72911,None,1745.72911,None,f,1.488676,1745.72911,None,1.488676,,,Sep09Sing1,48,2022_Sep_09_1433,ProdSingRedoBetween,2021.2.3,59.93942522
,,,,154,0,154,0,,,,,,,,,,,,,,,,,,,,,,1751.664695,None,,,,,,,,,,,,,,,,,individual,6,155,sing,old,yellow,1747.749733,None,1747.749733,None,4,1.980231,1747.749733,None,1.980231,1749.748223,None,1750.264399,None,1750.264399,None,f,1.3854898,1750.264399,None,1.3854898,,,Sep09Sing1,48,2022_Sep_09_1433,ProdSingRedoBetween,2021.2.3,59.93942522
,,,,155,0,155,0,,,,,,,,,,,,,,,,,,,,,,1755.768536,None,,,,,,,,,,,,,,,,,partner,123,156,sing,new,null,1752.166177,None,1752.166177,None,3,1.7395594,1752.166177,None,1.7395594,1753.93893,None,1754.452229,None,1754.452229,None,n,1.3014929,1754.452229,None,1.3014929,,,Sep09Sing1,48,2022_Sep_09_1433,ProdSingRedoBetween,2021.2.3,59.93942522
,,,,156,0,156,0,,,,,,,,,,,,,,,,,,,,,,1759.926782,None,,,,,,,,,,,,,,,,,speech,25,157,sing,old,yellow,1756.282406,None,1756.282406,None,4,2.0714049,1756.282406,None,2.0714049,1758.378044,None,1758.888729,None,1758.888729,None,f,1.0172409,1758.888729,None,1.0172409,,,Sep09Sing1,48,2022_Sep_09_1433,ProdSingRedoBetween,2021.2.3,59.93942522
,,,,157,0,157,0,,,,,,,,,,,,,,,,,,,,,,1764.377464,None,,,,,,,,,,,,,,,,,exchange,67,158,sing,old,red,1760.453444,None,1760.453444,None,3,1.9645914,1760.453444,None,1.9645914,1762.448678,None,1762.961728,None,1762.961728,None,f,1.3841258,1762.961728,None,1.3841258,,,Sep09Sing1,48,2022_Sep_09_1433,ProdSingRedoBetween,2021.2.3,59.93942522
,,,,158,0,158,0,,,,,,,,,,,,,,,,,,,,,,1769.583208,None,,,,,,,,,,,,,,,,,incident,103,159,sing,new,null,1764.888679,None,1764.888679,None,3,1.729148,1764.888679,None,1.729148,1766.647411,None,1767.146997,None,1767.146997,None,f,2.4147531,1767.146997,None,2.4147531,,,Sep09Sing1,48,2022_Sep_09_1433,ProdSingRedoBetween,2021.2.3,59.93942522
,,,,159,0,159,0,,,,,,,,,,,,,,,,,,,,,,1774.887925,None,,,,,,,,,,,,,,,,,center,91,160,sing,new,null,1770.08397,None,1770.08397,None,3,1.9738419,1770.08397,None,1.9738419,1772.086662,None,1772.589325,None,1772.589325,None,f,2.268553,1772.589325,None,2.268553,,,Sep09Sing1,48,2022_Sep_09_1433,ProdSingRedoBetween,2021.2.3,59.93942522
,,,,160,0,160,0,,,,,,,,,,,,,,,,,,,,,,1782.979388,None,,,,,,,,,,,,,,,,,light,75,161,sing,old,red,1775.396242,None,1775.396242,None,3,5.2697947,1775.396242,None,5.2697947,1780.705914,None,1781.211003,None,1781.211003,None,f,1.7428378,1781.211003,None,1.7428378,,,Sep09Sing1,48,2022_Sep_09_1433,ProdSingRedoBetween,2021.2.3,59.93942522
,,,,161,0,161,0,,,,,,,,,,,,,,,,,,,,,,1794.475408,None,,,,,,,,,,,,,,,,,graduate,84,162,sing,old,red,1783.487937,None,1783.487937,None,3,8.585898,1783.487937,None,8.585898,1792.09118,None,1792.615426,None,1792.615426,None,n,1.8343794,1792.615426,None,1.8343794,,,Sep09Sing1,48,2022_Sep_09_1433,ProdSingRedoBetween,2021.2.3,59.93942522
,,,,162,0,162,0,,,,,,,,,,,,,,,,,,,,,,1799.130587,None,,,,,,,,,,,,,,,,,mayor,151,163,sing,new,null,1794.988728,None,1794.988728,None,4,2.2530207,1794.988728,None,2.2530207,1797.281592,None,1797.794373,None,1797.794373,None,f,1.3035357,1797.794373,None,1.3035357,,,Sep09Sing1,48,2022_Sep_09_1433,ProdSingRedoBetween,2021.2.3,59.93942522
,,,,163,0,163,0,,,,,,,,,,,,,,,,,,,,,,1802.999451,None,,,,,,,,,,,,,,,,,measure,121,164,sing,new,null,1799.646278,None,1799.646278,None,4,2.0995988,1799.646278,None,2.0995988,1801.767617,None,1802.288345,None,1802.288345,None,f,0.6895222,1802.288345,None,0.6895222,,,Sep09Sing1,48,2022_Sep_09_1433,ProdSingRedoBetween,2021.2.3,59.93942522
,,,,164,0,164,0,,,,,,,,,,,,,,,,,,,,,,1811.00792,None,,,,,,,,,,,,,,,,,split,1,165,sing,old,yellow,1803.510668,None,1803.510668,None,5,6.0352468,1803.510668,None,6.0352468,1809.572551,None,1810.084374,None,1810.084374,None,f,0.8933244,1810.084374,None,0.8933244,,,Sep09Sing1,48,2022_Sep_09_1433,ProdSingRedoBetween,2021.2.3,59.93942522
,,,,165,0,165,0,,,,,,,,,,,,,,,,,,,,,,1818.331376,None,,,,,,,,,,,,,,,,,suggestion,96,166,sing,new,null,1811.517667,None,1811.517667,None,4,4.1084442,1811.517667,None,4.1084442,1815.653975,None,1816.162714,None,1816.162714,None,f,2.1511034,1816.162714,None,2.1511034,,,Sep09Sing1,48,2022_Sep_09_1433,ProdSingRedoBetween,2021.2.3,59.93942522
,,,,166,0,166,0,,,,,,,,,,,,,,,,,,,,,,1821.585476,None,,,,,,,,,,,,,,,,,dream,15,167,sing,old,yellow,1818.846552,None,1818.846552,None,3,1.8032035,1818.846552,None,1.8032035,1820.669806,None,1821.188271,None,1821.188271,None,f,0.3816536,1821.188271,None,0.3816536,,,Sep09Sing1,48,2022_Sep_09_1433,ProdSingRedoBetween,2021.2.3,59.93942522
,,,,167,0,167,0,,,,,,,,,,,,,,,,,,,,,,1842.055152,None,,,,,,,,,,,,,,,,,payment,61,168,sing,old,red,1822.085993,None,1822.085993,None,3,16.7719506,1822.085993,None,16.7719506,1838.88922,None,1839.405687,None,1839.405687,None,f,2.6281995,1839.405687,None,2.6281995,,,Sep09Sing1,48,2022_Sep_09_1433,ProdSingRedoBetween,2021.2.3,59.93942522
,,,,168,0,168,0,,,,,,,,,,,,,,,,,,,,,,1849.229007,None,,,,,,,,,,,,,,,,,pretty,118,169,sing,new,null,1842.566434,None,1842.566434,None,4,2.4674355,1842.566434,None,2.4674355,1845.060873,None,1845.579699,None,1845.579699,None,n,3.6303375,1845.579699,None,3.6303375,,,Sep09Sing1,48,2022_Sep_09_1433,ProdSingRedoBetween,2021.2.3,59.93942522
,,,,169,0,169,0,,,,,,,,,,,,,,,,,,,,,,1854.717737,None,,,,,,,,,,,,,,,,,permit,37,170,sing,old,blue,1849.737151,None,1849.737151,None,3,1.6488273,1849.737151,None,1.6488273,1851.420136,None,1851.931696,None,1851.931696,None,f,2.7662973,1851.931696,None,2.7662973,,,Sep09Sing1,48,2022_Sep_09_1433,ProdSingRedoBetween,2021.2.3,59.93942522
,,,,170,0,170,0,,,,,,,,,,,,,,,,,,,,,,1858.021018,None,,,,,,,,,,,,,,,,,quick,20,171,sing,old,yellow,1855.227746,None,1855.227746,None,4,1.6701251,1855.227746,None,1.6701251,1856.921059,None,1857.420631,None,1857.420631,None,f,0.5813756,1857.420631,None,0.5813756,,,Sep09Sing1,48,2022_Sep_09_1433,ProdSingRedoBetween,2021.2.3,59.93942522
,,,,171,0,171,0,,,,,,,,,,,,,,,,,,,,,,1862.809025,None,,,,,,,,,,,,,,,,,resistance,134,172,sing,new,null,1858.536317,None,1858.536317,None,4,2.7457152,1858.536317,None,2.7457152,1861.31129,None,1861.827434,None,1861.827434,None,f,0.9664075,1861.827434,None,0.9664075,,,Sep09Sing1,48,2022_Sep_09_1433,ProdSingRedoBetween,2021.2.3,59.93942522
,,,,172,0,172,0,,,,,,,,,,,,,,,,,,,,,,1868.014414,None,,,,,,,,,,,,,,,,,frank,47,173,sing,old,blue,1863.316327,None,1863.316327,None,6,3.3098263,1863.316327,None,3.3098263,1866.662014,None,1867.163625,None,1867.163625,None,r,0.8302697,1867.163625,None,0.8302697,,,Sep09Sing1,48,2022_Sep_09_1433,ProdSingRedoBetween,2021.2.3,59.93942522
,,,,173,0,173,0,,,,,,,,,,,,,,,,,,,,,,1878.591578,None,,,,,,,,,,,,,,,,,business,102,174,sing,new,null,1868.526055,None,1868.526055,None,3,3.7638895,1868.526055,None,3.7638895,1872.322099,None,1872.836,None,1872.836,None,n,5.7258986,1872.836,None,5.7258986,,,Sep09Sing1,48,2022_Sep_09_1433,ProdSingRedoBetween,2021.2.3,59.93942522
,,,,174,0,174,0,,,,,,,,,,,,,,,,,,,,,,1886.432766,None,,,,,,,,,,,,,,,,,balance,150,175,sing,new,null,1879.099202,None,1879.099202,None,4,5.6227312,1879.099202,None,5.6227312,1884.748677,None,1885.254073,None,1885.254073,None,r,1.1558008,1885.254073,None,1.1558008,,,Sep09Sing1,48,2022_Sep_09_1433,ProdSingRedoBetween,2021.2.3,59.93942522
,,,,175,0,175,0,,,,,,,,,,,,,,,,,,,,,,1890.622634,None,,,,,,,,,,,,,,,,,force,169,176,sing,new,null,1886.945635,None,1886.945635,None,3,2.5202,1886.945635,None,2.5202,1889.488685,None,1890.002855,None,1890.002855,None,f,0.5911894,1890.002855,None,0.5911894,,,Sep09Sing1,48,2022_Sep_09_1433,ProdSingRedoBetween,2021.2.3,59.93942522
,,,,176,0,176,0,,,,,,,,,,,,,,,,,,,,,,1895.191517,None,,,,,,,,,,,,,,,,,listen,162,177,sing,new,null,1891.139445,None,1891.139445,None,5,2.2784643,1891.139445,None,2.2784643,1893.441208,None,1893.943086,None,1893.943086,None,n,1.2268099,1893.943086,None,1.2268099,,,Sep09Sing1,48,2022_Sep_09_1433,ProdSingRedoBetween,2021.2.3,59.93942522
,,,,177,0,177,0,,,,,,,,,,,,,,,,,,,,,,1901.93361,None,,,,,,,,,,,,,,,,,column,45,178,sing,old,blue,1895.69704,None,1895.69704,None,6,4.6008694,1895.69704,None,4.6008694,1900.314322,None,1900.814548,None,1900.814548,None,r,1.0995379,1900.814548,None,1.0995379,,,Sep09Sing1,48,2022_Sep_09_1433,ProdSingRedoBetween,2021.2.3,59.93942522
,,,,178,0,178,0,,,,,,,,,,,,,,,,,,,,,,1908.788532,None,,,,,,,,,,,,,,,,,bureau,115,179,sing,new,null,1902.455204,None,1902.455204,None,4,1.8426906,1902.455204,None,1.8426906,1904.318265,None,1904.824231,None,1904.824231,None,f,3.945618,1904.824231,None,3.945618,,,Sep09Sing1,48,2022_Sep_09_1433,ProdSingRedoBetween,2021.2.3,59.93942522
,,,,179,0,179,0,,,,,,,,,,,,,,,,,,,,,,1912.225219,None,,,,,,,,,,,,,,,,,search,5,180,sing,old,yellow,1909.297874,None,1909.297874,None,3,2.0081058,1909.297874,None,2.0081058,1911.326419,None,1911.846033,None,1911.846033,None,f,0.3638472,1911.846033,None,0.3638472,,,Sep09Sing1,48,2022_Sep_09_1433,ProdSingRedoBetween,2021.2.3,59.93942522
,,,,,,,,,,,,,,,,,,,,,,,,,,,,,,,,,,,,,,,,,,,,,,,,,,,,,,,,,,,,,,,,,,,,,,,,,1912.726392,None,,,,,,
