StudyLoop.thisRepN,StudyLoop.thisTrialN,StudyLoop.thisN,StudyLoop.thisIndex,TestLoop.thisRepN,TestLoop.thisTrialN,TestLoop.thisN,TestLoop.thisIndex,textCondition.started,textCondition.stopped,keyCondition.keys,keyCondition.rt,keyCondition.started,keyCondition.stopped,Condition,textWelcome.started,textWelcome.stopped,keyWelcome.keys,keyWelcome.rt,keyWelcome.started,keyWelcome.stopped,textAloud.started,textAloud.stopped,textSilent.started,textSilent.stopped,textSing.started,textSing.stopped,conditional_text.started,conditional_text.stopped,textBlank500.started,textBlank500.stopped,study_word,study_num,study_order,study_type,word_color,textStudy.started,textStudy.stopped,keyStudy.keys,keyStudy.started,keyStudy.stopped,textTestInstructions.started,textTestInstructions.stopped,key_resp_3.keys,key_resp_3.rt,key_resp_3.started,key_resp_3.stopped,test_word,test_num,test_order,test_condition,old_new_test,test_word_original_color,textConf.started,textConf.stopped,textConfScale.started,textConfScale.stopped,keyConf.keys,keyConf.rt,keyConf.started,keyConf.stopped,confidence response time,textTestBlank.started,textTestBlank.stopped,textRKN.started,textRKN.stopped,textRKNScale.started,textRKNScale.stopped,keyRKN.keys,keyRKN.rt,keyRKN.started,keyRKN.stopped,rkn response time,textEnd.started,textEnd.stopped,participant,session,date,expName,psychopyVersion,frameRate,
,,,,,,,,33.04525840000133,None,c,5.0361130999954185,33.04525840000133,None,,,,,,,,,,,,,,,,,,,,,,,,,,,,,,,,,,,,,,,,,,,,,,,,,,,,,,,,,,,,,,sing45,001,2022_Sep_06_0946,ProdSingRedoBetween,2021.2.3,59.92437543962602,
,,,,,,,,,,,,,,SingTest,38.12560430000303,None,space,1.395494399999734,38.12560430000303,None,,,,,,,,,,,,,,,,,,,,,,,,,,,,,,,,,,,,,,,,,,,,,,,,,,,,,,,sing45,001,2022_Sep_06_0946,ProdSingRedoBetween,2021.2.3,59.92437543962602,
0,0,0,0,,,,,,,,,,,,,,,,,,38.12560430000303,None,38.12560430000303,None,38.12560430000303,None,38.12560430000303,None,42.060806599998614,None,bicycle,83,1,sing,red,40.048748599991086,None,None,40.048748599991086,None,,,,,,,,,,,,,,,,,,,,,,,,,,,,,,,,,,,sing45,001,2022_Sep_06_0946,ProdSingRedoBetween,2021.2.3,59.92437543962602,
1,0,1,0,,,,,,,,,,,,,,,,,,,,,,,,,,44.57998700000462,None,finance,9,2,sing,yellow,42.57202269999834,None,None,42.57202269999834,None,,,,,,,,,,,,,,,,,,,,,,,,,,,,,,,,,,,sing45,001,2022_Sep_06_0946,ProdSingRedoBetween,2021.2.3,59.92437543962602,
2,0,2,0,,,,,,,,,,,,,,,,,,,,,,,,,,47.08256369999435,None,scene,65,3,sing,red,45.08049469999969,None,None,45.08049469999969,None,,,,,,,,,,,,,,,,,,,,,,,,,,,,,,,,,,,sing45,001,2022_Sep_06_0946,ProdSingRedoBetween,2021.2.3,59.92437543962602,
3,0,3,0,,,,,,,,,,,,,,,,,,,,,,,,,,49.5851066000032,None,cross,31,4,sing,blue,47.583016000004136,None,None,47.583016000004136,None,,,,,,,,,,,,,,,,,,,,,,,,,,,,,,,,,,,sing45,001,2022_Sep_06_0946,ProdSingRedoBetween,2021.2.3,59.92437543962602,
4,0,4,0,,,,,,,,,,,,,,,,,,,,,,,,,,52.10420400000294,None,session,66,5,sing,red,50.090585300000384,None,None,50.090585300000384,None,,,,,,,,,,,,,,,,,,,,,,,,,,,,,,,,,,,sing45,001,2022_Sep_06_0946,ProdSingRedoBetween,2021.2.3,59.92437543962602,
5,0,5,0,,,,,,,,,,,,,,,,,,,,,,,,,,54.62340840000252,None,close,15,6,sing,yellow,52.60769479999726,None,None,52.60769479999726,None,,,,,,,,,,,,,,,,,,,,,,,,,,,,,,,,,,,sing45,001,2022_Sep_06_0946,ProdSingRedoBetween,2021.2.3,59.92437543962602,
6,0,6,0,,,,,,,,,,,,,,,,,,,,,,,,,,57.131842399991,None,gesture,58,7,sing,blue,55.12505689999671,None,None,55.12505689999671,None,,,,,,,,,,,,,,,,,,,,,,,,,,,,,,,,,,,sing45,001,2022_Sep_06_0946,ProdSingRedoBetween,2021.2.3,59.92437543962602,
7,0,7,0,,,,,,,,,,,,,,,,,,,,,,,,,,59.661795499996515,None,company,43,8,sing,blue,57.64765569999872,None,None,57.64765569999872,None,,,,,,,,,,,,,,,,,,,,,,,,,,,,,,,,,,,sing45,001,2022_Sep_06_0946,ProdSingRedoBetween,2021.2.3,59.92437543962602,
8,0,8,0,,,,,,,,,,,,,,,,,,,,,,,,,,62.1642320999963,None,health,69,9,sing,red,60.16341569999349,None,None,60.16341569999349,None,,,,,,,,,,,,,,,,,,,,,,,,,,,,,,,,,,,sing45,001,2022_Sep_06_0946,ProdSingRedoBetween,2021.2.3,59.92437543962602,
9,0,9,0,,,,,,,,,,,,,,,,,,,,,,,,,,64.6667207999999,None,bureau,18,10,sing,yellow,62.66707729999325,None,None,62.66707729999325,None,,,,,,,,,,,,,,,,,,,,,,,,,,,,,,,,,,,sing45,001,2022_Sep_06_0946,ProdSingRedoBetween,2021.2.3,59.92437543962602,
10,0,10,0,,,,,,,,,,,,,,,,,,,,,,,,,,67.18599879999238,None,blind,87,11,sing,red,65.17408280000382,None,None,65.17408280000382,None,,,,,,,,,,,,,,,,,,,,,,,,,,,,,,,,,,,sing45,001,2022_Sep_06_0946,ProdSingRedoBetween,2021.2.3,59.92437543962602,
11,0,11,0,,,,,,,,,,,,,,,,,,,,,,,,,,69.68849980000232,None,trend,11,12,sing,yellow,67.68641389999539,None,None,67.68641389999539,None,,,,,,,,,,,,,,,,,,,,,,,,,,,,,,,,,,,sing45,001,2022_Sep_06_0946,ProdSingRedoBetween,2021.2.3,59.92437543962602,
12,0,12,0,,,,,,,,,,,,,,,,,,,,,,,,,,72.20768639999733,None,season,23,13,sing,yellow,70.19265240000095,None,None,70.19265240000095,None,,,,,,,,,,,,,,,,,,,,,,,,,,,,,,,,,,,sing45,001,2022_Sep_06_0946,ProdSingRedoBetween,2021.2.3,59.92437543962602,
13,0,13,0,,,,,,,,,,,,,,,,,,,,,,,,,,74.70987949999108,None,thing,17,14,sing,yellow,72.70815550000407,None,None,72.70815550000407,None,,,,,,,,,,,,,,,,,,,,,,,,,,,,,,,,,,,sing45,001,2022_Sep_06_0946,ProdSingRedoBetween,2021.2.3,59.92437543962602,
14,0,14,0,,,,,,,,,,,,,,,,,,,,,,,,,,77.2293728999939,None,birth,68,15,sing,red,75.21931079999194,None,None,75.21931079999194,None,,,,,,,,,,,,,,,,,,,,,,,,,,,,,,,,,,,sing45,001,2022_Sep_06_0946,ProdSingRedoBetween,2021.2.3,59.92437543962602,
15,0,15,0,,,,,,,,,,,,,,,,,,,,,,,,,,79.7486113999912,None,master,40,16,sing,blue,77.73431119999441,None,None,77.73431119999441,None,,,,,,,,,,,,,,,,,,,,,,,,,,,,,,,,,,,sing45,001,2022_Sep_06_0946,ProdSingRedoBetween,2021.2.3,59.92437543962602,
16,0,16,0,,,,,,,,,,,,,,,,,,,,,,,,,,82.25097969999479,None,oxygen,59,17,sing,yellow,80.25192409999727,None,None,80.25192409999727,None,,,,,,,,,,,,,,,,,,,,,,,,,,,,,,,,,,,sing45,001,2022_Sep_06_0946,ProdSingRedoBetween,2021.2.3,59.92437543962602,
17,0,17,0,,,,,,,,,,,,,,,,,,,,,,,,,,84.75344319999567,None,rural,74,18,sing,red,82.75223509999341,None,None,82.75223509999341,None,,,,,,,,,,,,,,,,,,,,,,,,,,,,,,,,,,,sing45,001,2022_Sep_06_0946,ProdSingRedoBetween,2021.2.3,59.92437543962602,
18,0,18,0,,,,,,,,,,,,,,,,,,,,,,,,,,87.27273179999611,None,department,0,19,sing,yellow,85.25914159999229,None,None,85.25914159999229,None,,,,,,,,,,,,,,,,,,,,,,,,,,,,,,,,,,,sing45,001,2022_Sep_06_0946,ProdSingRedoBetween,2021.2.3,59.92437543962602,
19,0,19,0,,,,,,,,,,,,,,,,,,,,,,,,,,89.79185900000448,None,universal,81,20,sing,red,87.78172970000014,None,None,87.78172970000014,None,,,,,,,,,,,,,,,,,,,,,,,,,,,,,,,,,,,sing45,001,2022_Sep_06_0946,ProdSingRedoBetween,2021.2.3,59.92437543962602,
20,0,20,0,,,,,,,,,,,,,,,,,,,,,,,,,,92.29440899999463,None,fashion,33,21,sing,blue,90.292303299997,None,None,90.292303299997,None,,,,,,,,,,,,,,,,,,,,,,,,,,,,,,,,,,,sing45,001,2022_Sep_06_0946,ProdSingRedoBetween,2021.2.3,59.92437543962602,
21,0,21,0,,,,,,,,,,,,,,,,,,,,,,,,,,94.81350219999149,None,crisis,26,22,sing,yellow,92.79957069999364,None,None,92.79957069999364,None,,,,,,,,,,,,,,,,,,,,,,,,,,,,,,,,,,,sing45,001,2022_Sep_06_0946,ProdSingRedoBetween,2021.2.3,59.92437543962602,
22,0,22,0,,,,,,,,,,,,,,,,,,,,,,,,,,97.31612000000314,None,error,41,23,sing,blue,95.31598759999906,None,None,95.31598759999906,None,,,,,,,,,,,,,,,,,,,,,,,,,,,,,,,,,,,sing45,001,2022_Sep_06_0946,ProdSingRedoBetween,2021.2.3,59.92437543962602,
23,0,23,0,,,,,,,,,,,,,,,,,,,,,,,,,,99.81859159999294,None,little,60,24,sing,red,97.81655029999092,None,None,97.81655029999092,None,,,,,,,,,,,,,,,,,,,,,,,,,,,,,,,,,,,sing45,001,2022_Sep_06_0946,ProdSingRedoBetween,2021.2.3,59.92437543962602,
24,0,24,0,,,,,,,,,,,,,,,,,,,,,,,,,,102.33777589999954,None,executive,14,25,sing,yellow,100.32502289999684,None,None,100.32502289999684,None,,,,,,,,,,,,,,,,,,,,,,,,,,,,,,,,,,,sing45,001,2022_Sep_06_0946,ProdSingRedoBetween,2021.2.3,59.92437543962602,
25,0,25,0,,,,,,,,,,,,,,,,,,,,,,,,,,104.84030670000357,None,platform,4,26,sing,yellow,102.84031299999333,None,None,102.84031299999333,None,,,,,,,,,,,,,,,,,,,,,,,,,,,,,,,,,,,sing45,001,2022_Sep_06_0946,ProdSingRedoBetween,2021.2.3,59.92437543962602,
26,0,26,0,,,,,,,,,,,,,,,,,,,,,,,,,,107.35946690000128,None,surprise,45,27,sing,blue,105.34536039999512,None,None,105.34536039999512,None,,,,,,,,,,,,,,,,,,,,,,,,,,,,,,,,,,,sing45,001,2022_Sep_06_0946,ProdSingRedoBetween,2021.2.3,59.92437543962602,
27,0,27,0,,,,,,,,,,,,,,,,,,,,,,,,,,109.87862859999586,None,profession,12,28,sing,yellow,107.86330489999091,None,None,107.86330489999091,None,,,,,,,,,,,,,,,,,,,,,,,,,,,,,,,,,,,sing45,001,2022_Sep_06_0946,ProdSingRedoBetween,2021.2.3,59.92437543962602,
28,0,28,0,,,,,,,,,,,,,,,,,,,,,,,,,,112.39785870000196,None,marriage,8,29,sing,yellow,110.38372859999072,None,None,110.38372859999072,None,,,,,,,,,,,,,,,,,,,,,,,,,,,,,,,,,,,sing45,001,2022_Sep_06_0946,ProdSingRedoBetween,2021.2.3,59.92437543962602,
29,0,29,0,,,,,,,,,,,,,,,,,,,,,,,,,,114.9002865999937,None,short,64,30,sing,red,112.89964970000437,None,None,112.89964970000437,None,,,,,,,,,,,,,,,,,,,,,,,,,,,,,,,,,,,sing45,001,2022_Sep_06_0946,ProdSingRedoBetween,2021.2.3,59.92437543962602,
30,0,30,0,,,,,,,,,,,,,,,,,,,,,,,,,,117.40942539999378,None,school,32,31,sing,blue,115.40247780000209,None,None,115.40247780000209,None,,,,,,,,,,,,,,,,,,,,,,,,,,,,,,,,,,,sing45,001,2022_Sep_06_0946,ProdSingRedoBetween,2021.2.3,59.92437543962602,
31,0,31,0,,,,,,,,,,,,,,,,,,,,,,,,,,119.93843019999622,None,drink,54,32,sing,blue,117.92593240000133,None,None,117.92593240000133,None,,,,,,,,,,,,,,,,,,,,,,,,,,,,,,,,,,,sing45,001,2022_Sep_06_0946,ProdSingRedoBetween,2021.2.3,59.92437543962602,
32,0,32,0,,,,,,,,,,,,,,,,,,,,,,,,,,122.44114439999976,None,staff,1,33,sing,yellow,120.43917519999377,None,None,120.43917519999377,None,,,,,,,,,,,,,,,,,,,,,,,,,,,,,,,,,,,sing45,001,2022_Sep_06_0946,ProdSingRedoBetween,2021.2.3,59.92437543962602,
33,0,33,0,,,,,,,,,,,,,,,,,,,,,,,,,,124.94364949999726,None,weather,82,34,sing,red,122.94185509999807,None,None,122.94185509999807,None,,,,,,,,,,,,,,,,,,,,,,,,,,,,,,,,,,,sing45,001,2022_Sep_06_0946,ProdSingRedoBetween,2021.2.3,59.92437543962602,
34,0,34,0,,,,,,,,,,,,,,,,,,,,,,,,,,127.44615730000078,None,graduate,37,35,sing,blue,125.44618250000349,None,None,125.44618250000349,None,,,,,,,,,,,,,,,,,,,,,,,,,,,,,,,,,,,sing45,001,2022_Sep_06_0946,ProdSingRedoBetween,2021.2.3,59.92437543962602,
35,0,35,0,,,,,,,,,,,,,,,,,,,,,,,,,,129.94883110000228,None,clean,73,36,sing,red,127.94752909999806,None,None,127.94752909999806,None,,,,,,,,,,,,,,,,,,,,,,,,,,,,,,,,,,,sing45,001,2022_Sep_06_0946,ProdSingRedoBetween,2021.2.3,59.92437543962602,
36,0,36,0,,,,,,,,,,,,,,,,,,,,,,,,,,132.45094039999822,None,youth,21,37,sing,yellow,130.44894619999104,None,None,130.44894619999104,None,,,,,,,,,,,,,,,,,,,,,,,,,,,,,,,,,,,sing45,001,2022_Sep_06_0946,ProdSingRedoBetween,2021.2.3,59.92437543962602,
37,0,37,0,,,,,,,,,,,,,,,,,,,,,,,,,,134.97043230000418,None,subject,71,38,sing,red,132.9561279000045,None,None,132.9561279000045,None,,,,,,,,,,,,,,,,,,,,,,,,,,,,,,,,,,,sing45,001,2022_Sep_06_0946,ProdSingRedoBetween,2021.2.3,59.92437543962602,
38,0,38,0,,,,,,,,,,,,,,,,,,,,,,,,,,137.48950409999816,None,portion,39,39,sing,blue,135.475128399994,None,None,135.475128399994,None,,,,,,,,,,,,,,,,,,,,,,,,,,,,,,,,,,,sing45,001,2022_Sep_06_0946,ProdSingRedoBetween,2021.2.3,59.92437543962602,
39,0,39,0,,,,,,,,,,,,,,,,,,,,,,,,,,140.00871310000366,None,death,16,40,sing,yellow,137.99819579999894,None,None,137.99819579999894,None,,,,,,,,,,,,,,,,,,,,,,,,,,,,,,,,,,,sing45,001,2022_Sep_06_0946,ProdSingRedoBetween,2021.2.3,59.92437543962602,
40,0,40,0,,,,,,,,,,,,,,,,,,,,,,,,,,142.5112916999933,None,under,2,41,sing,yellow,140.50924040000245,None,None,140.50924040000245,None,,,,,,,,,,,,,,,,,,,,,,,,,,,,,,,,,,,sing45,001,2022_Sep_06_0946,ProdSingRedoBetween,2021.2.3,59.92437543962602,
41,0,41,0,,,,,,,,,,,,,,,,,,,,,,,,,,145.01376809999056,None,touch,48,42,sing,blue,143.01440010000078,None,None,143.01440010000078,None,,,,,,,,,,,,,,,,,,,,,,,,,,,,,,,,,,,sing45,001,2022_Sep_06_0946,ProdSingRedoBetween,2021.2.3,59.92437543962602,
42,0,42,0,,,,,,,,,,,,,,,,,,,,,,,,,,147.51614799999516,None,tough,22,43,sing,yellow,145.51408529999026,None,None,145.51408529999026,None,,,,,,,,,,,,,,,,,,,,,,,,,,,,,,,,,,,sing45,001,2022_Sep_06_0946,ProdSingRedoBetween,2021.2.3,59.92437543962602,
43,0,43,0,,,,,,,,,,,,,,,,,,,,,,,,,,150.01874990000215,None,incident,72,44,sing,red,148.01672050000343,None,None,148.01672050000343,None,,,,,,,,,,,,,,,,,,,,,,,,,,,,,,,,,,,sing45,001,2022_Sep_06_0946,ProdSingRedoBetween,2021.2.3,59.92437543962602,
44,0,44,0,,,,,,,,,,,,,,,,,,,,,,,,,,152.52120719999948,None,broke,42,45,sing,blue,150.51924850000069,None,None,150.51924850000069,None,,,,,,,,,,,,,,,,,,,,,,,,,,,,,,,,,,,sing45,001,2022_Sep_06_0946,ProdSingRedoBetween,2021.2.3,59.92437543962602,
45,0,45,0,,,,,,,,,,,,,,,,,,,,,,,,,,155.04050269999425,None,power,67,46,sing,red,153.02521369999158,None,None,153.02521369999158,None,,,,,,,,,,,,,,,,,,,,,,,,,,,,,,,,,,,sing45,001,2022_Sep_06_0946,ProdSingRedoBetween,2021.2.3,59.92437543962602,
46,0,46,0,,,,,,,,,,,,,,,,,,,,,,,,,,157.54295429999183,None,burden,6,47,sing,yellow,155.54087640000216,None,None,155.54087640000216,None,,,,,,,,,,,,,,,,,,,,,,,,,,,,,,,,,,,sing45,001,2022_Sep_06_0946,ProdSingRedoBetween,2021.2.3,59.92437543962602,
47,0,47,0,,,,,,,,,,,,,,,,,,,,,,,,,,160.0452932999906,None,curve,86,48,sing,red,158.044006600001,None,None,158.044006600001,None,,,,,,,,,,,,,,,,,,,,,,,,,,,,,,,,,,,sing45,001,2022_Sep_06_0946,ProdSingRedoBetween,2021.2.3,59.92437543962602,
48,0,48,0,,,,,,,,,,,,,,,,,,,,,,,,,,162.5646459999989,None,angle,53,49,sing,blue,160.55514860000403,None,None,160.55514860000403,None,,,,,,,,,,,,,,,,,,,,,,,,,,,,,,,,,,,sing45,001,2022_Sep_06_0946,ProdSingRedoBetween,2021.2.3,59.92437543962602,
49,0,49,0,,,,,,,,,,,,,,,,,,,,,,,,,,165.06720730000234,None,passage,85,50,sing,red,163.0674854999961,None,None,163.0674854999961,None,,,,,,,,,,,,,,,,,,,,,,,,,,,,,,,,,,,sing45,001,2022_Sep_06_0946,ProdSingRedoBetween,2021.2.3,59.92437543962602,
50,0,50,0,,,,,,,,,,,,,,,,,,,,,,,,,,167.58624629999395,None,piece,35,51,sing,blue,165.57826470000145,None,None,165.57826470000145,None,,,,,,,,,,,,,,,,,,,,,,,,,,,,,,,,,,,sing45,001,2022_Sep_06_0946,ProdSingRedoBetween,2021.2.3,59.92437543962602,
51,0,51,0,,,,,,,,,,,,,,,,,,,,,,,,,,170.10557369999879,None,emergency,49,52,sing,blue,168.09471469999698,None,None,168.09471469999698,None,,,,,,,,,,,,,,,,,,,,,,,,,,,,,,,,,,,sing45,001,2022_Sep_06_0946,ProdSingRedoBetween,2021.2.3,59.92437543962602,
52,0,52,0,,,,,,,,,,,,,,,,,,,,,,,,,,172.60794049999095,None,committee,78,53,sing,red,170.60597920000146,None,None,170.60597920000146,None,,,,,,,,,,,,,,,,,,,,,,,,,,,,,,,,,,,sing45,001,2022_Sep_06_0946,ProdSingRedoBetween,2021.2.3,59.92437543962602,
53,0,53,0,,,,,,,,,,,,,,,,,,,,,,,,,,175.11052109999582,None,property,10,54,sing,yellow,173.10849600000074,None,None,173.10849600000074,None,,,,,,,,,,,,,,,,,,,,,,,,,,,,,,,,,,,sing45,001,2022_Sep_06_0946,ProdSingRedoBetween,2021.2.3,59.92437543962602,
54,0,54,0,,,,,,,,,,,,,,,,,,,,,,,,,,177.61306079999486,None,candidate,13,55,sing,yellow,175.61069839999254,None,None,175.61069839999254,None,,,,,,,,,,,,,,,,,,,,,,,,,,,,,,,,,,,sing45,001,2022_Sep_06_0946,ProdSingRedoBetween,2021.2.3,59.92437543962602,
55,0,55,0,,,,,,,,,,,,,,,,,,,,,,,,,,180.13223289999587,None,force,36,56,sing,blue,178.12132900000142,None,None,178.12132900000142,None,,,,,,,,,,,,,,,,,,,,,,,,,,,,,,,,,,,sing45,001,2022_Sep_06_0946,ProdSingRedoBetween,2021.2.3,59.92437543962602,
56,0,56,0,,,,,,,,,,,,,,,,,,,,,,,,,,182.6346937999915,None,guide,62,57,sing,red,180.63488319999306,None,None,180.63488319999306,None,,,,,,,,,,,,,,,,,,,,,,,,,,,,,,,,,,,sing45,001,2022_Sep_06_0946,ProdSingRedoBetween,2021.2.3,59.92437543962602,
57,0,57,0,,,,,,,,,,,,,,,,,,,,,,,,,,185.1538225999975,None,frank,29,58,sing,blue,183.14033270000073,None,None,183.14033270000073,None,,,,,,,,,,,,,,,,,,,,,,,,,,,,,,,,,,,sing45,001,2022_Sep_06_0946,ProdSingRedoBetween,2021.2.3,59.92437543962602,
58,0,58,0,,,,,,,,,,,,,,,,,,,,,,,,,,187.65601599999354,None,place,44,59,sing,blue,185.6543529000046,None,None,185.6543529000046,None,,,,,,,,,,,,,,,,,,,,,,,,,,,,,,,,,,,sing45,001,2022_Sep_06_0946,ProdSingRedoBetween,2021.2.3,59.92437543962602,
59,0,59,0,,,,,,,,,,,,,,,,,,,,,,,,,,190.17558129999088,None,write,47,60,sing,blue,188.16534979999415,None,None,188.16534979999415,None,,,,,,,,,,,,,,,,,,,,,,,,,,,,,,,,,,,sing45,001,2022_Sep_06_0946,ProdSingRedoBetween,2021.2.3,59.92437543962602,
60,0,60,0,,,,,,,,,,,,,,,,,,,,,,,,,,192.6780843000015,None,scale,7,61,sing,yellow,190.67667859999347,None,None,190.67667859999347,None,,,,,,,,,,,,,,,,,,,,,,,,,,,,,,,,,,,sing45,001,2022_Sep_06_0946,ProdSingRedoBetween,2021.2.3,59.92437543962602,
61,0,61,0,,,,,,,,,,,,,,,,,,,,,,,,,,195.1806351999985,None,leader,25,62,sing,yellow,193.1795809000032,None,None,193.1795809000032,None,,,,,,,,,,,,,,,,,,,,,,,,,,,,,,,,,,,sing45,001,2022_Sep_06_0946,ProdSingRedoBetween,2021.2.3,59.92437543962602,
62,0,62,0,,,,,,,,,,,,,,,,,,,,,,,,,,197.6996119999967,None,reach,88,63,sing,red,195.6843366999965,None,None,195.6843366999965,None,,,,,,,,,,,,,,,,,,,,,,,,,,,,,,,,,,,sing45,001,2022_Sep_06_0946,ProdSingRedoBetween,2021.2.3,59.92437543962602,
63,0,63,0,,,,,,,,,,,,,,,,,,,,,,,,,,200.21899710000434,None,drama,5,64,sing,yellow,198.20886129999417,None,None,198.20886129999417,None,,,,,,,,,,,,,,,,,,,,,,,,,,,,,,,,,,,sing45,001,2022_Sep_06_0946,ProdSingRedoBetween,2021.2.3,59.92437543962602,
64,0,64,0,,,,,,,,,,,,,,,,,,,,,,,,,,202.72138099999574,None,threat,24,65,sing,yellow,200.721575699994,None,None,200.721575699994,None,,,,,,,,,,,,,,,,,,,,,,,,,,,,,,,,,,,sing45,001,2022_Sep_06_0946,ProdSingRedoBetween,2021.2.3,59.92437543962602,
65,0,65,0,,,,,,,,,,,,,,,,,,,,,,,,,,205.2402660999942,None,space,3,66,sing,yellow,203.23283130000345,None,None,203.23283130000345,None,,,,,,,,,,,,,,,,,,,,,,,,,,,,,,,,,,,sing45,001,2022_Sep_06_0946,ProdSingRedoBetween,2021.2.3,59.92437543962602,
66,0,66,0,,,,,,,,,,,,,,,,,,,,,,,,,,207.7430813999963,None,light,56,67,sing,blue,205.7411815999949,None,None,205.7411815999949,None,,,,,,,,,,,,,,,,,,,,,,,,,,,,,,,,,,,sing45,001,2022_Sep_06_0946,ProdSingRedoBetween,2021.2.3,59.92437543962602,
67,0,67,0,,,,,,,,,,,,,,,,,,,,,,,,,,210.2457371999917,None,review,77,68,sing,red,208.24600459999056,None,None,208.24600459999056,None,,,,,,,,,,,,,,,,,,,,,,,,,,,,,,,,,,,sing45,001,2022_Sep_06_0946,ProdSingRedoBetween,2021.2.3,59.92437543962602,
68,0,68,0,,,,,,,,,,,,,,,,,,,,,,,,,,212.74811679999402,None,report,28,69,sing,yellow,210.74790400000347,None,None,210.74790400000347,None,,,,,,,,,,,,,,,,,,,,,,,,,,,,,,,,,,,sing45,001,2022_Sep_06_0946,ProdSingRedoBetween,2021.2.3,59.92437543962602,
69,0,69,0,,,,,,,,,,,,,,,,,,,,,,,,,,215.25057289999677,None,working,52,70,sing,blue,213.2486196999962,None,None,213.2486196999962,None,,,,,,,,,,,,,,,,,,,,,,,,,,,,,,,,,,,sing45,001,2022_Sep_06_0946,ProdSingRedoBetween,2021.2.3,59.92437543962602,
70,0,70,0,,,,,,,,,,,,,,,,,,,,,,,,,,217.76980259999982,None,crime,19,71,sing,yellow,215.75590589999047,None,None,215.75590589999047,None,,,,,,,,,,,,,,,,,,,,,,,,,,,,,,,,,,,sing45,001,2022_Sep_06_0946,ProdSingRedoBetween,2021.2.3,59.92437543962602,
71,0,71,0,,,,,,,,,,,,,,,,,,,,,,,,,,220.27231909999682,None,principal,46,72,sing,blue,218.2726527999912,None,None,218.2726527999912,None,,,,,,,,,,,,,,,,,,,,,,,,,,,,,,,,,,,sing45,001,2022_Sep_06_0946,ProdSingRedoBetween,2021.2.3,59.92437543962602,
72,0,72,0,,,,,,,,,,,,,,,,,,,,,,,,,,222.79149950000283,None,permit,34,73,sing,blue,220.77621830000135,None,None,220.77621830000135,None,,,,,,,,,,,,,,,,,,,,,,,,,,,,,,,,,,,sing45,001,2022_Sep_06_0946,ProdSingRedoBetween,2021.2.3,59.92437543962602,
73,0,73,0,,,,,,,,,,,,,,,,,,,,,,,,,,225.29402210000262,None,corner,89,74,sing,red,223.29181779999635,None,None,223.29181779999635,None,,,,,,,,,,,,,,,,,,,,,,,,,,,,,,,,,,,sing45,001,2022_Sep_06_0946,ProdSingRedoBetween,2021.2.3,59.92437543962602,
74,0,74,0,,,,,,,,,,,,,,,,,,,,,,,,,,227.81314209999982,None,budget,80,75,sing,red,225.797865799992,None,None,225.797865799992,None,,,,,,,,,,,,,,,,,,,,,,,,,,,,,,,,,,,sing45,001,2022_Sep_06_0946,ProdSingRedoBetween,2021.2.3,59.92437543962602,
75,0,75,0,,,,,,,,,,,,,,,,,,,,,,,,,,230.31564040000376,None,crowd,79,76,sing,red,228.31469240000297,None,None,228.31469240000297,None,,,,,,,,,,,,,,,,,,,,,,,,,,,,,,,,,,,sing45,001,2022_Sep_06_0946,ProdSingRedoBetween,2021.2.3,59.92437543962602,
76,0,76,0,,,,,,,,,,,,,,,,,,,,,,,,,,232.8181537999917,None,column,84,77,sing,red,230.81613569999172,None,None,230.81613569999172,None,,,,,,,,,,,,,,,,,,,,,,,,,,,,,,,,,,,sing45,001,2022_Sep_06_0946,ProdSingRedoBetween,2021.2.3,59.92437543962602,
77,0,77,0,,,,,,,,,,,,,,,,,,,,,,,,,,235.32033829999273,None,count,63,78,sing,red,233.3193476000015,None,None,233.3193476000015,None,,,,,,,,,,,,,,,,,,,,,,,,,,,,,,,,,,,sing45,001,2022_Sep_06_0946,ProdSingRedoBetween,2021.2.3,59.92437543962602,
78,0,78,0,,,,,,,,,,,,,,,,,,,,,,,,,,237.8232382999995,None,background,20,79,sing,yellow,235.82111199999053,None,None,235.82111199999053,None,,,,,,,,,,,,,,,,,,,,,,,,,,,,,,,,,,,sing45,001,2022_Sep_06_0946,ProdSingRedoBetween,2021.2.3,59.92437543962602,
79,0,79,0,,,,,,,,,,,,,,,,,,,,,,,,,,240.34235500000068,None,device,50,80,sing,blue,238.32804759999271,None,None,238.32804759999271,None,,,,,,,,,,,,,,,,,,,,,,,,,,,,,,,,,,,sing45,001,2022_Sep_06_0946,ProdSingRedoBetween,2021.2.3,59.92437543962602,
80,0,80,0,,,,,,,,,,,,,,,,,,,,,,,,,,242.8447693999915,None,disease,75,81,sing,red,240.84456669999054,None,None,240.84456669999054,None,,,,,,,,,,,,,,,,,,,,,,,,,,,,,,,,,,,sing45,001,2022_Sep_06_0946,ProdSingRedoBetween,2021.2.3,59.92437543962602,
81,0,81,0,,,,,,,,,,,,,,,,,,,,,,,,,,245.34734429999662,None,treatment,57,82,sing,blue,243.34531259999494,None,None,243.34531259999494,None,,,,,,,,,,,,,,,,,,,,,,,,,,,,,,,,,,,sing45,001,2022_Sep_06_0946,ProdSingRedoBetween,2021.2.3,59.92437543962602,
82,0,82,0,,,,,,,,,,,,,,,,,,,,,,,,,,247.84981020000123,None,range,38,83,sing,blue,245.8496690000029,None,None,245.8496690000029,None,,,,,,,,,,,,,,,,,,,,,,,,,,,,,,,,,,,sing45,001,2022_Sep_06_0946,ProdSingRedoBetween,2021.2.3,59.92437543962602,
83,0,83,0,,,,,,,,,,,,,,,,,,,,,,,,,,250.35228160000406,None,sight,70,84,sing,red,248.35037359999842,None,None,248.35037359999842,None,,,,,,,,,,,,,,,,,,,,,,,,,,,,,,,,,,,sing45,001,2022_Sep_06_0946,ProdSingRedoBetween,2021.2.3,59.92437543962602,
84,0,84,0,,,,,,,,,,,,,,,,,,,,,,,,,,252.85452789999545,None,search,61,85,sing,red,250.8534360999911,None,None,250.8534360999911,None,,,,,,,,,,,,,,,,,,,,,,,,,,,,,,,,,,,sing45,001,2022_Sep_06_0946,ProdSingRedoBetween,2021.2.3,59.92437543962602,
85,0,85,0,,,,,,,,,,,,,,,,,,,,,,,,,,255.35729669999273,None,congress,30,86,sing,blue,253.357362499999,None,None,253.357362499999,None,,,,,,,,,,,,,,,,,,,,,,,,,,,,,,,,,,,sing45,001,2022_Sep_06_0946,ProdSingRedoBetween,2021.2.3,59.92437543962602,
86,0,86,0,,,,,,,,,,,,,,,,,,,,,,,,,,257.87655559999985,None,heavy,76,87,sing,red,255.86465170000156,None,None,255.86465170000156,None,,,,,,,,,,,,,,,,,,,,,,,,,,,,,,,,,,,sing45,001,2022_Sep_06_0946,ProdSingRedoBetween,2021.2.3,59.92437543962602,
87,0,87,0,,,,,,,,,,,,,,,,,,,,,,,,,,260.37907670000277,None,benefit,51,88,sing,blue,258.3771024000016,None,None,258.3771024000016,None,,,,,,,,,,,,,,,,,,,,,,,,,,,,,,,,,,,sing45,001,2022_Sep_06_0946,ProdSingRedoBetween,2021.2.3,59.92437543962602,
88,0,88,0,,,,,,,,,,,,,,,,,,,,,,,,,,262.8982385999989,None,harmony,55,89,sing,blue,260.884372799992,None,None,260.884372799992,None,,,,,,,,,,,,,,,,,,,,,,,,,,,,,,,,,,,sing45,001,2022_Sep_06_0946,ProdSingRedoBetween,2021.2.3,59.92437543962602,
89,0,89,0,,,,,,,,,,,,,,,,,,,,,,,,,,265.41737389999616,None,cousin,27,90,sing,yellow,263.4069395999977,None,None,263.4069395999977,None,,,,,,,,,,,,,,,,,,,,,,,,,,,,,,,,,,,sing45,001,2022_Sep_06_0946,ProdSingRedoBetween,2021.2.3,59.92437543962602,
,,,,,,,,,,,,,,,,,,,,,,,,,,,,,,,,,,,,,,,,,265.91791819999344,None,k,3.7638188999990234,265.91791819999344,None,,,,,,,,,,,,,,,,,,,,,,,,,,,,,sing45,001,2022_Sep_06_0946,ProdSingRedoBetween,2021.2.3,59.92437543962602,
,,,,0,0,0,0,,,,,,,,,,,,,,,,,,,,,,277.4627466999955,None,,,,,,,,,,,,,,,,,device,50,1,sing,old,blue,270.21538419999706,None,270.21538419999706,None,3,6.345947499998147,270.21538419999706,None,6.345947499998147,276.5804172999924,None,277.0969815999997,None,277.0969815999997,None,n,0.3443349000008311,277.0969815999997,None,0.3443349000008311,,,sing45,001,2022_Sep_06_0946,ProdSingRedoBetween,2021.2.3,59.92437543962602,
,,,,1,0,1,0,,,,,,,,,,,,,,,,,,,,,,278.7974060999986,None,,,,,,,,,,,,,,,,,private,119,2,sing,new,null,277.9722821000032,None,277.9722821000032,None,3,0.10114889999385923,277.9722821000032,None,0.10114889999385923,278.10821350000333,None,278.6211578999937,None,278.6211578999937,None,n,0.15615139999135863,278.6211578999937,None,0.15615139999135863,,,sing45,001,2022_Sep_06_0946,ProdSingRedoBetween,2021.2.3,59.92437543962602,
,,,,2,0,2,0,,,,,,,,,,,,,,,,,,,,,,280.11539239999547,None,,,,,,,,,,,,,,,,,industry,171,3,sing,new,null,279.30709309999656,None,279.30709309999656,None,3,0.13431349999154918,279.30709309999656,None,0.13431349999154918,279.46589730000414,None,279.97269660000165,None,279.97269660000165,None,n,0.12458680001145694,279.97269660000165,None,0.12458680001145694,,,sing45,001,2022_Sep_06_0946,ProdSingRedoBetween,2021.2.3,59.92437543962602,
,,,,3,0,3,0,,,,,,,,,,,,,,,,,,,,,,283.25186639999447,None,,,,,,,,,,,,,,,,,reading,113,4,sing,new,null,280.6230404999951,None,280.6230404999951,None,4,1.0422526999900583,280.6230404999951,None,1.0422526999900583,281.684012800004,None,282.184294199993,None,282.184294199993,None,n,1.040953100004117,282.184294199993,None,1.040953100004117,,,sing45,001,2022_Sep_06_0946,ProdSingRedoBetween,2021.2.3,59.92437543962602,
,,,,4,0,4,0,,,,,,,,,,,,,,,,,,,,,,285.28721359999327,None,,,,,,,,,,,,,,,,,throw,108,5,sing,new,null,283.7682335999998,None,283.7682335999998,None,4,0.15316630000597797,283.7682335999998,None,0.15316630000597797,283.953428599998,None,284.45664509999915,None,284.45664509999915,None,n,0.8087607999914326,284.45664509999915,None,0.8087607999914326,,,sing45,001,2022_Sep_06_0946,ProdSingRedoBetween,2021.2.3,59.92437543962602,
,,,,5,0,5,0,,,,,,,,,,,,,,,,,,,,,,287.47273629999836,None,,,,,,,,,,,,,,,,,story,159,6,sing,new,null,285.7959460999991,None,285.7959460999991,None,4,0.9492727000033483,285.7959460999991,None,0.9492727000033483,286.7756444999977,None,287.2893452999997,None,287.2893452999997,None,n,0.16799600000376813,287.2893452999997,None,0.16799600000376813,,,sing45,001,2022_Sep_06_0946,ProdSingRedoBetween,2021.2.3,59.92437543962602,
,,,,6,0,6,0,,,,,,,,,,,,,,,,,,,,,,289.7608798000001,None,,,,,,,,,,,,,,,,,session,66,7,sing,old,red,287.9786669000023,None,287.9786669000023,None,4,0.5027579000015976,287.9786669000023,None,0.5027579000015976,288.51526719999674,None,289.02998279999883,None,289.02998279999883,None,n,0.6994828000024427,289.02998279999883,None,0.6994828000024427,,,sing45,001,2022_Sep_06_0946,ProdSingRedoBetween,2021.2.3,59.92437543962602,
,,,,7,0,7,0,,,,,,,,,,,,,,,,,,,,,,294.446226,None,,,,,,,,,,,,,,,,,empty,132,8,sing,new,null,290.27793810000003,None,290.27793810000003,None,3,0.6113557999924524,290.27793810000003,None,0.6113557999924524,290.91171159999794,None,291.4268408999924,None,291.4268408999924,None,n,2.9986786999943433,291.4268408999924,None,2.9986786999943433,,,sing45,001,2022_Sep_06_0946,ProdSingRedoBetween,2021.2.3,59.92437543962602,
,,,,8,0,8,0,,,,,,,,,,,,,,,,,,,,,,296.26485340000363,None,,,,,,,,,,,,,,,,,range,38,9,sing,old,blue,294.95500669999456,None,294.95500669999456,None,4,0.2702236999903107,294.95500669999456,None,0.2702236999903107,295.2486252999952,None,295.7642770999955,None,295.7642770999955,None,n,0.46907660001306795,295.7642770999955,None,0.46907660001306795,,,sing45,001,2022_Sep_06_0946,ProdSingRedoBetween,2021.2.3,59.92437543962602,
,,,,9,0,9,0,,,,,,,,,,,,,,,,,,,,,,298.5505414999934,None,,,,,,,,,,,,,,,,,incident,72,10,sing,old,red,296.77198989999306,None,296.77198989999306,None,3,1.101404500004719,296.77198989999306,None,1.101404500004719,297.90045659999305,None,298.40020930000173,None,298.40020930000173,None,n,0.12120340000547003,298.40020930000173,None,0.12120340000547003,,,sing45,001,2022_Sep_06_0946,ProdSingRedoBetween,2021.2.3,59.92437543962602,
,,,,10,0,10,0,,,,,,,,,,,,,,,,,,,,,,301.27027619999717,None,,,,,,,,,,,,,,,,,brilliant,92,11,sing,new,null,299.05738479999127,None,299.05738479999127,None,4,1.5200699999986682,299.05738479999127,None,1.5200699999986682,300.60803069999383,None,301.12597639999876,None,301.12597639999876,None,n,0.12351069999567699,301.12597639999876,None,0.12351069999567699,,,sing45,001,2022_Sep_06_0946,ProdSingRedoBetween,2021.2.3,59.92437543962602,
,,,,11,0,11,0,,,,,,,,,,,,,,,,,,,,,,309.3631949999981,None,,,,,,,,,,,,,,,,,universal,81,12,sing,old,red,301.7799721999909,None,301.7799721999909,None,4,6.533414999998058,301.7799721999909,None,6.533414999998058,308.3455002999981,None,308.86328330000106,None,308.86328330000106,None,n,0.47409309999784455,308.86328330000106,None,0.47409309999784455,,,sing45,001,2022_Sep_06_0946,ProdSingRedoBetween,2021.2.3,59.92437543962602,
,,,,12,0,12,0,,,,,,,,,,,,,,,,,,,,,,310.61254469999403,None,,,,,,,,,,,,,,,,,fight,163,13,sing,new,null,309.8844121000002,None,309.8844121000002,None,4,0.02896379999583587,309.8844121000002,None,0.02896379999583587,309.93208589999995,None,310.44655959999363,None,310.44655959999363,None,n,0.13874070000019856,310.44655959999363,None,0.13874070000019856,,,sing45,001,2022_Sep_06_0946,ProdSingRedoBetween,2021.2.3,59.92437543962602,
,,,,13,0,13,0,,,,,,,,,,,,,,,,,,,,,,312.3643205999979,None,,,,,,,,,,,,,,,,,profession,12,14,sing,old,yellow,311.12141809999594,None,311.12141809999594,None,5,0.2160328999889316,311.12141809999594,None,0.2160328999889316,311.3738900000026,None,311.88519819999055,None,311.88519819999055,None,n,0.452095399989048,311.88519819999055,None,0.452095399989048,,,sing45,001,2022_Sep_06_0946,ProdSingRedoBetween,2021.2.3,59.92437543962602,
,,,,14,0,14,0,,,,,,,,,,,,,,,,,,,,,,314.4498612000025,None,,,,,,,,,,,,,,,,,couch,176,15,sing,new,null,312.8735207999998,None,312.8735207999998,None,4,0.039697999993222766,312.8735207999998,None,0.039697999993222766,312.93144269999175,None,313.43224379999447,None,313.43224379999447,None,n,1.0010150999878533,313.43224379999447,None,1.0010150999878533,,,sing45,001,2022_Sep_06_0946,ProdSingRedoBetween,2021.2.3,59.92437543962602,
,,,,15,0,15,0,,,,,,,,,,,,,,,,,,,,,,316.7353344000003,None,,,,,,,,,,,,,,,,,dream,177,16,sing,new,null,314.9501171000011,None,314.9501171000011,None,4,1.1392222000140464,314.9501171000011,None,1.1392222000140464,316.11874140000145,None,316.62258189999557,None,316.62258189999557,None,n,0.09082899999339134,316.62258189999557,None,0.09082899999339134,,,sing45,001,2022_Sep_06_0946,ProdSingRedoBetween,2021.2.3,59.92437543962602,
,,,,16,0,16,0,,,,,,,,,,,,,,,,,,,,,,319.75503149999713,None,,,,,,,,,,,,,,,,,scale,7,17,sing,old,yellow,317.24398289999226,None,317.24398289999226,None,4,0.9894158000097377,317.24398289999226,None,0.9894158000097377,318.25643229999696,None,318.7708119000017,None,318.7708119000017,None,n,0.9665003999980399,318.7708119000017,None,0.9665003999980399,,,sing45,001,2022_Sep_06_0946,ProdSingRedoBetween,2021.2.3,59.92437543962602,
,,,,17,0,17,0,,,,,,,,,,,,,,,,,,,,,,320.9764362999995,None,,,,,,,,,,,,,,,,,finance,9,18,sing,old,yellow,320.26311849999183,None,320.26311849999183,None,4,0.12221860000863671,320.26311849999183,None,0.12221860000863671,320.408534599992,None,320.92500180000206,None,320.92500180000206,None,n,0.02836589999787975,320.92500180000206,None,0.02836589999787975,,,sing45,001,2022_Sep_06_0946,ProdSingRedoBetween,2021.2.3,59.92437543962602,
,,,,18,0,18,0,,,,,,,,,,,,,,,,,,,,,,323.6761758999928,None,,,,,,,,,,,,,,,,,salary,116,19,sing,new,null,321.493238199997,None,321.493238199997,None,4,1.5320997999951942,321.493238199997,None,1.5320997999951942,323.0482651999919,None,323.55864360000123,None,323.55864360000123,None,n,0.09071049999329261,323.55864360000123,None,0.09071049999329261,,,sing45,001,2022_Sep_06_0946,ProdSingRedoBetween,2021.2.3,59.92437543962602,
,,,,19,0,19,0,,,,,,,,,,,,,,,,,,,,,,325.9110809999984,None,,,,,,,,,,,,,,,,,touch,48,20,sing,old,blue,324.17879629999516,None,324.17879629999516,None,3,1.0384468999982346,324.17879629999516,None,1.0384468999982346,325.25248359999387,None,325.76116419999744,None,325.76116419999744,None,n,0.1281056999869179,325.76116419999744,None,0.1281056999869179,,,sing45,001,2022_Sep_06_0946,ProdSingRedoBetween,2021.2.3,59.92437543962602,
,,,,20,0,20,0,,,,,,,,,,,,,,,,,,,,,,328.515063999992,None,,,,,,,,,,,,,,,,,victory,143,21,sing,new,null,326.42385520000244,None,326.42385520000244,None,5,1.4575797000143211,326.42385520000244,None,1.4575797000143211,327.89896910000243,None,328.4218849000026,None,328.4218849000026,None,n,0.07555829999910202,328.4218849000026,None,0.07555829999910202,,,sing45,001,2022_Sep_06_0946,ProdSingRedoBetween,2021.2.3,59.92437543962602,
,,,,21,0,21,0,,,,,,,,,,,,,,,,,,,,,,331.383319799992,None,,,,,,,,,,,,,,,,,religion,174,22,sing,new,null,329.01746429999184,None,329.01746429999184,None,3,1.767926600005012,329.01746429999184,None,1.767926600005012,330.8229097000003,None,331.3334474000003,None,331.3334474000003,None,n,0.019926199995097704,331.3334474000003,None,0.019926199995097704,,,sing45,001,2022_Sep_06_0946,ProdSingRedoBetween,2021.2.3,59.92437543962602,
,,,,22,0,22,0,,,,,,,,,,,,,,,,,,,,,,333.6522502000007,None,,,,,,,,,,,,,,,,,comedy,147,23,sing,new,null,331.8949911999953,None,331.8949911999953,None,4,1.0983379999961471,331.8949911999953,None,1.0983379999961471,333.01961160000064,None,333.51889619999565,None,333.51889619999565,None,n,0.10637070001394022,333.51889619999565,None,0.10637070001394022,,,sing45,001,2022_Sep_06_0946,ProdSingRedoBetween,2021.2.3,59.92437543962602,
,,,,23,0,23,0,,,,,,,,,,,,,,,,,,,,,,336.5552591000014,None,,,,,,,,,,,,,,,,,angle,53,24,sing,old,blue,334.1616253999964,None,334.1616253999964,None,4,0.887797799994587,334.1616253999964,None,0.887797799994587,335.0769749000028,None,335.58743659999163,None,335.58743659999163,None,n,0.949824900002568,335.58743659999163,None,0.949824900002568,,,sing45,001,2022_Sep_06_0946,ProdSingRedoBetween,2021.2.3,59.92437543962602,
,,,,24,0,24,0,,,,,,,,,,,,,,,,,,,,,,337.78976610000245,None,,,,,,,,,,,,,,,,,member,164,25,sing,new,null,337.0624863999983,None,337.0624863999983,None,6,0.11491819999355357,337.0624863999983,None,0.11491819999355357,337.2085239000007,None,337.7230797999946,None,337.7230797999946,None,n,0.0383393999945838,337.7230797999946,None,0.0383393999945838,,,sing45,001,2022_Sep_06_0946,ProdSingRedoBetween,2021.2.3,59.92437543962602,
,,,,25,0,25,0,,,,,,,,,,,,,,,,,,,,,,340.9762148000009,None,,,,,,,,,,,,,,,,,direction,95,26,sing,new,null,338.29652079999505,None,338.29652079999505,None,4,1.0089095000002999,338.29652079999505,None,1.0089095000002999,339.3313124999986,None,339.8480628999969,None,339.8480628999969,None,n,1.1052655000094092,339.8480628999969,None,1.1052655000094092,,,sing45,001,2022_Sep_06_0946,ProdSingRedoBetween,2021.2.3,59.92437543962602,
,,,,26,0,26,0,,,,,,,,,,,,,,,,,,,,,,343.9956799999927,None,,,,,,,,,,,,,,,,,colonel,102,27,sing,new,null,341.48577079999086,None,341.48577079999086,None,4,0.9795532999996794,341.48577079999086,None,0.9795532999996794,342.49974060000386,None,343.0212931999995,None,343.0212931999995,None,n,0.9481355999887455,343.0212931999995,None,0.9481355999887455,,,sing45,001,2022_Sep_06_0946,ProdSingRedoBetween,2021.2.3,59.92437543962602,
,,,,27,0,27,0,,,,,,,,,,,,,,,,,,,,,,346.9489825999917,None,,,,,,,,,,,,,,,,,little,60,28,sing,old,red,344.5026491000026,None,344.5026491000026,None,4,1.10670430000755,344.5026491000026,None,1.10670430000755,345.63078579999274,None,346.1340382999915,None,346.1340382999915,None,n,0.7952953000058187,346.1340382999915,None,0.7952953000058187,,,sing45,001,2022_Sep_06_0946,ProdSingRedoBetween,2021.2.3,59.92437543962602,
,,,,28,0,28,0,,,,,,,,,,,,,,,,,,,,,,349.0006962999905,None,,,,,,,,,,,,,,,,,birth,68,29,sing,old,red,347.4603582999989,None,347.4603582999989,None,4,0.9729373000009218,347.4603582999989,None,0.9729373000009218,348.45583530000295,None,348.97041329999047,None,348.97041329999047,None,n,0.014956500002881512,348.97041329999047,None,0.014956500002881512,,,sing45,001,2022_Sep_06_0946,ProdSingRedoBetween,2021.2.3,59.92437543962602,
,,,,29,0,29,0,,,,,,,,,,,,,,,,,,,,,,358.54803629999515,None,,,,,,,,,,,,,,,,,fellow,175,30,sing,new,null,349.5113599000033,None,349.5113599000033,None,4,2.385991799994372,349.5113599000033,None,2.385991799994372,351.9224564000033,None,352.4398874000035,None,352.4398874000035,None,r,6.0813589000026695,352.4398874000035,None,6.0813589000026695,,,sing45,001,2022_Sep_06_0946,ProdSingRedoBetween,2021.2.3,59.92437543962602,
,,,,30,0,30,0,,,,,,,,,,,,,,,,,,,,,,367.7196946999902,None,,,,,,,,,,,,,,,,,household,149,31,sing,new,null,359.06345089999377,None,359.06345089999377,None,4,6.737834799991106,359.06345089999377,None,6.737834799991106,365.8186293000035,None,366.31847189999826,None,366.31847189999826,None,n,1.3708920999924885,366.31847189999826,None,1.3708920999924885,,,sing45,001,2022_Sep_06_0946,ProdSingRedoBetween,2021.2.3,59.92437543962602,
,,,,31,0,31,0,,,,,,,,,,,,,,,,,,,,,,371.42412799999875,None,,,,,,,,,,,,,,,,,rapid,100,32,sing,new,null,368.224132000003,None,368.224132000003,None,4,0.1291687000048114,368.224132000003,None,0.1291687000048114,368.37443789999816,None,368.8918604999926,None,368.8918604999926,None,n,2.5095172000001185,368.8918604999926,None,2.5095172000001185,,,sing45,001,2022_Sep_06_0946,ProdSingRedoBetween,2021.2.3,59.92437543962602,
,,,,32,0,32,0,,,,,,,,,,,,,,,,,,,,,,373.5098067999934,None,,,,,,,,,,,,,,,,,space,3,33,sing,old,yellow,371.9340988999902,None,371.9340988999902,None,4,0.04335349999018945,371.9340988999902,None,0.04335349999018945,372.0072184000019,None,372.5219231999945,None,372.5219231999945,None,n,0.9674690000101691,372.5219231999945,None,0.9674690000101691,,,sing45,001,2022_Sep_06_0946,ProdSingRedoBetween,2021.2.3,59.92437543962602,
,,,,33,0,33,0,,,,,,,,,,,,,,,,,,,,,,378.03518669999903,None,,,,,,,,,,,,,,,,,tough,22,34,sing,old,yellow,374.01507739999215,None,374.01507739999215,None,3,1.1144364999927348,374.01507739999215,None,1.1144364999927348,375.1658172000025,None,375.677717700004,None,375.677717700004,None,n,2.323789400004898,375.677717700004,None,2.323789400004898,,,sing45,001,2022_Sep_06_0946,ProdSingRedoBetween,2021.2.3,59.92437543962602,
,,,,34,0,34,0,,,,,,,,,,,,,,,,,,,,,,388.8588613000029,None,,,,,,,,,,,,,,,,,waste,133,35,sing,new,null,378.55163449999236,None,378.55163449999236,None,3,0.13783320000220556,378.55163449999236,None,0.13783320000220556,378.7152675999969,None,379.2189389999985,None,379.2189389999985,None,n,9.622438100006548,379.2189389999985,None,9.622438100006548,,,sing45,001,2022_Sep_06_0946,ProdSingRedoBetween,2021.2.3,59.92437543962602,
,,,,35,0,35,0,,,,,,,,,,,,,,,,,,,,,,390.3589944999985,None,,,,,,,,,,,,,,,,,marriage,8,36,sing,old,yellow,389.36126720000175,None,389.36126720000175,None,4,0.3681347000092501,389.36126720000175,None,0.3681347000092501,389.7618887999997,None,390.2784018999955,None,390.2784018999955,None,n,0.050960499997017905,390.2784018999955,None,0.050960499997017905,,,sing45,001,2022_Sep_06_0946,ProdSingRedoBetween,2021.2.3,59.92437543962602,
,,,,36,0,36,0,,,,,,,,,,,,,,,,,,,,,,397.41993889999867,None,,,,,,,,,,,,,,,,,thing,17,37,sing,old,yellow,390.8606185999961,None,390.8606185999961,None,4,2.0047583999985363,390.8606185999961,None,2.0047583999985363,392.89519909999217,None,393.39542410000286,None,393.39542410000286,None,n,3.9900271000078646,393.39542410000286,None,3.9900271000078646,,,sing45,001,2022_Sep_06_0946,ProdSingRedoBetween,2021.2.3,59.92437543962602,
,,,,37,0,37,0,,,,,,,,,,,,,,,,,,,,,,406.2581493000034,None,,,,,,,,,,,,,,,,,benefit,51,38,sing,old,blue,397.9400472999987,None,397.9400472999987,None,4,4.749297599992133,397.9400472999987,None,4.749297599992133,402.70736909999687,None,403.2217643999902,None,403.2217643999902,None,n,3.0116180000040913,403.2217643999902,None,3.0116180000040913,,,sing45,001,2022_Sep_06_0946,ProdSingRedoBetween,2021.2.3,59.92437543962602,
,,,,38,0,38,0,,,,,,,,,,,,,,,,,,,,,,413.3153070999979,None,,,,,,,,,,,,,,,,,search,61,39,sing,old,red,406.77569829999993,None,406.77569829999993,None,3,5.913737499999115,406.77569829999993,None,5.913737499999115,412.72357279999414,None,413.2319467999914,None,413.2319467999914,None,n,0.06539309999789111,413.2319467999914,None,0.06539309999789111,,,sing45,001,2022_Sep_06_0946,ProdSingRedoBetween,2021.2.3,59.92437543962602,
,,,,39,0,39,0,,,,,,,,,,,,,,,,,,,,,,415.2001320999989,None,,,,,,,,,,,,,,,,,speech,112,40,sing,new,null,413.8250282999943,None,413.8250282999943,None,3,0.00835479999659583,413.8250282999943,None,0.00835479999659583,413.85772149999684,None,414.3664187999966,None,414.3664187999966,None,n,0.8190568999998504,414.3664187999966,None,0.8190568999998504,,,sing45,001,2022_Sep_06_0946,ProdSingRedoBetween,2021.2.3,59.92437543962602,
,,,,40,0,40,0,,,,,,,,,,,,,,,,,,,,,,419.6879950000002,None,,,,,,,,,,,,,,,,,breath,93,41,sing,new,null,415.70614229999774,None,415.70614229999774,None,3,3.1271600000036415,415.70614229999774,None,3.1271600000036415,418.8544627999945,None,419.35690420000174,None,419.35690420000174,None,n,0.30047500001091976,419.35690420000174,None,0.30047500001091976,,,sing45,001,2022_Sep_06_0946,ProdSingRedoBetween,2021.2.3,59.92437543962602,
,,,,41,0,41,0,,,,,,,,,,,,,,,,,,,,,,432.82418080000207,None,,,,,,,,,,,,,,,,,history,152,42,sing,new,null,420.1947482999967,None,420.1947482999967,None,4,9.702685899988865,420.1947482999967,None,9.702685899988865,429.9184793000022,None,430.43254379999416,None,430.43254379999416,None,n,2.361114799990901,430.43254379999416,None,2.361114799990901,,,sing45,001,2022_Sep_06_0946,ProdSingRedoBetween,2021.2.3,59.92437543962602,
,,,,42,0,42,0,,,,,,,,,,,,,,,,,,,,,,434.98799280000094,None,,,,,,,,,,,,,,,,,center,120,43,sing,new,null,433.33958109999367,None,433.33958109999367,None,4,1.0139739000005648,433.33958109999367,None,1.0139739000005648,434.3764716000005,None,434.889791900001,None,434.889791900001,None,n,0.07969759999832604,434.889791900001,None,0.07969759999832604,,,sing45,001,2022_Sep_06_0946,ProdSingRedoBetween,2021.2.3,59.92437543962602,
,,,,43,0,43,0,,,,,,,,,,,,,,,,,,,,,,462.9481575999962,None,,,,,,,,,,,,,,,,,burden,6,44,sing,old,yellow,435.4897578999953,None,435.4897578999953,None,6,22.847542699993937,435.4897578999953,None,22.847542699993937,458.36622339999303,None,458.87750609999057,None,458.87750609999057,None,n,4.043850300004124,458.87750609999057,None,4.043850300004124,,,sing45,001,2022_Sep_06_0946,ProdSingRedoBetween,2021.2.3,59.92437543962602,
,,,,44,0,44,0,,,,,,,,,,,,,,,,,,,,,,546.5481104999926,None,,,,,,,,,,,,,,,,,entrance,91,45,sing,new,null,463.453671700001,None,463.453671700001,None,4,82.3638190000056,463.453671700001,None,82.3638190000056,545.8527801000018,None,546.3699636999954,None,546.3699636999954,None,n,0.15958200000750367,546.3699636999954,None,0.15958200000750367,,,sing45,001,2022_Sep_06_0946,ProdSingRedoBetween,2021.2.3,59.92437543962602,
,,,,45,0,45,0,,,,,,,,,,,,,,,,,,,,,,552.7047576000041,None,,,,,,,,,,,,,,,,,country,94,46,sing,new,null,547.0556482999964,None,547.0556482999964,None,4,0.3857873999950243,547.0556482999964,None,0.3857873999950243,547.4680105000007,None,547.9897824999935,None,547.9897824999935,None,n,4.683638800008339,547.9897824999935,None,4.683638800008339,,,sing45,001,2022_Sep_06_0946,ProdSingRedoBetween,2021.2.3,59.92437543962602,
,,,,46,0,46,0,,,,,,,,,,,,,,,,,,,,,,560.4789602999954,None,,,,,,,,,,,,,,,,,subject,71,47,sing,old,red,553.2140396000032,None,553.2140396000032,None,4,0.6036470999970334,553.2140396000032,None,0.6036470999970334,553.8471210999996,None,554.3585694999929,None,554.3585694999929,None,n,6.090940199996112,554.3585694999929,None,6.090940199996112,,,sing45,001,2022_Sep_06_0946,ProdSingRedoBetween,2021.2.3,59.92437543962602,
,,,,47,0,47,0,,,,,,,,,,,,,,,,,,,,,,564.4994218999927,None,,,,,,,,,,,,,,,,,under,2,48,sing,old,yellow,560.9867060999968,None,560.9867060999968,None,4,2.830913799989503,560.9867060999968,None,2.830913799989503,563.8543489000003,None,564.3662566999992,None,564.3662566999992,None,n,0.1152693000040017,564.3662566999992,None,0.1152693000040017,,,sing45,001,2022_Sep_06_0946,ProdSingRedoBetween,2021.2.3,59.92437543962602,
,,,,48,0,48,0,,,,,,,,,,,,,,,,,,,,,,565.8510512999928,None,,,,,,,,,,,,,,,,,build,150,49,sing,new,null,565.008895299994,None,565.008895299994,None,4,0.1446424999885494,565.008895299994,None,0.1446424999885494,565.1875570999982,None,565.7009394999914,None,565.7009394999914,None,n,0.132486800008337,565.7009394999914,None,0.132486800008337,,,sing45,001,2022_Sep_06_0946,ProdSingRedoBetween,2021.2.3,59.92437543962602,
,,,,49,0,49,0,,,,,,,,,,,,,,,,,,,,,,569.1040253999963,None,,,,,,,,,,,,,,,,,trend,11,50,sing,old,yellow,566.3599402999971,None,566.3599402999971,None,4,0.9934340999898268,566.3599402999971,None,0.9934340999898268,567.369157299996,None,567.8787591,None,567.8787591,None,n,1.2106628000037745,567.8787591,None,1.2106628000037745,,,sing45,001,2022_Sep_06_0946,ProdSingRedoBetween,2021.2.3,59.92437543962602,
,,,,50,0,50,0,,,,,,,,,,,,,,,,,,,,,,573.7589249000011,None,,,,,,,,,,,,,,,,,concern,110,51,sing,new,null,569.6128453999991,None,569.6128453999991,None,4,2.004693499999121,569.6128453999991,None,2.004693499999121,571.641019799994,None,572.1423891000013,None,572.1423891000013,None,n,1.5870555000001332,572.1423891000013,None,1.5870555000001332,,,sing45,001,2022_Sep_06_0946,ProdSingRedoBetween,2021.2.3,59.92437543962602,
,,,,51,0,51,0,,,,,,,,,,,,,,,,,,,,,,579.3645584999904,None,,,,,,,,,,,,,,,,,drama,5,52,sing,old,yellow,574.267393999995,None,574.267393999995,None,4,0.022045699995942414,574.267393999995,None,0.022045699995942414,574.3108899999934,None,574.8111907999992,None,574.8111907999992,None,n,4.534371200003079,574.8111907999992,None,4.534371200003079,,,sing45,001,2022_Sep_06_0946,ProdSingRedoBetween,2021.2.3,59.92437543962602,
,,,,52,0,52,0,,,,,,,,,,,,,,,,,,,,,,585.5873930999951,None,,,,,,,,,,,,,,,,,testimony,139,53,sing,new,null,579.8692482000042,None,579.8692482000042,None,5,4.4922058999945875,579.8692482000042,None,4.4922058999945875,584.3874044999975,None,584.8915654000011,None,584.8915654000011,None,n,0.6778414000000339,584.8915654000011,None,0.6778414000000339,,,sing45,001,2022_Sep_06_0946,ProdSingRedoBetween,2021.2.3,59.92437543962602,
,,,,53,0,53,0,,,,,,,,,,,,,,,,,,,,,,587.1723082999961,None,,,,,,,,,,,,,,,,,production,160,54,sing,new,null,586.0968222999945,None,586.0968222999945,None,4,0.2806198000034783,586.0968222999945,None,0.2806198000034783,586.4097398000013,None,586.9219281999976,None,586.9219281999976,None,n,0.2315907000011066,586.9219281999976,None,0.2315907000011066,,,sing45,001,2022_Sep_06_0946,ProdSingRedoBetween,2021.2.3,59.92437543962602,
,,,,54,0,54,0,,,,,,,,,,,,,,,,,,,,,,589.8749917999958,None,,,,,,,,,,,,,,,,,hunger,151,55,sing,new,null,587.6788726999948,None,587.6788726999948,None,4,1.6185129000077723,587.6788726999948,None,1.6185129000077723,589.3245696999948,None,589.8275362999993,None,589.8275362999993,None,n,0.022056600006180815,589.8275362999993,None,0.022056600006180815,,,sing45,001,2022_Sep_06_0946,ProdSingRedoBetween,2021.2.3,59.92437543962602,
,,,,55,0,55,0,,,,,,,,,,,,,,,,,,,,,,593.3124106000032,None,,,,,,,,,,,,,,,,,mechanical,90,56,sing,new,null,590.3773343999928,None,590.3773343999928,None,4,1.4000330000126269,590.3773343999928,None,1.4000330000126269,591.796242700002,None,592.3120669999917,None,592.3120669999917,None,n,0.9774347000056878,592.3120669999917,None,0.9774347000056878,,,sing45,001,2022_Sep_06_0946,ProdSingRedoBetween,2021.2.3,59.92437543962602,
,,,,56,0,56,0,,,,,,,,,,,,,,,,,,,,,,594.5464060999948,None,,,,,,,,,,,,,,,,,gesture,58,57,sing,old,blue,593.8223003000021,None,593.8223003000021,None,4,0.1311608999967575,593.8223003000021,None,0.1311608999967575,593.9803625999921,None,594.4928748999955,None,594.4928748999955,None,n,0.03660710000258405,594.4928748999955,None,0.03660710000258405,,,sing45,001,2022_Sep_06_0946,ProdSingRedoBetween,2021.2.3,59.92437543962602,
,,,,57,0,57,0,,,,,,,,,,,,,,,,,,,,,,597.300763399995,None,,,,,,,,,,,,,,,,,worker,104,58,sing,new,null,595.0611823999934,None,595.0611823999934,None,4,1.64426669999375,595.0611823999934,None,1.64426669999375,596.7388763999916,None,597.2543008999928,None,597.2543008999928,None,n,0.027227400001720525,597.2543008999928,None,0.027227400001720525,,,sing45,001,2022_Sep_06_0946,ProdSingRedoBetween,2021.2.3,59.92437543962602,
,,,,58,0,58,0,,,,,,,,,,,,,,,,,,,,,,599.7515673000016,None,,,,,,,,,,,,,,,,,light,56,59,sing,old,blue,597.8200879999931,None,597.8200879999931,None,4,1.2933667000033893,597.8200879999931,None,1.2933667000033893,599.1369257999904,None,599.6524403999938,None,599.6524403999938,None,n,0.06905649999680463,599.6524403999938,None,0.06905649999680463,,,sing45,001,2022_Sep_06_0946,ProdSingRedoBetween,2021.2.3,59.92437543962602,
,,,,59,0,59,0,,,,,,,,,,,,,,,,,,,,,,601.0695074999967,None,,,,,,,,,,,,,,,,,population,145,60,sing,new,null,600.2657075000025,None,600.2657075000025,None,4,0.23177850000502076,600.2657075000025,None,0.23177850000502076,600.5203142999962,None,601.0239151999995,None,601.0239151999995,None,n,0.025672399991890416,601.0239151999995,None,0.025672399991890416,,,sing45,001,2022_Sep_06_0946,ProdSingRedoBetween,2021.2.3,59.92437543962602,
,,,,60,0,60,0,,,,,,,,,,,,,,,,,,,,,,606.3247467000037,None,,,,,,,,,,,,,,,,,suggestion,142,61,sing,new,null,601.5726279999944,None,601.5726279999944,None,4,0.10887019999790937,601.5726279999944,None,0.10887019999790937,601.7081083999947,None,602.2266269999964,None,602.2266269999964,None,n,4.071072000006097,602.2266269999964,None,4.071072000006097,,,sing45,001,2022_Sep_06_0946,ProdSingRedoBetween,2021.2.3,59.92437543962602,
,,,,61,0,61,0,,,,,,,,,,,,,,,,,,,,,,608.8125282999972,None,,,,,,,,,,,,,,,,,sweet,126,62,sing,new,null,606.830549499995,None,606.830549499995,None,4,0.12290190000203438,606.830549499995,None,0.12290190000203438,606.9770718999935,None,607.4819798999961,None,607.4819798999961,None,n,1.3114496000052895,607.4819798999961,None,1.3114496000052895,,,sing45,001,2022_Sep_06_0946,ProdSingRedoBetween,2021.2.3,59.92437543962602,
,,,,62,0,62,0,,,,,,,,,,,,,,,,,,,,,,610.8626099999965,None,,,,,,,,,,,,,,,,,alert,123,63,sing,new,null,609.3296821999975,None,609.3296821999975,None,4,0.36788150000211317,609.3296821999975,None,0.36788150000211317,609.7306406999996,None,610.2475334000046,None,610.2475334000046,None,n,0.585986199992476,610.2475334000046,None,0.585986199992476,,,sing45,001,2022_Sep_06_0946,ProdSingRedoBetween,2021.2.3,59.92437543962602,
,,,,63,0,63,0,,,,,,,,,,,,,,,,,,,,,,613.8823441999994,None,,,,,,,,,,,,,,,,,people,127,64,sing,new,null,611.3694162000029,None,611.3694162000029,None,4,0.27213599999959115,611.3694162000029,None,0.27213599999959115,611.664701200003,None,612.1807700999925,None,612.1807700999925,None,n,1.6768388000054983,612.1807700999925,None,1.6768388000054983,,,sing45,001,2022_Sep_06_0946,ProdSingRedoBetween,2021.2.3,59.92437543962602,
,,,,64,0,64,0,,,,,,,,,,,,,,,,,,,,,,662.814572999996,None,,,,,,,,,,,,,,,,,relation,96,65,sing,new,null,614.3891952999984,None,614.3891952999984,None,4,28.964470599996275,614.3891952999984,None,28.964470599996275,643.3785529000015,None,643.8791408999969,None,643.8791408999969,None,n,18.9143699999986,643.8791408999969,None,18.9143699999986,,,sing45,001,2022_Sep_06_0946,ProdSingRedoBetween,2021.2.3,59.92437543962602,
,,,,65,0,65,0,,,,,,,,,,,,,,,,,,,,,,664.2017019999912,None,,,,,,,,,,,,,,,,,tragedy,130,66,sing,new,null,663.3159958000033,None,663.3159958000033,None,4,0.07756140000128653,663.3159958000033,None,0.07756140000128653,663.4258930999931,None,663.9373362000042,None,663.9373362000042,None,n,0.23221380000177305,663.9373362000042,None,0.23221380000177305,,,sing45,001,2022_Sep_06_0946,ProdSingRedoBetween,2021.2.3,59.92437543962602,
,,,,66,0,66,0,,,,,,,,,,,,,,,,,,,,,,665.7185191000026,None,,,,,,,,,,,,,,,,,short,64,67,sing,old,red,664.7252849999932,None,664.7252849999932,None,4,0.13225260000035632,664.7252849999932,None,0.13225260000035632,664.8859843999962,None,665.4005799000006,None,665.4005799000006,None,n,0.29695830000855494,665.4005799000006,None,0.29695830000855494,,,sing45,001,2022_Sep_06_0946,ProdSingRedoBetween,2021.2.3,59.92437543962602,
,,,,67,0,67,0,,,,,,,,,,,,,,,,,,,,,,668.0028291999915,None,,,,,,,,,,,,,,,,,author,162,68,sing,new,null,666.2231479000038,None,666.2231479000038,None,4,1.138391499989666,666.2231479000038,None,1.138391499989666,667.390310200004,None,667.904037699991,None,667.904037699991,None,n,0.07346590000088327,667.904037699991,None,0.07346590000088327,,,sing45,001,2022_Sep_06_0946,ProdSingRedoBetween,2021.2.3,59.92437543962602,
,,,,68,0,68,0,,,,,,,,,,,,,,,,,,,,,,671.523329100004,None,,,,,,,,,,,,,,,,,sight,70,69,sing,old,red,668.5138979999901,None,668.5138979999901,None,4,1.7515322999970522,668.5138979999901,None,1.7515322999970522,670.2915401999926,None,670.8106608999951,None,670.8106608999951,None,n,0.6947683000034885,670.8106608999951,None,0.6947683000034885,,,sing45,001,2022_Sep_06_0946,ProdSingRedoBetween,2021.2.3,59.92437543962602,
,,,,69,0,69,0,,,,,,,,,,,,,,,,,,,,,,674.5927934999927,None,,,,,,,,,,,,,,,,,guide,62,70,sing,old,red,672.0289914000023,None,672.0289914000023,None,4,0.41243880000547506,672.0289914000023,None,0.41243880000547506,672.4584832999972,None,672.9588447999995,None,672.9588447999995,None,n,1.6107425000082003,672.9588447999995,None,1.6107425000082003,,,sing45,001,2022_Sep_06_0946,ProdSingRedoBetween,2021.2.3,59.92437543962602,
,,,,70,0,70,0,,,,,,,,,,,,,,,,,,,,,,677.0010994999902,None,,,,,,,,,,,,,,,,,staff,1,71,sing,old,yellow,675.101594599997,None,675.101594599997,None,3,1.2439715999935288,675.101594599997,None,1.2439715999935288,676.3630211999989,None,676.8798532999936,None,676.8798532999936,None,n,0.09769299998879433,676.8798532999936,None,0.09769299998879433,,,sing45,001,2022_Sep_06_0946,ProdSingRedoBetween,2021.2.3,59.92437543962602,
,,,,71,0,71,0,,,,,,,,,,,,,,,,,,,,,,679.7314711999934,None,,,,,,,,,,,,,,,,,balance,138,72,sing,new,null,677.5175467999943,None,677.5175467999943,None,3,1.100035299998126,677.5175467999943,None,1.100035299998126,678.6470593999984,None,679.1518685000046,None,679.1518685000046,None,n,0.5536217000044417,679.1518685000046,None,0.5536217000044417,,,sing45,001,2022_Sep_06_0946,ProdSingRedoBetween,2021.2.3,59.92437543962602,
,,,,72,0,72,0,,,,,,,,,,,,,,,,,,,,,,681.1024208000017,None,,,,,,,,,,,,,,,,,foundation,97,73,sing,new,null,680.2355484,None,680.2355484,None,4,0.16604090000328142,680.2355484,None,0.16604090000328142,680.4377154999966,None,680.9533542999998,None,680.9533542999998,None,n,0.12817009999707807,680.9533542999998,None,0.12817009999707807,,,sing45,001,2022_Sep_06_0946,ProdSingRedoBetween,2021.2.3,59.92437543962602,
,,,,73,0,73,0,,,,,,,,,,,,,,,,,,,,,,682.4174922999955,None,,,,,,,,,,,,,,,,,state,140,74,sing,new,null,681.623145599995,None,681.623145599995,None,4,0.1624729000031948,681.623145599995,None,0.1624729000031948,681.8178401999903,None,682.3224534000037,None,682.3224534000037,None,n,0.07921889999124687,682.3224534000037,None,0.07921889999124687,,,sing45,001,2022_Sep_06_0946,ProdSingRedoBetween,2021.2.3,59.92437543962602,
,,,,74,0,74,0,,,,,,,,,,,,,,,,,,,,,,684.9700445999915,None,,,,,,,,,,,,,,,,,close,15,75,sing,old,yellow,682.9271989999979,None,682.9271989999979,None,5,1.426357199990889,682.9271989999979,None,1.426357199990889,684.3765391999914,None,684.8868526000006,None,684.8868526000006,None,n,0.05880090000573546,684.8868526000006,None,0.05880090000573546,,,sing45,001,2022_Sep_06_0946,ProdSingRedoBetween,2021.2.3,59.92437543962602,
,,,,75,0,75,0,,,,,,,,,,,,,,,,,,,,,,690.2114421000006,None,,,,,,,,,,,,,,,,,present,136,76,sing,new,null,685.4756105999986,None,685.4756105999986,None,4,3.7417749999876833,685.4756105999986,None,3.7417749999876833,689.2409952000016,None,689.7417531999963,None,689.7417531999963,None,n,0.4517850999982329,689.7417531999963,None,0.4517850999982329,,,sing45,001,2022_Sep_06_0946,ProdSingRedoBetween,2021.2.3,59.92437543962602,
,,,,76,0,76,0,,,,,,,,,,,,,,,,,,,,,,691.5432208999991,None,,,,,,,,,,,,,,,,,portion,39,77,sing,old,blue,690.7361701999907,None,690.7361701999907,None,2,0.18547110000508837,690.7361701999907,None,0.18547110000508837,690.9499246999912,None,691.4600209999917,None,691.4600209999917,None,n,0.05355290000443347,691.4600209999917,None,0.05355290000443347,,,sing45,001,2022_Sep_06_0946,ProdSingRedoBetween,2021.2.3,59.92437543962602,
,,,,77,0,77,0,,,,,,,,,,,,,,,,,,,,,,692.928052599993,None,,,,,,,,,,,,,,,,,machinery,129,78,sing,new,null,692.0517381999962,None,692.0517381999962,None,4,0.19774849999521393,692.0517381999962,None,0.19774849999521393,692.2783307999925,None,692.7847492000001,None,692.7847492000001,None,n,0.11272940000344533,692.7847492000001,None,0.11272940000344533,,,sing45,001,2022_Sep_06_0946,ProdSingRedoBetween,2021.2.3,59.92437543962602,
,,,,78,0,78,0,,,,,,,,,,,,,,,,,,,,,,694.1534350000002,None,,,,,,,,,,,,,,,,,travel,106,79,sing,new,null,693.4374892999913,None,693.4374892999913,None,2,0.13211859999864828,693.4374892999913,None,0.13211859999864828,693.5995145999914,None,694.1183605999977,None,694.1183605999977,None,n,0.011445500000263564,694.1183605999977,None,0.011445500000263564,,,sing45,001,2022_Sep_06_0946,ProdSingRedoBetween,2021.2.3,59.92437543962602,
,,,,79,0,79,0,,,,,,,,,,,,,,,,,,,,,,695.4806387999997,None,,,,,,,,,,,,,,,,,exchange,137,80,sing,new,null,694.6661654999916,None,694.6661654999916,None,4,0.19138449999445584,694.6661654999916,None,0.19138449999445584,694.8881048000039,None,695.3972542999982,None,695.3972542999982,None,n,0.052415599988307804,695.3972542999982,None,0.052415599988307804,,,sing45,001,2022_Sep_06_0946,ProdSingRedoBetween,2021.2.3,59.92437543962602,
,,,,80,0,80,0,,,,,,,,,,,,,,,,,,,,,,697.7162332000007,None,,,,,,,,,,,,,,,,,harmony,55,81,sing,old,blue,695.9885016000044,None,695.9885016000044,None,5,0.14911669999128208,695.9885016000044,None,0.14911669999128208,696.1681329999992,None,696.6851516000024,None,696.6851516000024,None,n,1.0123849000083283,696.6851516000024,None,1.0123849000083283,,,sing45,001,2022_Sep_06_0946,ProdSingRedoBetween,2021.2.3,59.92437543962602,
,,,,81,0,81,0,,,,,,,,,,,,,,,,,,,,,,700.0534505999967,None,,,,,,,,,,,,,,,,,budget,80,82,sing,old,red,698.2264989999967,None,698.2264989999967,None,2,1.2229840000072727,698.2264989999967,None,1.2229840000072727,699.4688308000041,None,699.9695972000045,None,699.9695972000045,None,n,0.06402089999755844,699.9695972000045,None,0.06402089999755844,,,sing45,001,2022_Sep_06_0946,ProdSingRedoBetween,2021.2.3,59.92437543962602,
,,,,82,0,82,0,,,,,,,,,,,,,,,,,,,,,,701.4369540999905,None,,,,,,,,,,,,,,,,,grade,124,83,sing,new,null,700.5733297999977,None,700.5733297999977,None,4,0.2202528999914648,700.5733297999977,None,0.2202528999914648,700.8209811999986,None,701.3364729000023,None,701.3364729000023,None,n,0.07305310000083409,701.3364729000023,None,0.07305310000083409,,,sing45,001,2022_Sep_06_0946,ProdSingRedoBetween,2021.2.3,59.92437543962602,
,,,,83,0,83,0,,,,,,,,,,,,,,,,,,,,,,704.005654099994,None,,,,,,,,,,,,,,,,,rural,74,84,sing,old,red,701.9520405999938,None,701.9520405999938,None,3,1.0254044000030262,701.9520405999938,None,1.0254044000030262,703.0053841000044,None,703.5081221,None,703.5081221,None,n,0.46939290000591427,703.5081221,None,0.46939290000591427,,,sing45,001,2022_Sep_06_0946,ProdSingRedoBetween,2021.2.3,59.92437543962602,
,,,,84,0,84,0,,,,,,,,,,,,,,,,,,,,,,705.5405962999939,None,,,,,,,,,,,,,,,,,background,20,85,sing,old,yellow,704.5166073,None,704.5166073,None,4,0.29294250000384636,704.5166073,None,0.29294250000384636,704.8398764000012,None,705.3405084999977,None,705.3405084999977,None,n,0.17301020000013523,705.3405084999977,None,0.17301020000013523,,,sing45,001,2022_Sep_06_0946,ProdSingRedoBetween,2021.2.3,59.92437543962602,
,,,,85,0,85,0,,,,,,,,,,,,,,,,,,,,,,708.8458497999964,None,,,,,,,,,,,,,,,,,reach,88,86,sing,old,red,706.0426104999933,None,706.0426104999933,None,2,1.0629321000014897,706.0426104999933,None,1.0629321000014897,707.1300630000042,None,707.6430968999921,None,707.6430968999921,None,n,1.1823109999968437,707.6430968999921,None,1.1823109999968437,,,sing45,001,2022_Sep_06_0946,ProdSingRedoBetween,2021.2.3,59.92437543962602,
,,,,86,0,86,0,,,,,,,,,,,,,,,,,,,,,,710.2286221999966,None,,,,,,,,,,,,,,,,,audience,125,87,sing,new,null,709.3682803999982,None,709.3682803999982,None,3,0.12929199999780394,709.3682803999982,None,0.12929199999780394,709.5302864999976,None,710.0545233000012,None,710.0545233000012,None,n,0.14691510000557173,710.0545233000012,None,0.14691510000557173,,,sing45,001,2022_Sep_06_0946,ProdSingRedoBetween,2021.2.3,59.92437543962602,
,,,,87,0,87,0,,,,,,,,,,,,,,,,,,,,,,712.5321457999962,None,,,,,,,,,,,,,,,,,force,36,88,sing,old,blue,710.7425001999945,None,710.7425001999945,None,5,1.2029550000006566,710.7425001999945,None,1.2029550000006566,711.9684513999964,None,712.4835959999909,None,712.4835959999909,None,n,0.029945899994345382,712.4835959999909,None,0.029945899994345382,,,sing45,001,2022_Sep_06_0946,ProdSingRedoBetween,2021.2.3,59.92437543962602,
,,,,88,0,88,0,,,,,,,,,,,,,,,,,,,,,,724.8430332999997,None,,,,,,,,,,,,,,,,,count,63,89,sing,old,red,713.0377743999998,None,713.0377743999998,None,4,11.171731800000998,713.0377743999998,None,11.171731800000998,724.2268532000016,None,724.7287766999943,None,724.7287766999943,None,n,0.08894109999528155,724.7287766999943,None,0.08894109999528155,,,sing45,001,2022_Sep_06_0946,ProdSingRedoBetween,2021.2.3,59.92437543962602,
,,,,89,0,89,0,,,,,,,,,,,,,,,,,,,,,,728.1829443000024,None,,,,,,,,,,,,,,,,,season,23,90,sing,old,yellow,725.3466778000002,None,725.3466778000002,None,4,1.7350363000005018,725.3466778000002,None,1.7350363000005018,727.1211968999996,None,727.6326926000038,None,727.6326926000038,None,n,0.5288682999962475,727.6326926000038,None,0.5288682999962475,,,sing45,001,2022_Sep_06_0946,ProdSingRedoBetween,2021.2.3,59.92437543962602,
,,,,90,0,90,0,,,,,,,,,,,,,,,,,,,,,,740.3596235000005,None,,,,,,,,,,,,,,,,,curve,86,91,sing,old,red,728.6995657999942,None,728.6995657999942,None,4,0.2699248999997508,728.6995657999942,None,0.2699248999997508,728.9983999999968,None,729.5071662999981,None,729.5071662999981,None,n,10.830419999998412,729.5071662999981,None,10.830419999998412,,,sing45,001,2022_Sep_06_0946,ProdSingRedoBetween,2021.2.3,59.92437543962602,
,,,,91,0,91,0,,,,,,,,,,,,,,,,,,,,,,743.0781748000009,None,,,,,,,,,,,,,,,,,passage,85,92,sing,old,red,740.8634908999957,None,740.8634908999957,None,4,0.9300146999885328,740.8634908999957,None,0.9300146999885328,741.8111598999967,None,742.3170735000022,None,742.3170735000022,None,n,0.7404511999920942,742.3170735000022,None,0.7404511999920942,,,sing45,001,2022_Sep_06_0946,ProdSingRedoBetween,2021.2.3,59.92437543962602,
,,,,92,0,92,0,,,,,,,,,,,,,,,,,,,,,,746.0644295999955,None,,,,,,,,,,,,,,,,,congress,30,93,sing,old,blue,743.5889412999968,None,743.5889412999968,None,4,0.5406428999995114,743.5889412999968,None,0.5406428999995114,744.1476543000026,None,744.6735657999961,None,744.6735657999961,None,n,1.367834299991955,744.6735657999961,None,1.367834299991955,,,sing45,001,2022_Sep_06_0946,ProdSingRedoBetween,2021.2.3,59.92437543962602,
,,,,93,0,93,0,,,,,,,,,,,,,,,,,,,,,,748.8339535999985,None,,,,,,,,,,,,,,,,,permit,34,94,sing,old,blue,746.5673507000029,None,746.5673507000029,None,4,0.858279299995047,746.5673507000029,None,0.858279299995047,747.4503981000016,None,747.9572737999988,None,747.9572737999988,None,n,0.8522840000077849,747.9572737999988,None,0.8522840000077849,,,sing45,001,2022_Sep_06_0946,ProdSingRedoBetween,2021.2.3,59.92437543962602,
,,,,94,0,94,0,,,,,,,,,,,,,,,,,,,,,,751.0024869000044,None,,,,,,,,,,,,,,,,,suspect,158,95,sing,new,null,749.3377081999934,None,749.3377081999934,None,4,0.14395739999599755,749.3377081999934,None,0.14395739999599755,749.5024964999902,None,750.0074515000015,None,750.0074515000015,None,n,0.9700319999974454,750.0074515000015,None,0.9700319999974454,,,sing45,001,2022_Sep_06_0946,ProdSingRedoBetween,2021.2.3,59.92437543962602,
,,,,95,0,95,0,,,,,,,,,,,,,,,,,,,,,,752.8712266999937,None,,,,,,,,,,,,,,,,,nature,135,96,sing,new,null,751.5045208999945,None,751.5045208999945,None,4,0.040994499999214895,751.5045208999945,None,0.040994499999214895,751.5710129999934,None,752.0745762000006,None,752.0745762000006,None,n,0.7749389000091469,752.0745762000006,None,0.7749389000091469,,,sing45,001,2022_Sep_06_0946,ProdSingRedoBetween,2021.2.3,59.92437543962602,
,,,,96,0,96,0,,,,,,,,,,,,,,,,,,,,,,755.5572928000038,None,,,,,,,,,,,,,,,,,surprise,45,97,sing,old,blue,753.3799047999928,None,753.3799047999928,None,4,0.8137114999990445,753.3799047999928,None,0.8137114999990445,754.2241648999916,None,754.7282863,None,754.7282863,None,n,0.8011821999971289,754.7282863,None,0.8011821999971289,,,sing45,001,2022_Sep_06_0946,ProdSingRedoBetween,2021.2.3,59.92437543962602,
,,,,97,0,97,0,,,,,,,,,,,,,,,,,,,,,,758.0598066999955,None,,,,,,,,,,,,,,,,,strength,141,98,sing,new,null,756.065697500002,None,756.065697500002,None,4,0.7357610000035493,756.065697500002,None,0.7357610000035493,756.8287947999925,None,757.3426122999954,None,757.3426122999954,None,n,0.6988684999960242,757.3426122999954,None,0.6988684999960242,,,sing45,001,2022_Sep_06_0946,ProdSingRedoBetween,2021.2.3,59.92437543962602,
,,,,98,0,98,0,,,,,,,,,,,,,,,,,,,,,,760.7958804999944,None,,,,,,,,,,,,,,,,,addition,166,99,sing,new,null,758.568855199992,None,758.568855199992,None,4,0.7367383999953745,758.568855199992,None,0.7367383999953745,759.3340619999944,None,759.8479255999991,None,759.8479255999991,None,n,0.9216436999995494,759.8479255999991,None,0.9216436999995494,,,sing45,001,2022_Sep_06_0946,ProdSingRedoBetween,2021.2.3,59.92437543962602,
,,,,99,0,99,0,,,,,,,,,,,,,,,,,,,,,,763.4484790999995,None,,,,,,,,,,,,,,,,,appeal,170,100,sing,new,null,761.3015730999905,None,761.3015730999905,None,4,0.7559745000035036,761.3015730999905,None,0.7559745000035036,762.0816717999987,None,762.5811359999934,None,762.5811359999934,None,n,0.8524419000023045,762.5811359999934,None,0.8524419000023045,,,sing45,001,2022_Sep_06_0946,ProdSingRedoBetween,2021.2.3,59.92437543962602,
,,,,100,0,100,0,,,,,,,,,,,,,,,,,,,,,,766.4014136000042,None,,,,,,,,,,,,,,,,,place,44,101,sing,old,blue,763.9620503999904,None,763.9620503999904,None,4,0.9434196000074735,763.9620503999904,None,0.9434196000074735,764.936524299992,None,765.4534259999928,None,765.4534259999928,None,n,0.9241925999958767,765.4534259999928,None,0.9241925999958767,,,sing45,001,2022_Sep_06_0946,ProdSingRedoBetween,2021.2.3,59.92437543962602,
,,,,101,0,101,0,,,,,,,,,,,,,,,,,,,,,,768.1531659000029,None,,,,,,,,,,,,,,,,,orchestra,148,102,sing,new,null,766.9097522999946,None,766.9097522999946,None,4,0.5718779000017093,766.9097522999946,None,0.5718779000017093,767.5065087999974,None,768.0236166999966,None,768.0236166999966,None,n,0.1058474000019487,768.0236166999966,None,0.1058474000019487,,,sing45,001,2022_Sep_06_0946,ProdSingRedoBetween,2021.2.3,59.92437543962602,
,,,,102,0,102,0,,,,,,,,,,,,,,,,,,,,,,770.8574969000038,None,,,,,,,,,,,,,,,,,threat,24,103,sing,old,yellow,768.653876700002,None,768.653876700002,None,4,0.8117013000010047,768.653876700002,None,0.8117013000010047,769.4943498999928,None,770.0051689999964,None,770.0051689999964,None,n,0.8204009000037331,770.0051689999964,None,0.8204009000037331,,,sing45,001,2022_Sep_06_0946,ProdSingRedoBetween,2021.2.3,59.92437543962602,
,,,,103,0,103,0,,,,,,,,,,,,,,,,,,,,,,787.4558045000012,None,,,,,,,,,,,,,,,,,crisis,26,104,sing,old,yellow,771.3752207999933,None,771.3752207999933,None,4,0.546489800006384,771.3752207999933,None,0.546489800006384,771.9456425999961,None,772.4574116000003,None,772.4574116000003,None,n,14.96814959999756,772.4574116000003,None,14.96814959999756,,,sing45,001,2022_Sep_06_0946,ProdSingRedoBetween,2021.2.3,59.92437543962602,
,,,,104,0,104,0,,,,,,,,,,,,,,,,,,,,,,789.1408047000004,None,,,,,,,,,,,,,,,,,crowd,79,105,sing,old,red,787.964081099999,None,787.964081099999,None,4,0.4855642999900738,787.964081099999,None,0.4855642999900738,788.474816899994,None,788.9782316999917,None,788.9782316999917,None,n,0.13528070000756998,788.9782316999917,None,0.13528070000756998,,,sing45,001,2022_Sep_06_0946,ProdSingRedoBetween,2021.2.3,59.92437543962602,
,,,,105,0,105,0,,,,,,,,,,,,,,,,,,,,,,798.0830314999912,None,,,,,,,,,,,,,,,,,broke,42,106,sing,old,blue,789.6484415000014,None,789.6484415000014,None,4,7.1850305999978445,789.6484415000014,None,7.1850305999978445,796.8695689000015,None,797.3824671000039,None,797.3824671000039,None,n,0.6830798000009963,797.3824671000039,None,0.6830798000009963,,,sing45,001,2022_Sep_06_0946,ProdSingRedoBetween,2021.2.3,59.92437543962602,
,,,,106,0,106,0,,,,,,,,,,,,,,,,,,,,,,799.6012717999984,None,,,,,,,,,,,,,,,,,review,77,107,sing,old,red,798.5880084999953,None,798.5880084999953,None,5,0.15757250000024214,798.5880084999953,None,0.15757250000024214,798.7705581000046,None,799.2842649999948,None,799.2842649999948,None,n,0.3012338999978965,799.2842649999948,None,0.3012338999978965,,,sing45,001,2022_Sep_06_0946,ProdSingRedoBetween,2021.2.3,59.92437543962602,
,,,,107,0,107,0,,,,,,,,,,,,,,,,,,,,,,808.9118283999996,None,,,,,,,,,,,,,,,,,institute,154,108,sing,new,null,800.1132913000038,None,800.1132913000038,None,5,6.6644800000067335,800.1132913000038,None,6.6644800000067335,806.7940766999964,None,807.2936462999933,None,807.2936462999933,None,n,1.5881349999981467,807.2936462999933,None,1.5881349999981467,,,sing45,001,2022_Sep_06_0946,ProdSingRedoBetween,2021.2.3,59.92437543962602,
,,,,108,0,108,0,,,,,,,,,,,,,,,,,,,,,,810.8804938999965,None,,,,,,,,,,,,,,,,,committee,78,109,sing,old,red,809.4148347000009,None,809.4148347000009,None,4,0.4748237000021618,809.4148347000009,None,0.4748237000021618,809.9192894000007,None,810.4336484999949,None,810.4336484999949,None,n,0.4241448999964632,810.4336484999949,None,0.4241448999964632,,,sing45,001,2022_Sep_06_0946,ProdSingRedoBetween,2021.2.3,59.92437543962602,
,,,,109,0,109,0,,,,,,,,,,,,,,,,,,,,,,814.9679096000036,None,,,,,,,,,,,,,,,,,majority,172,110,sing,new,null,811.3940653000027,None,811.3940653000027,None,4,0.5355490000074496,811.3940653000027,None,0.5355490000074496,811.9522908999934,None,812.469316799994,None,812.469316799994,None,n,2.4684225999953924,812.469316799994,None,2.4684225999953924,,,sing45,001,2022_Sep_06_0946,ProdSingRedoBetween,2021.2.3,59.92437543962602,
,,,,110,0,110,0,,,,,,,,,,,,,,,,,,,,,,819.2760354999918,None,,,,,,,,,,,,,,,,,principal,46,111,sing,old,blue,815.4760853999906,None,815.4760853999906,None,4,0.9656031000049552,815.4760853999906,None,0.9656031000049552,816.4767183999938,None,816.9886056999967,None,816.9886056999967,None,n,2.2532819000043673,816.9886056999967,None,2.2532819000043673,,,sing45,001,2022_Sep_06_0946,ProdSingRedoBetween,2021.2.3,59.92437543962602,
,,,,111,0,111,0,,,,,,,,,,,,,,,,,,,,,,821.1741741000005,None,,,,,,,,,,,,,,,,,taste,98,112,sing,new,null,819.7950507999922,None,819.7950507999922,None,4,0.6627871000091545,819.7950507999922,None,0.6627871000091545,820.4767465000041,None,820.992425599994,None,820.992425599994,None,n,0.1613696999993408,820.992425599994,None,0.1613696999993408,,,sing45,001,2022_Sep_06_0946,ProdSingRedoBetween,2021.2.3,59.92437543962602,
,,,,112,0,112,0,,,,,,,,,,,,,,,,,,,,,,826.7963900000032,None,,,,,,,,,,,,,,,,,master,40,113,sing,old,blue,821.6841910999938,None,821.6841910999938,None,4,3.1095451999863144,821.6841910999938,None,3.1095451999863144,824.8147779999999,None,825.330131499999,None,825.330131499999,None,n,1.4394280999986222,825.330131499999,None,1.4394280999986222,,,sing45,001,2022_Sep_06_0946,ProdSingRedoBetween,2021.2.3,59.92437543962602,
,,,,113,0,113,0,,,,,,,,,,,,,,,,,,,,,,831.0673310999991,None,,,,,,,,,,,,,,,,,column,84,114,sing,old,red,827.3046208000014,None,827.3046208000014,None,4,2.9131715999974404,827.3046208000014,None,2.9131715999974404,830.2339849999989,None,830.7375745000027,None,830.7375745000027,None,n,0.3042128999950364,830.7375745000027,None,0.3042128999950364,,,sing45,001,2022_Sep_06_0946,ProdSingRedoBetween,2021.2.3,59.92437543962602,
,,,,114,0,114,0,,,,,,,,,,,,,,,,,,,,,,833.5698287999985,None,,,,,,,,,,,,,,,,,service,114,115,sing,new,null,831.5699920000043,None,831.5699920000043,None,4,0.79183460000786,831.5699920000043,None,0.79183460000786,832.3876722999994,None,832.9079438999906,None,832.9079438999906,None,n,0.6459063999936916,832.9079438999906,None,0.6459063999936916,,,sing45,001,2022_Sep_06_0946,ProdSingRedoBetween,2021.2.3,59.92437543962602,
,,,,115,0,115,0,,,,,,,,,,,,,,,,,,,,,,838.1408436999918,None,,,,,,,,,,,,,,,,,oxygen,59,116,sing,old,yellow,834.0776363999903,None,834.0776363999903,None,4,0.3320423000113806,834.0776363999903,None,0.3320423000113806,834.4428271999932,None,834.9546703999949,None,834.9546703999949,None,n,3.1589303000073414,834.9546703999949,None,3.1589303000073414,,,sing45,001,2022_Sep_06_0946,ProdSingRedoBetween,2021.2.3,59.92437543962602,
,,,,116,0,116,0,,,,,,,,,,,,,,,,,,,,,,845.5342252999981,None,,,,,,,,,,,,,,,,,drink,54,117,sing,old,blue,838.6492932999972,None,838.6492932999972,None,5,3.056528899993282,838.6492932999972,None,3.056528899993282,841.7290299000015,None,842.2337786999997,None,842.2337786999997,None,n,3.271885000009206,842.2337786999997,None,3.271885000009206,,,sing45,001,2022_Sep_06_0946,ProdSingRedoBetween,2021.2.3,59.92437543962602,
,,,,117,0,117,0,,,,,,,,,,,,,,,,,,,,,,849.8694535999966,None,,,,,,,,,,,,,,,,,conference,146,118,sing,new,null,846.0498389999993,None,846.0498389999993,None,4,0.12802499999816064,846.0498389999993,None,0.12802499999816064,846.2020284000027,None,846.7217394000036,None,846.7217394000036,None,n,3.1281276999943657,846.7217394000036,None,3.1281276999943657,,,sing45,001,2022_Sep_06_0946,ProdSingRedoBetween,2021.2.3,59.92437543962602,
,,,,118,0,118,0,,,,,,,,,,,,,,,,,,,,,,854.1737006000039,None,,,,,,,,,,,,,,,,,substance,156,119,sing,new,null,850.3735968999972,None,850.3735968999972,None,4,0.5641447000089101,850.3735968999972,None,0.5641447000089101,850.9616482999991,None,851.4721469999931,None,851.4721469999931,None,n,2.6817007000063313,851.4721469999931,None,2.6817007000063313,,,sing45,001,2022_Sep_06_0946,ProdSingRedoBetween,2021.2.3,59.92437543962602,
,,,,119,0,119,0,,,,,,,,,,,,,,,,,,,,,,862.134527000002,None,,,,,,,,,,,,,,,,,bureau,18,120,sing,old,yellow,854.6845538999914,None,854.6845538999914,None,4,2.2212852999946335,854.6845538999914,None,2.2212852999946335,856.9265663999977,None,857.4329708000005,None,857.4329708000005,None,n,4.680785799995647,857.4329708000005,None,4.680785799995647,,,sing45,001,2022_Sep_06_0946,ProdSingRedoBetween,2021.2.3,59.92437543962602,
,,,,120,0,120,0,,,,,,,,,,,,,,,,,,,,,,873.0592077000038,None,,,,,,,,,,,,,,,,,power,67,121,sing,old,red,862.6575773999939,None,862.6575773999939,None,3,3.8161422000121092,862.6575773999939,None,3.8161422000121092,866.5028668000014,None,867.0030573999975,None,867.0030573999975,None,n,6.03869709999708,867.0030573999975,None,6.03869709999708,,,sing45,001,2022_Sep_06_0946,ProdSingRedoBetween,2021.2.3,59.92437543962602,
,,,,121,0,121,0,,,,,,,,,,,,,,,,,,,,,,874.4272371999978,None,,,,,,,,,,,,,,,,,swift,157,122,sing,new,null,873.5714844000031,None,873.5714844000031,None,4,0.15035440000065137,873.5714844000031,None,0.15035440000065137,873.7446181999985,None,874.2509591999988,None,874.2509591999988,None,n,0.15068769999197684,874.2509591999988,None,0.15068769999197684,,,sing45,001,2022_Sep_06_0946,ProdSingRedoBetween,2021.2.3,59.92437543962602,
,,,,122,0,122,0,,,,,,,,,,,,,,,,,,,,,,880.0016842999903,None,,,,,,,,,,,,,,,,,youth,21,123,sing,old,yellow,874.9278016000026,None,874.9278016000026,None,3,4.114128399989568,874.9278016000026,None,4.114128399989568,879.0735438999982,None,879.5865420000046,None,879.5865420000046,None,n,0.39198749999923166,879.5865420000046,None,0.39198749999923166,,,sing45,001,2022_Sep_06_0946,ProdSingRedoBetween,2021.2.3,59.92437543962602,
,,,,123,0,123,0,,,,,,,,,,,,,,,,,,,,,,883.403473600003,None,,,,,,,,,,,,,,,,,commercial,118,124,sing,new,null,880.5183285999956,None,880.5183285999956,None,4,1.8995107000082498,880.5183285999956,None,1.8995107000082498,882.4402733000024,None,882.9574176000024,None,882.9574176000024,None,n,0.42834660000517033,882.9574176000024,None,0.42834660000517033,,,sing45,001,2022_Sep_06_0946,ProdSingRedoBetween,2021.2.3,59.92437543962602,
,,,,124,0,124,0,,,,,,,,,,,,,,,,,,,,,,886.5085802999965,None,,,,,,,,,,,,,,,,,department,0,125,sing,old,yellow,883.9074753000023,None,883.9074753000023,None,4,0.2862140999932308,883.9074753000023,None,0.2862140999932308,884.2269735000009,None,884.7459624000039,None,884.7459624000039,None,n,1.735882799999672,884.7459624000039,None,1.735882799999672,,,sing45,001,2022_Sep_06_0946,ProdSingRedoBetween,2021.2.3,59.92437543962602,
,,,,125,0,125,0,,,,,,,,,,,,,,,,,,,,,,887.6573012000008,None,,,,,,,,,,,,,,,,,childhood,173,126,sing,new,null,887.028627599997,None,887.028627599997,None,4,0.053457000001799315,887.028627599997,None,0.053457000001799315,887.1179353000043,None,887.6238376999972,None,887.6238376999972,None,n,0.018012399988947436,887.6238376999972,None,0.018012399988947436,,,sing45,001,2022_Sep_06_0946,ProdSingRedoBetween,2021.2.3,59.92437543962602,
,,,,126,0,126,0,,,,,,,,,,,,,,,,,,,,,,889.9928591999924,None,,,,,,,,,,,,,,,,,write,47,127,sing,old,blue,888.1611426000018,None,888.1611426000018,None,3,0.9607919000118272,888.1611426000018,None,0.9607919000118272,889.1430336999911,None,889.6425840000011,None,889.6425840000011,None,n,0.3351323999959277,889.6425840000011,None,0.3351323999959277,,,sing45,001,2022_Sep_06_0946,ProdSingRedoBetween,2021.2.3,59.92437543962602,
,,,,127,0,127,0,,,,,,,,,,,,,,,,,,,,,,893.0792075999925,None,,,,,,,,,,,,,,,,,captain,109,128,sing,new,null,890.4932091999945,None,890.4932091999945,None,5,1.004310100004659,890.4932091999945,None,1.004310100004659,891.5319242999976,None,892.0447284999973,None,892.0447284999973,None,n,1.0050830999971367,892.0447284999973,None,1.0050830999971367,,,sing45,001,2022_Sep_06_0946,ProdSingRedoBetween,2021.2.3,59.92437543962602,
,,,,128,0,128,0,,,,,,,,,,,,,,,,,,,,,,897.8006183999969,None,,,,,,,,,,,,,,,,,solution,161,129,sing,new,null,893.5822719999996,None,893.5822719999996,None,5,1.5474609999946551,893.5822719999996,None,1.5474609999946551,895.1547144999931,None,895.665095999997,None,895.665095999997,None,n,2.1207246000121813,895.665095999997,None,2.1207246000121813,,,sing45,001,2022_Sep_06_0946,ProdSingRedoBetween,2021.2.3,59.92437543962602,
,,,,129,0,129,0,,,,,,,,,,,,,,,,,,,,,,899.658964599992,None,,,,,,,,,,,,,,,,,platform,4,130,sing,old,yellow,898.3039290000015,None,898.3039290000015,None,4,0.7779672000033315,898.3039290000015,None,0.7779672000033315,899.1053990999935,None,899.6262669999996,None,899.6262669999996,None,n,0.01572570001007989,899.6262669999996,None,0.01572570001007989,,,sing45,001,2022_Sep_06_0946,ProdSingRedoBetween,2021.2.3,59.92437543962602,
,,,,130,0,130,0,,,,,,,,,,,,,,,,,,,,,,903.1073183999979,None,,,,,,,,,,,,,,,,,corner,89,131,sing,old,red,900.1697694000031,None,900.1697694000031,None,3,1.0801494000043022,900.1697694000031,None,1.0801494000043022,901.2707467,None,901.7713395000028,None,901.7713395000028,None,n,1.318580799998017,901.7713395000028,None,1.318580799998017,,,sing45,001,2022_Sep_06_0946,ProdSingRedoBetween,2021.2.3,59.92437543962602,
,,,,131,0,131,0,,,,,,,,,,,,,,,,,,,,,,907.1933258999925,None,,,,,,,,,,,,,,,,,heavy,76,132,sing,old,red,903.6163108000037,None,903.6163108000037,None,4,2.945529599994188,903.6163108000037,None,2.945529599994188,906.5940516999981,None,907.1002597000042,None,907.1002597000042,None,n,0.07739229999424424,907.1002597000042,None,0.07739229999424424,,,sing45,001,2022_Sep_06_0946,ProdSingRedoBetween,2021.2.3,59.92437543962602,
,,,,132,0,132,0,,,,,,,,,,,,,,,,,,,,,,909.8142775000015,None,,,,,,,,,,,,,,,,,frank,29,133,sing,old,blue,907.7022642999946,None,907.7022642999946,None,3,0.06759839999722317,907.7022642999946,None,0.06759839999722317,907.7964529000019,None,908.3160402999929,None,908.3160402999929,None,n,1.4696881000127178,908.3160402999929,None,1.4696881000127178,,,sing45,001,2022_Sep_06_0946,ProdSingRedoBetween,2021.2.3,59.92437543962602,
,,,,133,0,133,0,,,,,,,,,,,,,,,,,,,,,,912.231681099991,None,,,,,,,,,,,,,,,,,equipment,122,134,sing,new,null,910.3351651999983,None,910.3351651999983,None,3,0.24281199999677483,910.3351651999983,None,0.24281199999677483,910.6043237999984,None,911.1336117000028,None,911.1336117000028,None,n,1.076301399996737,911.1336117000028,None,1.076301399996737,,,sing45,001,2022_Sep_06_0946,ProdSingRedoBetween,2021.2.3,59.92437543962602,
,,,,134,0,134,0,,,,,,,,,,,,,,,,,,,,,,914.8340731999924,None,,,,,,,,,,,,,,,,,bicycle,83,135,sing,old,red,912.736255900003,None,912.736255900003,None,2,0.04167939999024384,912.736255900003,None,0.04167939999024384,912.8068760000024,None,913.3239175999915,None,913.3239175999915,None,n,1.4937986000004457,913.3239175999915,None,1.4937986000004457,,,sing45,001,2022_Sep_06_0946,ProdSingRedoBetween,2021.2.3,59.92437543962602,
,,,,135,0,135,0,,,,,,,,,,,,,,,,,,,,,,918.1041175999999,None,,,,,,,,,,,,,,,,,mankind,131,136,sing,new,null,915.3384780999913,None,915.3384780999913,None,4,0.7352087000035681,915.3384780999913,None,0.7352087000035681,916.1049490000005,None,916.6238683999982,None,916.6238683999982,None,n,1.458008300003712,916.6238683999982,None,1.458008300003712,,,sing45,001,2022_Sep_06_0946,ProdSingRedoBetween,2021.2.3,59.92437543962602,
,,,,136,0,136,0,,,,,,,,,,,,,,,,,,,,,,919.7892532999977,None,,,,,,,,,,,,,,,,,piece,35,137,sing,old,blue,918.6119016000011,None,918.6119016000011,None,4,0.5419003999995766,918.6119016000011,None,0.5419003999995766,919.1767970999936,None,919.6900205999991,None,919.6900205999991,None,n,0.07988269999623299,919.6900205999991,None,0.07988269999623299,,,sing45,001,2022_Sep_06_0946,ProdSingRedoBetween,2021.2.3,59.92437543962602,
,,,,137,0,137,0,,,,,,,,,,,,,,,,,,,,,,922.1916283000028,None,,,,,,,,,,,,,,,,,school,32,138,sing,old,blue,920.2914211000025,None,920.2914211000025,None,5,0.24650029999611434,920.2914211000025,None,0.24650029999611434,920.5577638999966,None,921.0571213999938,None,921.0571213999938,None,n,1.1127457999973558,921.0571213999938,None,1.1127457999973558,,,sing45,001,2022_Sep_06_0946,ProdSingRedoBetween,2021.2.3,59.92437543962602,
,,,,138,0,138,0,,,,,,,,,,,,,,,,,,,,,,924.8107712999918,None,,,,,,,,,,,,,,,,,tennis,153,139,sing,new,null,922.6978075999941,None,922.6978075999941,None,2,0.1759055000002263,922.6978075999941,None,0.1759055000002263,922.8934799999988,None,923.3980583999946,None,923.3980583999946,None,n,1.3875721999938833,923.3980583999946,None,1.3875721999938833,,,sing45,001,2022_Sep_06_0946,ProdSingRedoBetween,2021.2.3,59.92437543962602,
,,,,139,0,139,0,,,,,,,,,,,,,,,,,,,,,,928.0475293999916,None,,,,,,,,,,,,,,,,,beginning,169,140,sing,new,null,925.3419991999981,None,925.3419991999981,None,4,1.2596026999963215,925.3419991999981,None,1.2596026999963215,926.631810299994,None,927.1476187999942,None,927.1476187999942,None,n,0.8782748999947216,927.1476187999942,None,0.8782748999947216,,,sing45,001,2022_Sep_06_0946,ProdSingRedoBetween,2021.2.3,59.92437543962602,
,,,,140,0,140,0,,,,,,,,,,,,,,,,,,,,,,931.7512523000041,None,,,,,,,,,,,,,,,,,cross,31,141,sing,old,blue,928.5504532999912,None,928.5504532999912,None,4,1.3873299999977462,928.5504532999912,None,1.3873299999977462,929.9720900999964,None,930.4834850999905,None,930.4834850999905,None,n,1.2463553000125103,930.4834850999905,None,1.2463553000125103,,,sing45,001,2022_Sep_06_0946,ProdSingRedoBetween,2021.2.3,59.92437543962602,
,,,,141,0,141,0,,,,,,,,,,,,,,,,,,,,,,933.9386873999902,None,,,,,,,,,,,,,,,,,cousin,27,142,sing,old,yellow,932.2519738999981,None,932.2519738999981,None,2,1.0619415000110166,932.2519738999981,None,1.0619415000110166,933.3408558999945,None,933.8546610999911,None,933.8546610999911,None,n,0.06713579999632202,933.8546610999911,None,0.06713579999632202,,,sing45,001,2022_Sep_06_0946,ProdSingRedoBetween,2021.2.3,59.92437543962602,
,,,,142,0,142,0,,,,,,,,,,,,,,,,,,,,,,936.3892741000018,None,,,,,,,,,,,,,,,,,crime,19,143,sing,old,yellow,934.4582947000017,None,934.4582947000017,None,5,1.2634208999952534,934.4582947000017,None,1.2634208999952534,935.7411752999906,None,936.2573696000036,None,936.2573696000036,None,n,0.10424919999786653,936.2573696000036,None,0.10424919999786653,,,sing45,001,2022_Sep_06_0946,ProdSingRedoBetween,2021.2.3,59.92437543962602,
,,,,143,0,143,0,,,,,,,,,,,,,,,,,,,,,,939.4421882000024,None,,,,,,,,,,,,,,,,,comfort,107,144,sing,new,null,936.8927148999937,None,936.8927148999937,None,4,1.8851238999923225,936.8927148999937,None,1.8851238999923225,938.8092509999988,None,939.3088686999981,None,939.3088686999981,None,n,0.11678670000401326,939.3088686999981,None,0.11678670000401326,,,sing45,001,2022_Sep_06_0946,ProdSingRedoBetween,2021.2.3,59.92437543962602,
,,,,144,0,144,0,,,,,,,,,,,,,,,,,,,,,,942.7289107999968,None,,,,,,,,,,,,,,,,,mayor,117,145,sing,new,null,939.9440861000039,None,939.9440861000039,None,5,1.9055987000028836,939.9440861000039,None,1.9055987000028836,941.8795951999928,None,942.3859760999912,None,942.3859760999912,None,n,0.32791930000530556,942.3859760999912,None,0.32791930000530556,,,sing45,001,2022_Sep_06_0946,ProdSingRedoBetween,2021.2.3,59.92437543962602,
,,,,145,0,145,0,,,,,,,,,,,,,,,,,,,,,,943.9635421999992,None,,,,,,,,,,,,,,,,,fashion,33,146,sing,old,blue,943.2432535999978,None,943.2432535999978,None,3,0.04669680001097731,943.2432535999978,None,0.04669680001097731,943.3130498999963,None,943.8187958999915,None,943.8187958999915,None,n,0.1269666000007419,943.8187958999915,None,0.1269666000007419,,,sing45,001,2022_Sep_06_0946,ProdSingRedoBetween,2021.2.3,59.92437543962602,
,,,,146,0,146,0,,,,,,,,,,,,,,,,,,,,,,947.5337347000022,None,,,,,,,,,,,,,,,,,military,167,147,sing,new,null,944.4716310999938,None,944.4716310999938,None,5,0.9141379999928176,944.4716310999938,None,0.9141379999928176,945.4166532999952,None,945.933864599996,None,945.933864599996,None,n,1.571769400004996,945.933864599996,None,1.571769400004996,,,sing45,001,2022_Sep_06_0946,ProdSingRedoBetween,2021.2.3,59.92437543962602,
,,,,147,0,147,0,,,,,,,,,,,,,,,,,,,,,,950.0363201,None,,,,,,,,,,,,,,,,,death,16,148,sing,old,yellow,948.0402177999931,None,948.0402177999931,None,4,0.6896921000006841,948.0402177999931,None,0.6896921000006841,948.7524828000023,None,949.2578244000033,None,949.2578244000033,None,n,0.7517157999973278,949.2578244000033,None,0.7517157999973278,,,sing45,001,2022_Sep_06_0946,ProdSingRedoBetween,2021.2.3,59.92437543962602,
,,,,148,0,148,0,,,,,,,,,,,,,,,,,,,,,,955.0244908000022,None,,,,,,,,,,,,,,,,,shear,179,149,sing,new,null,950.5398843000003,None,950.5398843000003,None,3,2.8539036000001943,950.5398843000003,None,2.8539036000001943,953.4422018999903,None,953.9568876999983,None,953.9568876999983,None,n,1.0369039000070188,953.9568876999983,None,1.0369039000070188,,,sing45,001,2022_Sep_06_0946,ProdSingRedoBetween,2021.2.3,59.92437543962602,
,,,,149,0,149,0,,,,,,,,,,,,,,,,,,,,,,963.6330529999977,None,,,,,,,,,,,,,,,,,error,41,150,sing,old,blue,955.5270276999945,None,955.5270276999945,None,4,3.7388345999934245,955.5270276999945,None,3.7388345999934245,959.2955218999996,None,959.8032613999967,None,959.8032613999967,None,n,3.814598600001773,959.8032613999967,None,3.814598600001773,,,sing45,001,2022_Sep_06_0946,ProdSingRedoBetween,2021.2.3,59.92437543962602,
,,,,150,0,150,0,,,,,,,,,,,,,,,,,,,,,,966.0689163999923,None,,,,,,,,,,,,,,,,,report,28,151,sing,old,yellow,964.1412498999998,None,964.1412498999998,None,4,0.05259910000313539,964.1412498999998,None,0.05259910000313539,964.2169026999909,None,964.7174300000042,None,964.7174300000042,None,n,1.3242344000027515,964.7174300000042,None,1.3242344000027515,,,sing45,001,2022_Sep_06_0946,ProdSingRedoBetween,2021.2.3,59.92437543962602,
,,,,151,0,151,0,,,,,,,,,,,,,,,,,,,,,,970.1062219000014,None,,,,,,,,,,,,,,,,,emergency,49,152,sing,old,blue,966.5694798999903,None,966.5694798999903,None,4,1.2563918999949237,966.5694798999903,None,1.2563918999949237,967.8610866999952,None,968.3758974999946,None,968.3758974999946,None,n,1.713784299994586,968.3758974999946,None,1.713784299994586,,,sing45,001,2022_Sep_06_0946,ProdSingRedoBetween,2021.2.3,59.92437543962602,
,,,,152,0,152,0,,,,,,,,,,,,,,,,,,,,,,972.5754214999906,None,,,,,,,,,,,,,,,,,health,69,153,sing,old,red,970.618015,None,970.618015,None,4,0.21593249999568798,970.618015,None,0.21593249999568798,970.8635240000003,None,971.374270100001,None,971.374270100001,None,n,1.1716126999963308,971.374270100001,None,1.1716126999963308,,,sing45,001,2022_Sep_06_0946,ProdSingRedoBetween,2021.2.3,59.92437543962602,
,,,,153,0,153,0,,,,,,,,,,,,,,,,,,,,,,974.3605742999935,None,,,,,,,,,,,,,,,,,match,168,154,sing,new,null,973.080180799996,None,973.080180799996,None,2,0.2977160000009462,973.080180799996,None,0.2977160000009462,973.3939031000045,None,973.8934929999959,None,973.8934929999959,None,n,0.44438739999895915,973.8934929999959,None,0.44438739999895915,,,sing45,001,2022_Sep_06_0946,ProdSingRedoBetween,2021.2.3,59.92437543962602,
,,,,154,0,154,0,,,,,,,,,,,,,,,,,,,,,,976.8629803999938,None,,,,,,,,,,,,,,,,,treatment,57,155,sing,old,blue,974.868166699991,None,974.868166699991,None,4,0.07770400001027156,974.868166699991,None,0.07770400001027156,974.9631999999983,None,975.4784484999982,None,975.4784484999982,None,n,1.3634840000013355,975.4784484999982,None,1.3634840000013355,,,sing45,001,2022_Sep_06_0946,ProdSingRedoBetween,2021.2.3,59.92437543962602,
,,,,155,0,155,0,,,,,,,,,,,,,,,,,,,,,,980.2330931000033,None,,,,,,,,,,,,,,,,,interior,105,156,sing,new,null,977.3653276999976,None,977.3653276999976,None,4,1.5004467999970075,977.3653276999976,None,1.5004467999970075,978.8816440999944,None,979.3896806999983,None,979.3896806999983,None,n,0.8121016999939457,979.3896806999983,None,0.8121016999939457,,,sing45,001,2022_Sep_06_0946,ProdSingRedoBetween,2021.2.3,59.92437543962602,
,,,,156,0,156,0,,,,,,,,,,,,,,,,,,,,,,982.1515558999963,None,,,,,,,,,,,,,,,,,straight,121,157,sing,new,null,980.7490248999966,None,980.7490248999966,None,3,0.05280040000798181,980.7490248999966,None,0.05280040000798181,980.8168126999954,None,981.3175162999978,None,981.3175162999978,None,n,0.8040792999963742,981.3175162999978,None,0.8040792999963742,,,sing45,001,2022_Sep_06_0946,ProdSingRedoBetween,2021.2.3,59.92437543962602,
,,,,157,0,157,0,,,,,,,,,,,,,,,,,,,,,,985.4085555999918,None,,,,,,,,,,,,,,,,,scene,65,158,sing,old,red,982.6591007999959,None,982.6591007999959,None,3,1.990779100000509,982.6591007999959,None,1.990779100000509,984.6719425999909,None,985.1712540000008,None,985.1712540000008,None,n,0.20632459998887498,985.1712540000008,None,0.20632459998887498,,,sing45,001,2022_Sep_06_0946,ProdSingRedoBetween,2021.2.3,59.92437543962602,
,,,,158,0,158,0,,,,,,,,,,,,,,,,,,,,,,989.7446258999989,None,,,,,,,,,,,,,,,,,generation,103,159,sing,new,null,985.922742900002,None,985.922742900002,None,5,0.9670261999999639,985.922742900002,None,0.9670261999999639,986.909011900003,None,987.427609099992,None,987.427609099992,None,n,2.294243500000448,987.427609099992,None,2.294243500000448,,,sing45,001,2022_Sep_06_0946,ProdSingRedoBetween,2021.2.3,59.92437543962602,
,,,,159,0,159,0,,,,,,,,,,,,,,,,,,,,,,993.2460889999929,None,,,,,,,,,,,,,,,,,answer,165,160,sing,new,null,990.2651983999967,None,990.2651983999967,None,6,1.08876600000076,990.2651983999967,None,1.08876600000076,991.3823902000004,None,991.8948556999967,None,991.8948556999967,None,n,1.3227851999981795,991.8948556999967,None,1.3227851999981795,,,sing45,001,2022_Sep_06_0946,ProdSingRedoBetween,2021.2.3,59.92437543962602,
,,,,160,0,160,0,,,,,,,,,,,,,,,,,,,,,,997.8839082999912,None,,,,,,,,,,,,,,,,,weather,82,161,sing,old,red,993.7476399000006,None,993.7476399000006,None,4,3.4860659999976633,993.7476399000006,None,3.4860659999976633,997.2527848000027,None,997.771814199994,None,997.771814199994,None,n,0.08580089999304619,997.771814199994,None,0.08580089999304619,,,sing45,001,2022_Sep_06_0946,ProdSingRedoBetween,2021.2.3,59.92437543962602,
,,,,161,0,161,0,,,,,,,,,,,,,,,,,,,,,,999.7692663999915,None,,,,,,,,,,,,,,,,,height,178,162,sing,new,null,998.3901487999974,None,998.3901487999974,None,4,0.6995775999967009,998.3901487999974,None,0.6995775999967009,999.1186175000039,None,999.6191967999912,None,999.6191967999912,None,n,0.12672030000248924,999.6191967999912,None,0.12672030000248924,,,sing45,001,2022_Sep_06_0946,ProdSingRedoBetween,2021.2.3,59.92437543962602,
,,,,162,0,162,0,,,,,,,,,,,,,,,,,,,,,,1001.5376374000043,None,,,,,,,,,,,,,,,,,candidate,13,163,sing,old,yellow,1000.2723584999912,None,1000.2723584999912,None,4,0.5775960000028135,1000.2723584999912,None,0.5775960000028135,1000.8731221999915,None,1001.3876676999935,None,1001.3876676999935,None,n,0.13415319999330677,1001.3876676999935,None,0.13415319999330677,,,sing45,001,2022_Sep_06_0946,ProdSingRedoBetween,2021.2.3,59.92437543962602,
,,,,163,0,163,0,,,,,,,,,,,,,,,,,,,,,,1003.5063756000018,None,,,,,,,,,,,,,,,,,property,10,164,sing,old,yellow,1002.0471579000005,None,1002.0471579000005,None,4,0.6347431000031065,1002.0471579000005,None,0.6347431000031065,1002.7076281999907,None,1003.2285061000002,None,1003.2285061000002,None,n,0.2533685999951558,1003.2285061000002,None,0.2533685999951558,,,sing45,001,2022_Sep_06_0946,ProdSingRedoBetween,2021.2.3,59.92437543962602,
,,,,164,0,164,0,,,,,,,,,,,,,,,,,,,,,,1005.076492799999,None,,,,,,,,,,,,,,,,,article,99,165,sing,new,null,1004.015903099993,None,1004.015903099993,None,4,0.08189529999799561,1004.015903099993,None,0.08189529999799561,1004.1276291999966,None,1004.6452977000008,None,1004.6452977000008,None,n,0.404615699997521,1004.6452977000008,None,0.404615699997521,,,sing45,001,2022_Sep_06_0946,ProdSingRedoBetween,2021.2.3,59.92437543962602,
,,,,165,0,165,0,,,,,,,,,,,,,,,,,,,,,,1008.9950489000039,None,,,,,,,,,,,,,,,,,clear,111,166,sing,new,null,1005.5922682999953,None,1005.5922682999953,None,4,0.3215928999998141,1005.5922682999953,None,0.3215928999998141,1005.9443173000036,None,1006.4593831999955,None,1006.4593831999955,None,n,2.5105124000110663,1006.4593831999955,None,2.5105124000110663,,,sing45,001,2022_Sep_06_0946,ProdSingRedoBetween,2021.2.3,59.92437543962602,
,,,,166,0,166,0,,,,,,,,,,,,,,,,,,,,,,1012.3650131000031,None,,,,,,,,,,,,,,,,,disease,75,167,sing,old,red,1009.5080921999906,None,1009.5080921999906,None,4,1.2377474999957485,1009.5080921999906,None,1.2377474999957485,1010.7693890999944,None,1011.280858099999,None,1011.280858099999,None,n,1.0651104999997187,1011.280858099999,None,1.0651104999997187,,,sing45,001,2022_Sep_06_0946,ProdSingRedoBetween,2021.2.3,59.92437543962602,
,,,,167,0,167,0,,,,,,,,,,,,,,,,,,,,,,1014.2680021999986,None,,,,,,,,,,,,,,,,,engineer,128,168,sing,new,null,1012.878661900002,None,1012.878661900002,None,4,0.45121369999833405,1012.878661900002,None,0.45121369999833405,1013.3512126999995,None,1013.8709374000027,None,1013.8709374000027,None,n,0.3789099999994505,1013.8709374000027,None,0.3789099999994505,,,sing45,001,2022_Sep_06_0946,ProdSingRedoBetween,2021.2.3,59.92437543962602,
,,,,168,0,168,0,,,,,,,,,,,,,,,,,,,,,,1015.9533000999945,None,,,,,,,,,,,,,,,,,blind,87,169,sing,old,red,1014.7694622999988,None,1014.7694622999988,None,4,0.5601447999943048,1014.7694622999988,None,0.5601447999943048,1015.3559611999954,None,1015.8684704999905,None,1015.8684704999905,None,n,0.05316359999414999,1015.8684704999905,None,0.05316359999414999,,,sing45,001,2022_Sep_06_0946,ProdSingRedoBetween,2021.2.3,59.92437543962602,
,,,,169,0,169,0,,,,,,,,,,,,,,,,,,,,,,1018.7250958999939,None,,,,,,,,,,,,,,,,,minute,144,170,sing,new,null,1016.4624863999925,None,1016.4624863999925,None,4,1.2514869000006001,1016.4624863999925,None,1.2514869000006001,1017.7386275000026,None,1018.249149700001,None,1018.249149700001,None,n,0.44879860000219196,1018.249149700001,None,0.44879860000219196,,,sing45,001,2022_Sep_06_0946,ProdSingRedoBetween,2021.2.3,59.92437543962602,
,,,,170,0,170,0,,,,,,,,,,,,,,,,,,,,,,1022.6754227999918,None,,,,,,,,,,,,,,,,,executive,14,171,sing,old,yellow,1019.245390600001,None,1019.245390600001,None,6,0.020222799998009577,1019.245390600001,None,0.020222799998009577,1019.2904031999933,None,1019.809491299995,None,1019.809491299995,None,n,2.8404363000008743,1019.809491299995,None,2.8404363000008743,,,sing45,001,2022_Sep_06_0946,ProdSingRedoBetween,2021.2.3,59.92437543962602,
,,,,171,0,171,0,,,,,,,,,,,,,,,,,,,,,,1025.361302099991,None,,,,,,,,,,,,,,,,,edition,101,172,sing,new,null,1023.1920283999934,None,1023.1920283999934,None,4,1.3298725999920862,1023.1920283999934,None,1.3298725999920862,1024.5437550999923,None,1025.0497097999905,None,1025.0497097999905,None,n,0.27997279999544844,1025.0497097999905,None,0.27997279999544844,,,sing45,001,2022_Sep_06_0946,ProdSingRedoBetween,2021.2.3,59.92437543962602,
,,,,172,0,172,0,,,,,,,,,,,,,,,,,,,,,,1027.5478915999993,None,,,,,,,,,,,,,,,,,leader,25,173,sing,old,yellow,1025.864003900002,None,1025.864003900002,None,5,1.0419949000061024,1025.864003900002,None,1.0419949000061024,1026.933077099995,None,1027.4508012000006,None,1027.4508012000006,None,n,0.07905650000611786,1027.4508012000006,None,0.07905650000611786,,,sing45,001,2022_Sep_06_0946,ProdSingRedoBetween,2021.2.3,59.92437543962602,
,,,,173,0,173,0,,,,,,,,,,,,,,,,,,,,,,1028.7152934000042,None,,,,,,,,,,,,,,,,,discussion,134,174,sing,new,null,1028.0536642999941,None,1028.0536642999941,None,3,0.10839619999751449,1028.0536642999941,None,0.10839619999751449,1028.1818750999955,None,1028.684645100002,None,1028.684645100002,None,n,0.013250000003608875,1028.684645100002,None,0.013250000003608875,,,sing45,001,2022_Sep_06_0946,ProdSingRedoBetween,2021.2.3,59.92437543962602,
,,,,174,0,174,0,,,,,,,,,,,,,,,,,,,,,,1031.5343597000028,None,,,,,,,,,,,,,,,,,clean,73,175,sing,old,red,1029.2233681999933,None,1029.2233681999933,None,3,0.9063987999979872,1029.2233681999933,None,0.9063987999979872,1030.1530749999947,None,1030.666937499991,None,1030.666937499991,None,n,0.838776799995685,1030.666937499991,None,0.838776799995685,,,sing45,001,2022_Sep_06_0946,ProdSingRedoBetween,2021.2.3,59.92437543962602,
,,,,175,0,175,0,,,,,,,,,,,,,,,,,,,,,,1033.7196509999922,None,,,,,,,,,,,,,,,,,motion,115,176,sing,new,null,1032.042408399997,None,1032.042408399997,None,4,0.8954400999937207,1032.042408399997,None,0.8954400999937207,1032.9697222999966,None,1033.4710433,None,1033.4710433,None,n,0.2268634999927599,1033.4710433,None,0.2268634999927599,,,sing45,001,2022_Sep_06_0946,ProdSingRedoBetween,2021.2.3,59.92437543962602,
,,,,176,0,176,0,,,,,,,,,,,,,,,,,,,,,,1034.9210087999963,None,,,,,,,,,,,,,,,,,graduate,37,177,sing,old,blue,1034.2203693000047,None,1034.2203693000047,None,5,0.1252204000047641,1034.2203693000047,None,0.1252204000047641,1034.3711578999937,None,1034.8759981999901,None,1034.8759981999901,None,n,0.0299797000043327,1034.8759981999901,None,0.0299797000043327,,,sing45,001,2022_Sep_06_0946,ProdSingRedoBetween,2021.2.3,59.92437543962602,
,,,,177,0,177,0,,,,,,,,,,,,,,,,,,,,,,1036.7394814,None,,,,,,,,,,,,,,,,,working,52,178,sing,old,blue,1035.4277789000043,None,1035.4277789000043,None,6,0.6221402999944985,1035.4277789000043,None,0.6221402999944985,1036.0746681000019,None,1036.5895170000003,None,1036.5895170000003,None,n,0.13225400001101661,1036.5895170000003,None,0.13225400001101661,,,sing45,001,2022_Sep_06_0946,ProdSingRedoBetween,2021.2.3,59.92437543962602,
,,,,178,0,178,0,,,,,,,,,,,,,,,,,,,,,,1038.5914169000025,None,,,,,,,,,,,,,,,,,citizen,155,179,sing,new,null,1037.2508197999996,None,1037.2508197999996,None,5,0.7270561999903293,1037.2508197999996,None,0.7270561999903293,1038.007396400004,None,1038.5130185000016,None,1038.5130185000016,None,n,0.04893119999906048,1038.5130185000016,None,0.04893119999906048,,,sing45,001,2022_Sep_06_0946,ProdSingRedoBetween,2021.2.3,59.92437543962602,
