StudyLoop.thisRepN,StudyLoop.thisTrialN,StudyLoop.thisN,StudyLoop.thisIndex,TestLoop.thisRepN,TestLoop.thisTrialN,TestLoop.thisN,TestLoop.thisIndex,textCondition.started,textCondition.stopped,keyCondition.keys,keyCondition.rt,keyCondition.started,keyCondition.stopped,Condition,textWelcome.started,textWelcome.stopped,keyWelcome.keys,keyWelcome.rt,keyWelcome.started,keyWelcome.stopped,textAloud.started,textAloud.stopped,textSilent.started,textSilent.stopped,textSing.started,textSing.stopped,conditional_text.started,conditional_text.stopped,textBlank500.started,textBlank500.stopped,study_word,study_num,study_order,study_type,word_color,textStudy.started,textStudy.stopped,keyStudy.keys,keyStudy.started,keyStudy.stopped,textTestInstructions.started,textTestInstructions.stopped,key_resp_3.keys,key_resp_3.rt,key_resp_3.started,key_resp_3.stopped,test_word,test_num,test_order,test_condition,old_new_test,test_word_original_color,textConf.started,textConf.stopped,textConfScale.started,textConfScale.stopped,keyConf.keys,keyConf.rt,keyConf.started,keyConf.stopped,confidence response time,textTestBlank.started,textTestBlank.stopped,textRKN.started,textRKN.stopped,textRKNScale.started,textRKNScale.stopped,keyRKN.keys,keyRKN.rt,keyRKN.started,keyRKN.stopped,rkn response time,textEnd.started,textEnd.stopped,participant,session,date,expName,psychopyVersion,frameRate,
,,,,,,,,29.827020900000207,None,c,4.139281399999163,29.827020900000207,None,,,,,,,,,,,,,,,,,,,,,,,,,,,,,,,,,,,,,,,,,,,,,,,,,,,,,,,,,,,,,,sing9,001,2022_Aug_02_1422,ProdSingRedoBetween,2021.2.3,60.007116844327655,
,,,,,,,,,,,,,,SingTest,34.048469999999725,None,space,101.83757979999973,34.048469999999725,None,,,,,,,,,,,,,,,,,,,,,,,,,,,,,,,,,,,,,,,,,,,,,,,,,,,,,,,sing9,001,2022_Aug_02_1422,ProdSingRedoBetween,2021.2.3,60.007116844327655,
0,0,0,0,,,,,,,,,,,,,,,,,,34.048469999999725,None,34.048469999999725,None,34.048469999999725,None,34.048469999999725,None,138.42392610000024,None,research,35,1,sing,blue,136.42201999999997,None,None,136.42201999999997,None,,,,,,,,,,,,,,,,,,,,,,,,,,,,,,,,,,,sing9,001,2022_Aug_02_1422,ProdSingRedoBetween,2021.2.3,60.007116844327655,
1,0,1,0,,,,,,,,,,,,,,,,,,,,,,,,,,140.92645769999945,None,health,87,2,sing,red,138.9273702999999,None,None,138.9273702999999,None,,,,,,,,,,,,,,,,,,,,,,,,,,,,,,,,,,,sing9,001,2022_Aug_02_1422,ProdSingRedoBetween,2021.2.3,60.007116844327655,
2,0,2,0,,,,,,,,,,,,,,,,,,,,,,,,,,143.4289491999989,None,edition,40,3,sing,blue,141.42805380000027,None,None,141.42805380000027,None,,,,,,,,,,,,,,,,,,,,,,,,,,,,,,,,,,,sing9,001,2022_Aug_02_1422,ProdSingRedoBetween,2021.2.3,60.007116844327655,
3,0,3,0,,,,,,,,,,,,,,,,,,,,,,,,,,145.94817349999903,None,broke,47,4,sing,blue,143.93359280000004,None,None,143.93359280000004,None,,,,,,,,,,,,,,,,,,,,,,,,,,,,,,,,,,,sing9,001,2022_Aug_02_1422,ProdSingRedoBetween,2021.2.3,60.007116844327655,
4,0,4,0,,,,,,,,,,,,,,,,,,,,,,,,,,148.46732849999898,None,trash,25,5,sing,yellow,146.45804839999983,None,None,146.45804839999983,None,,,,,,,,,,,,,,,,,,,,,,,,,,,,,,,,,,,sing9,001,2022_Aug_02_1422,ProdSingRedoBetween,2021.2.3,60.007116844327655,
5,0,5,0,,,,,,,,,,,,,,,,,,,,,,,,,,150.9696372999988,None,century,71,6,sing,red,148.96775999999954,None,None,148.96775999999954,None,,,,,,,,,,,,,,,,,,,,,,,,,,,,,,,,,,,sing9,001,2022_Aug_02_1422,ProdSingRedoBetween,2021.2.3,60.007116844327655,
6,0,6,0,,,,,,,,,,,,,,,,,,,,,,,,,,153.47236209999937,None,direction,65,7,sing,red,151.47136769999997,None,None,151.47136769999997,None,,,,,,,,,,,,,,,,,,,,,,,,,,,,,,,,,,,sing9,001,2022_Aug_02_1422,ProdSingRedoBetween,2021.2.3,60.007116844327655,
7,0,7,0,,,,,,,,,,,,,,,,,,,,,,,,,,155.9914891999997,None,listen,83,8,sing,red,153.97712189999947,None,None,153.97712189999947,None,,,,,,,,,,,,,,,,,,,,,,,,,,,,,,,,,,,sing9,001,2022_Aug_02_1422,ProdSingRedoBetween,2021.2.3,60.007116844327655,
8,0,8,0,,,,,,,,,,,,,,,,,,,,,,,,,,158.510792699999,None,reading,7,9,sing,yellow,156.4952994999985,None,None,156.4952994999985,None,,,,,,,,,,,,,,,,,,,,,,,,,,,,,,,,,,,sing9,001,2022_Aug_02_1422,ProdSingRedoBetween,2021.2.3,60.007116844327655,
9,0,9,0,,,,,,,,,,,,,,,,,,,,,,,,,,161.02989530000013,None,gesture,38,10,sing,blue,159.02054549999957,None,None,159.02054549999957,None,,,,,,,,,,,,,,,,,,,,,,,,,,,,,,,,,,,sing9,001,2022_Aug_02_1422,ProdSingRedoBetween,2021.2.3,60.007116844327655,
10,0,10,0,,,,,,,,,,,,,,,,,,,,,,,,,,163.53242359999967,None,judge,8,11,sing,yellow,161.53039549999994,None,None,161.53039549999994,None,,,,,,,,,,,,,,,,,,,,,,,,,,,,,,,,,,,sing9,001,2022_Aug_02_1422,ProdSingRedoBetween,2021.2.3,60.007116844327655,
11,0,11,0,,,,,,,,,,,,,,,,,,,,,,,,,,166.0516091999998,None,salary,76,12,sing,red,164.03667440000027,None,None,164.03667440000027,None,,,,,,,,,,,,,,,,,,,,,,,,,,,,,,,,,,,sing9,001,2022_Aug_02_1422,ProdSingRedoBetween,2021.2.3,60.007116844327655,
12,0,12,0,,,,,,,,,,,,,,,,,,,,,,,,,,168.5706098999999,None,victory,88,13,sing,red,166.55684959999962,None,None,166.55684959999962,None,,,,,,,,,,,,,,,,,,,,,,,,,,,,,,,,,,,sing9,001,2022_Aug_02_1422,ProdSingRedoBetween,2021.2.3,60.007116844327655,
13,0,13,0,,,,,,,,,,,,,,,,,,,,,,,,,,171.08988559999852,None,partner,64,14,sing,red,169.0754390000002,None,None,169.0754390000002,None,,,,,,,,,,,,,,,,,,,,,,,,,,,,,,,,,,,sing9,001,2022_Aug_02_1422,ProdSingRedoBetween,2021.2.3,60.007116844327655,
14,0,14,0,,,,,,,,,,,,,,,,,,,,,,,,,,173.59244969999963,None,turkey,55,15,sing,blue,171.5916914999998,None,None,171.5916914999998,None,,,,,,,,,,,,,,,,,,,,,,,,,,,,,,,,,,,sing9,001,2022_Aug_02_1422,ProdSingRedoBetween,2021.2.3,60.007116844327655,
15,0,15,0,,,,,,,,,,,,,,,,,,,,,,,,,,176.09493739999925,None,nation,37,16,sing,blue,174.09476059999906,None,None,174.09476059999906,None,,,,,,,,,,,,,,,,,,,,,,,,,,,,,,,,,,,sing9,001,2022_Aug_02_1422,ProdSingRedoBetween,2021.2.3,60.007116844327655,
16,0,16,0,,,,,,,,,,,,,,,,,,,,,,,,,,178.5974624999999,None,fashion,17,17,sing,yellow,176.59838560000026,None,None,176.59838560000026,None,,,,,,,,,,,,,,,,,,,,,,,,,,,,,,,,,,,sing9,001,2022_Aug_02_1422,ProdSingRedoBetween,2021.2.3,60.007116844327655,
17,0,17,0,,,,,,,,,,,,,,,,,,,,,,,,,,181.10008899999957,None,style,73,18,sing,red,179.10017569999945,None,None,179.10017569999945,None,,,,,,,,,,,,,,,,,,,,,,,,,,,,,,,,,,,sing9,001,2022_Aug_02_1422,ProdSingRedoBetween,2021.2.3,60.007116844327655,
18,0,18,0,,,,,,,,,,,,,,,,,,,,,,,,,,183.60239449999972,None,balance,21,19,sing,yellow,181.60046169999987,None,None,181.60046169999987,None,,,,,,,,,,,,,,,,,,,,,,,,,,,,,,,,,,,sing9,001,2022_Aug_02_1422,ProdSingRedoBetween,2021.2.3,60.007116844327655,
19,0,19,0,,,,,,,,,,,,,,,,,,,,,,,,,,186.10487499999908,None,drink,81,20,sing,red,184.1057181999986,None,None,184.1057181999986,None,,,,,,,,,,,,,,,,,,,,,,,,,,,,,,,,,,,sing9,001,2022_Aug_02_1422,ProdSingRedoBetween,2021.2.3,60.007116844327655,
20,0,20,0,,,,,,,,,,,,,,,,,,,,,,,,,,188.62403319999976,None,article,6,21,sing,yellow,186.6095932999997,None,None,186.6095932999997,None,,,,,,,,,,,,,,,,,,,,,,,,,,,,,,,,,,,sing9,001,2022_Aug_02_1422,ProdSingRedoBetween,2021.2.3,60.007116844327655,
21,0,21,0,,,,,,,,,,,,,,,,,,,,,,,,,,191.12662420000015,None,straight,23,22,sing,yellow,189.12466369999856,None,None,189.12466369999856,None,,,,,,,,,,,,,,,,,,,,,,,,,,,,,,,,,,,sing9,001,2022_Aug_02_1422,ProdSingRedoBetween,2021.2.3,60.007116844327655,
22,0,22,0,,,,,,,,,,,,,,,,,,,,,,,,,,193.62921800000004,None,minute,9,23,sing,yellow,191.62708569999995,None,None,191.62708569999995,None,,,,,,,,,,,,,,,,,,,,,,,,,,,,,,,,,,,sing9,001,2022_Aug_02_1422,ProdSingRedoBetween,2021.2.3,60.007116844327655,
23,0,23,0,,,,,,,,,,,,,,,,,,,,,,,,,,196.13156999999956,None,range,43,24,sing,blue,194.1317393999998,None,None,194.1317393999998,None,,,,,,,,,,,,,,,,,,,,,,,,,,,,,,,,,,,sing9,001,2022_Aug_02_1422,ProdSingRedoBetween,2021.2.3,60.007116844327655,
24,0,24,0,,,,,,,,,,,,,,,,,,,,,,,,,,198.63406229999964,None,poetry,69,25,sing,red,196.63217689999874,None,None,196.63217689999874,None,,,,,,,,,,,,,,,,,,,,,,,,,,,,,,,,,,,sing9,001,2022_Aug_02_1422,ProdSingRedoBetween,2021.2.3,60.007116844327655,
25,0,25,0,,,,,,,,,,,,,,,,,,,,,,,,,,201.15329519999977,None,afternoon,28,26,sing,yellow,199.13915329999872,None,None,199.13915329999872,None,,,,,,,,,,,,,,,,,,,,,,,,,,,,,,,,,,,sing9,001,2022_Aug_02_1422,ProdSingRedoBetween,2021.2.3,60.007116844327655,
26,0,26,0,,,,,,,,,,,,,,,,,,,,,,,,,,203.67258439999932,None,clear,84,27,sing,red,201.65952949999883,None,None,201.65952949999883,None,,,,,,,,,,,,,,,,,,,,,,,,,,,,,,,,,,,sing9,001,2022_Aug_02_1422,ProdSingRedoBetween,2021.2.3,60.007116844327655,
27,0,27,0,,,,,,,,,,,,,,,,,,,,,,,,,,206.17518989999917,None,territory,16,28,sing,yellow,204.17298929999924,None,None,204.17298929999924,None,,,,,,,,,,,,,,,,,,,,,,,,,,,,,,,,,,,sing9,001,2022_Aug_02_1422,ProdSingRedoBetween,2021.2.3,60.007116844327655,
28,0,28,0,,,,,,,,,,,,,,,,,,,,,,,,,,208.67759389999992,None,number,36,29,sing,blue,206.67566679999982,None,None,206.67566679999982,None,,,,,,,,,,,,,,,,,,,,,,,,,,,,,,,,,,,sing9,001,2022_Aug_02_1422,ProdSingRedoBetween,2021.2.3,60.007116844327655,
29,0,29,0,,,,,,,,,,,,,,,,,,,,,,,,,,211.19664179999927,None,pattern,75,30,sing,red,209.1814005999986,None,None,209.1814005999986,None,,,,,,,,,,,,,,,,,,,,,,,,,,,,,,,,,,,sing9,001,2022_Aug_02_1422,ProdSingRedoBetween,2021.2.3,60.007116844327655,
30,0,30,0,,,,,,,,,,,,,,,,,,,,,,,,,,213.71581629999855,None,quantity,60,31,sing,red,211.7073565999999,None,None,211.7073565999999,None,,,,,,,,,,,,,,,,,,,,,,,,,,,,,,,,,,,sing9,001,2022_Aug_02_1422,ProdSingRedoBetween,2021.2.3,60.007116844327655,
31,0,31,0,,,,,,,,,,,,,,,,,,,,,,,,,,216.21830979999868,None,running,18,32,sing,yellow,214.2163940999999,None,None,214.2163940999999,None,,,,,,,,,,,,,,,,,,,,,,,,,,,,,,,,,,,sing9,001,2022_Aug_02_1422,ProdSingRedoBetween,2021.2.3,60.007116844327655,
32,0,32,0,,,,,,,,,,,,,,,,,,,,,,,,,,218.73747849999927,None,executive,31,33,sing,blue,216.72346209999887,None,None,216.72346209999887,None,,,,,,,,,,,,,,,,,,,,,,,,,,,,,,,,,,,sing9,001,2022_Aug_02_1422,ProdSingRedoBetween,2021.2.3,60.007116844327655,
33,0,33,0,,,,,,,,,,,,,,,,,,,,,,,,,,221.24018739999883,None,threat,42,34,sing,blue,219.24101159999918,None,None,219.24101159999918,None,,,,,,,,,,,,,,,,,,,,,,,,,,,,,,,,,,,sing9,001,2022_Aug_02_1422,ProdSingRedoBetween,2021.2.3,60.007116844327655,
34,0,34,0,,,,,,,,,,,,,,,,,,,,,,,,,,223.74255660000017,None,division,53,35,sing,blue,221.74354049999965,None,None,221.74354049999965,None,,,,,,,,,,,,,,,,,,,,,,,,,,,,,,,,,,,sing9,001,2022_Aug_02_1422,ProdSingRedoBetween,2021.2.3,60.007116844327655,
35,0,35,0,,,,,,,,,,,,,,,,,,,,,,,,,,226.24507159999848,None,platform,52,36,sing,blue,224.2431015000002,None,None,224.2431015000002,None,,,,,,,,,,,,,,,,,,,,,,,,,,,,,,,,,,,sing9,001,2022_Aug_02_1422,ProdSingRedoBetween,2021.2.3,60.007116844327655,
36,0,36,0,,,,,,,,,,,,,,,,,,,,,,,,,,228.76428619999933,None,country,56,37,sing,blue,226.75633639999978,None,None,226.75633639999978,None,,,,,,,,,,,,,,,,,,,,,,,,,,,,,,,,,,,sing9,001,2022_Aug_02_1422,ProdSingRedoBetween,2021.2.3,60.007116844327655,
37,0,37,0,,,,,,,,,,,,,,,,,,,,,,,,,,231.26683239999875,None,little,86,38,sing,red,229.26651539999875,None,None,229.26651539999875,None,,,,,,,,,,,,,,,,,,,,,,,,,,,,,,,,,,,sing9,001,2022_Aug_02_1422,ProdSingRedoBetween,2021.2.3,60.007116844327655,
38,0,38,0,,,,,,,,,,,,,,,,,,,,,,,,,,233.76932849999866,None,death,85,39,sing,red,231.7680789999995,None,None,231.7680789999995,None,,,,,,,,,,,,,,,,,,,,,,,,,,,,,,,,,,,sing9,001,2022_Aug_02_1422,ProdSingRedoBetween,2021.2.3,60.007116844327655,
39,0,39,0,,,,,,,,,,,,,,,,,,,,,,,,,,236.28853030000028,None,scene,66,40,sing,red,234.2736831000002,None,None,234.2736831000002,None,,,,,,,,,,,,,,,,,,,,,,,,,,,,,,,,,,,sing9,001,2022_Aug_02_1422,ProdSingRedoBetween,2021.2.3,60.007116844327655,
40,0,40,0,,,,,,,,,,,,,,,,,,,,,,,,,,238.7909579999996,None,instrument,44,41,sing,blue,236.79132459999892,None,None,236.79132459999892,None,,,,,,,,,,,,,,,,,,,,,,,,,,,,,,,,,,,sing9,001,2022_Aug_02_1422,ProdSingRedoBetween,2021.2.3,60.007116844327655,
41,0,41,0,,,,,,,,,,,,,,,,,,,,,,,,,,241.31026310000016,None,religion,24,42,sing,yellow,239.31396929999937,None,None,239.31396929999937,None,,,,,,,,,,,,,,,,,,,,,,,,,,,,,,,,,,,sing9,001,2022_Aug_02_1422,ProdSingRedoBetween,2021.2.3,60.007116844327655,
42,0,42,0,,,,,,,,,,,,,,,,,,,,,,,,,,243.81267399999888,None,candidate,58,43,sing,blue,241.8110746000002,None,None,241.8110746000002,None,,,,,,,,,,,,,,,,,,,,,,,,,,,,,,,,,,,sing9,001,2022_Aug_02_1422,ProdSingRedoBetween,2021.2.3,60.007116844327655,
43,0,43,0,,,,,,,,,,,,,,,,,,,,,,,,,,246.3151042999998,None,pretty,48,44,sing,blue,244.3155861999985,None,None,244.3155861999985,None,,,,,,,,,,,,,,,,,,,,,,,,,,,,,,,,,,,sing9,001,2022_Aug_02_1422,ProdSingRedoBetween,2021.2.3,60.007116844327655,
44,0,44,0,,,,,,,,,,,,,,,,,,,,,,,,,,248.8343516999994,None,review,61,45,sing,red,246.8206900999994,None,None,246.8206900999994,None,,,,,,,,,,,,,,,,,,,,,,,,,,,,,,,,,,,sing9,001,2022_Aug_02_1422,ProdSingRedoBetween,2021.2.3,60.007116844327655,
45,0,45,0,,,,,,,,,,,,,,,,,,,,,,,,,,251.33689699999923,None,dance,2,46,sing,yellow,249.33738389999962,None,None,249.33738389999962,None,,,,,,,,,,,,,,,,,,,,,,,,,,,,,,,,,,,sing9,001,2022_Aug_02_1422,ProdSingRedoBetween,2021.2.3,60.007116844327655,
46,0,46,0,,,,,,,,,,,,,,,,,,,,,,,,,,253.8561613999991,None,election,39,47,sing,blue,251.84069269999964,None,None,251.84069269999964,None,,,,,,,,,,,,,,,,,,,,,,,,,,,,,,,,,,,sing9,001,2022_Aug_02_1422,ProdSingRedoBetween,2021.2.3,60.007116844327655,
47,0,47,0,,,,,,,,,,,,,,,,,,,,,,,,,,256.3584364999988,None,stand,41,48,sing,blue,254.35808009999892,None,None,254.35808009999892,None,,,,,,,,,,,,,,,,,,,,,,,,,,,,,,,,,,,sing9,001,2022_Aug_02_1422,ProdSingRedoBetween,2021.2.3,60.007116844327655,
48,0,48,0,,,,,,,,,,,,,,,,,,,,,,,,,,258.87774679999893,None,finish,11,49,sing,yellow,256.862298,None,None,256.862298,None,,,,,,,,,,,,,,,,,,,,,,,,,,,,,,,,,,,sing9,001,2022_Aug_02_1422,ProdSingRedoBetween,2021.2.3,60.007116844327655,
49,0,49,0,,,,,,,,,,,,,,,,,,,,,,,,,,261.3802156999991,None,principal,27,50,sing,yellow,259.37950909999927,None,None,259.37950909999927,None,,,,,,,,,,,,,,,,,,,,,,,,,,,,,,,,,,,sing9,001,2022_Aug_02_1422,ProdSingRedoBetween,2021.2.3,60.007116844327655,
50,0,50,0,,,,,,,,,,,,,,,,,,,,,,,,,,263.8994709999988,None,sunset,63,51,sing,red,261.8845232999993,None,None,261.8845232999993,None,,,,,,,,,,,,,,,,,,,,,,,,,,,,,,,,,,,sing9,001,2022_Aug_02_1422,ProdSingRedoBetween,2021.2.3,60.007116844327655,
51,0,51,0,,,,,,,,,,,,,,,,,,,,,,,,,,266.4020752999986,None,shear,33,52,sing,blue,264.3999331999985,None,None,264.3999331999985,None,,,,,,,,,,,,,,,,,,,,,,,,,,,,,,,,,,,sing9,001,2022_Aug_02_1422,ProdSingRedoBetween,2021.2.3,60.007116844327655,
52,0,52,0,,,,,,,,,,,,,,,,,,,,,,,,,,268.9044146999986,None,story,78,53,sing,red,266.9023698000001,None,None,266.9023698000001,None,,,,,,,,,,,,,,,,,,,,,,,,,,,,,,,,,,,sing9,001,2022_Aug_02_1422,ProdSingRedoBetween,2021.2.3,60.007116844327655,
53,0,53,0,,,,,,,,,,,,,,,,,,,,,,,,,,271.4069518999986,None,orchestra,54,54,sing,blue,269.40478040000016,None,None,269.40478040000016,None,,,,,,,,,,,,,,,,,,,,,,,,,,,,,,,,,,,sing9,001,2022_Aug_02_1422,ProdSingRedoBetween,2021.2.3,60.007116844327655,
54,0,54,0,,,,,,,,,,,,,,,,,,,,,,,,,,273.90958989999854,None,meeting,14,55,sing,yellow,271.9074854999999,None,None,271.9074854999999,None,,,,,,,,,,,,,,,,,,,,,,,,,,,,,,,,,,,sing9,001,2022_Aug_02_1422,ProdSingRedoBetween,2021.2.3,60.007116844327655,
55,0,55,0,,,,,,,,,,,,,,,,,,,,,,,,,,276.4118643999991,None,audience,15,56,sing,yellow,274.40999679999913,None,None,274.40999679999913,None,,,,,,,,,,,,,,,,,,,,,,,,,,,,,,,,,,,sing9,001,2022_Aug_02_1422,ProdSingRedoBetween,2021.2.3,60.007116844327655,
56,0,56,0,,,,,,,,,,,,,,,,,,,,,,,,,,278.9144376999993,None,quarter,82,57,sing,red,276.9123753999993,None,None,276.9123753999993,None,,,,,,,,,,,,,,,,,,,,,,,,,,,,,,,,,,,sing9,001,2022_Aug_02_1422,ProdSingRedoBetween,2021.2.3,60.007116844327655,
57,0,57,0,,,,,,,,,,,,,,,,,,,,,,,,,,281.41713159999927,None,provision,68,58,sing,red,279.4148312999987,None,None,279.4148312999987,None,,,,,,,,,,,,,,,,,,,,,,,,,,,,,,,,,,,sing9,001,2022_Aug_02_1422,ProdSingRedoBetween,2021.2.3,60.007116844327655,
58,0,58,0,,,,,,,,,,,,,,,,,,,,,,,,,,283.91936109999915,None,captain,19,59,sing,yellow,281.9199762999997,None,None,281.9199762999997,None,,,,,,,,,,,,,,,,,,,,,,,,,,,,,,,,,,,sing9,001,2022_Aug_02_1422,ProdSingRedoBetween,2021.2.3,60.007116844327655,
59,0,59,0,,,,,,,,,,,,,,,,,,,,,,,,,,286.4219935000001,None,short,67,60,sing,red,284.41995080000015,None,None,284.41995080000015,None,,,,,,,,,,,,,,,,,,,,,,,,,,,,,,,,,,,sing9,001,2022_Aug_02_1422,ProdSingRedoBetween,2021.2.3,60.007116844327655,
60,0,60,0,,,,,,,,,,,,,,,,,,,,,,,,,,288.9410633999996,None,block,49,61,sing,blue,286.9275682999996,None,None,286.9275682999996,None,,,,,,,,,,,,,,,,,,,,,,,,,,,,,,,,,,,sing9,001,2022_Aug_02_1422,ProdSingRedoBetween,2021.2.3,60.007116844327655,
61,0,61,0,,,,,,,,,,,,,,,,,,,,,,,,,,291.4435151999987,None,bitter,50,62,sing,blue,289.4415586999985,None,None,289.4415586999985,None,,,,,,,,,,,,,,,,,,,,,,,,,,,,,,,,,,,sing9,001,2022_Aug_02_1422,ProdSingRedoBetween,2021.2.3,60.007116844327655,
62,0,62,0,,,,,,,,,,,,,,,,,,,,,,,,,,293.9627499999988,None,whole,12,63,sing,yellow,291.9472870999998,None,None,291.9472870999998,None,,,,,,,,,,,,,,,,,,,,,,,,,,,,,,,,,,,sing9,001,2022_Aug_02_1422,ProdSingRedoBetween,2021.2.3,60.007116844327655,
63,0,63,0,,,,,,,,,,,,,,,,,,,,,,,,,,296.46534189999875,None,individual,1,64,sing,yellow,294.4632856999997,None,None,294.4632856999997,None,,,,,,,,,,,,,,,,,,,,,,,,,,,,,,,,,,,sing9,001,2022_Aug_02_1422,ProdSingRedoBetween,2021.2.3,60.007116844327655,
64,0,64,0,,,,,,,,,,,,,,,,,,,,,,,,,,298.9679734000001,None,touch,89,65,sing,red,296.96577849999994,None,None,296.96577849999994,None,,,,,,,,,,,,,,,,,,,,,,,,,,,,,,,,,,,sing9,001,2022_Aug_02_1422,ProdSingRedoBetween,2021.2.3,60.007116844327655,
65,0,65,0,,,,,,,,,,,,,,,,,,,,,,,,,,301.4703945000001,None,suspect,0,66,sing,yellow,299.4681399000001,None,None,299.4681399000001,None,,,,,,,,,,,,,,,,,,,,,,,,,,,,,,,,,,,sing9,001,2022_Aug_02_1422,ProdSingRedoBetween,2021.2.3,60.007116844327655,
66,0,66,0,,,,,,,,,,,,,,,,,,,,,,,,,,303.97284319999926,None,produce,59,67,sing,yellow,301.9707890999998,None,None,301.9707890999998,None,,,,,,,,,,,,,,,,,,,,,,,,,,,,,,,,,,,sing9,001,2022_Aug_02_1422,ProdSingRedoBetween,2021.2.3,60.007116844327655,
67,0,67,0,,,,,,,,,,,,,,,,,,,,,,,,,,306.4753452999994,None,native,45,68,sing,blue,304.47534709999854,None,None,304.47534709999854,None,,,,,,,,,,,,,,,,,,,,,,,,,,,,,,,,,,,sing9,001,2022_Aug_02_1422,ProdSingRedoBetween,2021.2.3,60.007116844327655,
68,0,68,0,,,,,,,,,,,,,,,,,,,,,,,,,,308.977887699999,None,sight,70,69,sing,red,306.97594769999887,None,None,306.97594769999887,None,,,,,,,,,,,,,,,,,,,,,,,,,,,,,,,,,,,sing9,001,2022_Aug_02_1422,ProdSingRedoBetween,2021.2.3,60.007116844327655,
69,0,69,0,,,,,,,,,,,,,,,,,,,,,,,,,,311.4804038000002,None,bureau,10,70,sing,yellow,309.4788587000003,None,None,309.4788587000003,None,,,,,,,,,,,,,,,,,,,,,,,,,,,,,,,,,,,sing9,001,2022_Aug_02_1422,ProdSingRedoBetween,2021.2.3,60.007116844327655,
70,0,70,0,,,,,,,,,,,,,,,,,,,,,,,,,,313.98288779999893,None,music,26,71,sing,yellow,311.9808878999993,None,None,311.9808878999993,None,,,,,,,,,,,,,,,,,,,,,,,,,,,,,,,,,,,sing9,001,2022_Aug_02_1422,ProdSingRedoBetween,2021.2.3,60.007116844327655,
71,0,71,0,,,,,,,,,,,,,,,,,,,,,,,,,,316.48526309999943,None,entrance,72,72,sing,red,314.4833246999988,None,None,314.4833246999988,None,,,,,,,,,,,,,,,,,,,,,,,,,,,,,,,,,,,sing9,001,2022_Aug_02_1422,ProdSingRedoBetween,2021.2.3,60.007116844327655,
72,0,72,0,,,,,,,,,,,,,,,,,,,,,,,,,,319.0045900999994,None,force,80,73,sing,red,316.9894418999993,None,None,316.9894418999993,None,,,,,,,,,,,,,,,,,,,,,,,,,,,,,,,,,,,sing9,001,2022_Aug_02_1422,ProdSingRedoBetween,2021.2.3,60.007116844327655,
73,0,73,0,,,,,,,,,,,,,,,,,,,,,,,,,,321.50701279999885,None,birth,51,74,sing,blue,319.50576329999967,None,None,319.50576329999967,None,,,,,,,,,,,,,,,,,,,,,,,,,,,,,,,,,,,sing9,001,2022_Aug_02_1422,ProdSingRedoBetween,2021.2.3,60.007116844327655,
74,0,74,0,,,,,,,,,,,,,,,,,,,,,,,,,,324.0094594000002,None,brilliant,79,75,sing,red,322.00903449999896,None,None,322.00903449999896,None,,,,,,,,,,,,,,,,,,,,,,,,,,,,,,,,,,,sing9,001,2022_Aug_02_1422,ProdSingRedoBetween,2021.2.3,60.007116844327655,
75,0,75,0,,,,,,,,,,,,,,,,,,,,,,,,,,326.5286139999989,None,foundation,46,76,sing,blue,324.5138337999997,None,None,324.5138337999997,None,,,,,,,,,,,,,,,,,,,,,,,,,,,,,,,,,,,sing9,001,2022_Aug_02_1422,ProdSingRedoBetween,2021.2.3,60.007116844327655,
76,0,76,0,,,,,,,,,,,,,,,,,,,,,,,,,,329.0476656999999,None,junior,22,77,sing,yellow,327.0327621999986,None,None,327.0327621999986,None,,,,,,,,,,,,,,,,,,,,,,,,,,,,,,,,,,,sing9,001,2022_Aug_02_1422,ProdSingRedoBetween,2021.2.3,60.007116844327655,
77,0,77,0,,,,,,,,,,,,,,,,,,,,,,,,,,331.5503325999998,None,second,30,78,sing,blue,329.548316299999,None,None,329.548316299999,None,,,,,,,,,,,,,,,,,,,,,,,,,,,,,,,,,,,sing9,001,2022_Aug_02_1422,ProdSingRedoBetween,2021.2.3,60.007116844327655,
78,0,78,0,,,,,,,,,,,,,,,,,,,,,,,,,,334.069653999999,None,opening,20,79,sing,yellow,332.06187239999963,None,None,332.06187239999963,None,,,,,,,,,,,,,,,,,,,,,,,,,,,,,,,,,,,sing9,001,2022_Aug_02_1422,ProdSingRedoBetween,2021.2.3,60.007116844327655,
79,0,79,0,,,,,,,,,,,,,,,,,,,,,,,,,,336.5887449999991,None,device,3,80,sing,yellow,334.5750963999999,None,None,334.5750963999999,None,,,,,,,,,,,,,,,,,,,,,,,,,,,,,,,,,,,sing9,001,2022_Aug_02_1422,ProdSingRedoBetween,2021.2.3,60.007116844327655,
80,0,80,0,,,,,,,,,,,,,,,,,,,,,,,,,,339.09130709999954,None,emergency,34,81,sing,blue,337.09203389999857,None,None,337.09203389999857,None,,,,,,,,,,,,,,,,,,,,,,,,,,,,,,,,,,,sing9,001,2022_Aug_02_1422,ProdSingRedoBetween,2021.2.3,60.007116844327655,
81,0,81,0,,,,,,,,,,,,,,,,,,,,,,,,,,341.5935565999989,None,group,5,82,sing,yellow,339.5943222999995,None,None,339.5943222999995,None,,,,,,,,,,,,,,,,,,,,,,,,,,,,,,,,,,,sing9,001,2022_Aug_02_1422,ProdSingRedoBetween,2021.2.3,60.007116844327655,
82,0,82,0,,,,,,,,,,,,,,,,,,,,,,,,,,344.0962761999999,None,revolution,4,83,sing,yellow,342.0956348999989,None,None,342.0956348999989,None,,,,,,,,,,,,,,,,,,,,,,,,,,,,,,,,,,,sing9,001,2022_Aug_02_1422,ProdSingRedoBetween,2021.2.3,60.007116844327655,
83,0,83,0,,,,,,,,,,,,,,,,,,,,,,,,,,346.6154572999985,None,production,57,84,sing,blue,344.6070803999992,None,None,344.6070803999992,None,,,,,,,,,,,,,,,,,,,,,,,,,,,,,,,,,,,sing9,001,2022_Aug_02_1422,ProdSingRedoBetween,2021.2.3,60.007116844327655,
84,0,84,0,,,,,,,,,,,,,,,,,,,,,,,,,,349.11781899999914,None,portion,32,85,sing,blue,347.1182212999993,None,None,347.1182212999993,None,,,,,,,,,,,,,,,,,,,,,,,,,,,,,,,,,,,sing9,001,2022_Aug_02_1422,ProdSingRedoBetween,2021.2.3,60.007116844327655,
85,0,85,0,,,,,,,,,,,,,,,,,,,,,,,,,,351.63711239999975,None,course,13,86,sing,yellow,349.6239186999992,None,None,349.6239186999992,None,,,,,,,,,,,,,,,,,,,,,,,,,,,,,,,,,,,sing9,001,2022_Aug_02_1422,ProdSingRedoBetween,2021.2.3,60.007116844327655,
86,0,86,0,,,,,,,,,,,,,,,,,,,,,,,,,,354.13969969999926,None,household,74,87,sing,red,352.13965199999984,None,None,352.13965199999984,None,,,,,,,,,,,,,,,,,,,,,,,,,,,,,,,,,,,sing9,001,2022_Aug_02_1422,ProdSingRedoBetween,2021.2.3,60.007116844327655,
87,0,87,0,,,,,,,,,,,,,,,,,,,,,,,,,,356.65891550000015,None,rapid,77,88,sing,red,354.64374449999923,None,None,354.64374449999923,None,,,,,,,,,,,,,,,,,,,,,,,,,,,,,,,,,,,sing9,001,2022_Aug_02_1422,ProdSingRedoBetween,2021.2.3,60.007116844327655,
88,0,88,0,,,,,,,,,,,,,,,,,,,,,,,,,,359.16136860000006,None,breath,62,89,sing,red,357.161077499999,None,None,357.161077499999,None,,,,,,,,,,,,,,,,,,,,,,,,,,,,,,,,,,,sing9,001,2022_Aug_02_1422,ProdSingRedoBetween,2021.2.3,60.007116844327655,
89,0,89,0,,,,,,,,,,,,,,,,,,,,,,,,,,361.6638826999988,None,medicine,29,90,sing,blue,359.6620568999988,None,None,359.6620568999988,None,,,,,,,,,,,,,,,,,,,,,,,,,,,,,,,,,,,sing9,001,2022_Aug_02_1422,ProdSingRedoBetween,2021.2.3,60.007116844327655,
,,,,,,,,,,,,,,,,,,,,,,,,,,,,,,,,,,,,,,,,,362.16459509999913,None,k,95.08980780000093,362.16459509999913,None,,,,,,,,,,,,,,,,,,,,,,,,,,,,,sing9,001,2022_Aug_02_1422,ProdSingRedoBetween,2021.2.3,60.007116844327655,
,,,,0,0,0,0,,,,,,,,,,,,,,,,,,,,,,465.9514120999993,None,,,,,,,,,,,,,,,,,candidate,58,1,sing,old,blue,457.7845445999992,None,457.7845445999992,None,6,5.061734000000797,457.7845445999992,None,5.061734000000797,462.86590590000014,None,463.3656183999992,None,463.3656183999992,None,f,2.560567500000616,463.3656183999992,None,2.560567500000616,,,sing9,001,2022_Aug_02_1422,ProdSingRedoBetween,2021.2.3,60.007116844327655,
,,,,1,0,1,0,,,,,,,,,,,,,,,,,,,,,,471.8096442999995,None,,,,,,,,,,,,,,,,,dream,149,2,sing,new,null,466.4598148999994,None,466.4598148999994,None,1,2.5942939999986265,466.4598148999994,None,2.5942939999986265,469.0762622000002,None,469.58831199999986,None,469.58831199999986,None,n,2.201802800000223,469.58831199999986,None,2.201802800000223,,,sing9,001,2022_Aug_02_1422,ProdSingRedoBetween,2021.2.3,60.007116844327655,
,,,,2,0,2,0,,,,,,,,,,,,,,,,,,,,,,478.5138582999989,None,,,,,,,,,,,,,,,,,course,13,3,sing,old,yellow,472.3243825999998,None,472.3243825999998,None,6,4.0017750000006345,472.3243825999998,None,4.0017750000006345,476.34524389999933,None,476.8457935999995,None,476.8457935999995,None,r,1.6403203999998368,476.8457935999995,None,1.6403203999998368,,,sing9,001,2022_Aug_02_1422,ProdSingRedoBetween,2021.2.3,60.007116844327655,
,,,,3,0,3,0,,,,,,,,,,,,,,,,,,,,,,485.10382539999955,None,,,,,,,,,,,,,,,,,character,168,4,sing,new,null,479.01442209999914,None,479.01442209999914,None,1,3.783729000000676,479.01442209999914,None,3.783729000000676,482.8182452000001,None,483.3189764999988,None,483.3189764999988,None,n,1.7591605999987223,483.3189764999988,None,1.7591605999987223,,,sing9,001,2022_Aug_02_1422,ProdSingRedoBetween,2021.2.3,60.007116844327655,
,,,,4,0,4,0,,,,,,,,,,,,,,,,,,,,,,489.7583691,None,,,,,,,,,,,,,,,,,running,18,5,sing,old,yellow,485.60885549999875,None,485.60885549999875,None,6,2.8452952000006917,485.60885549999875,None,2.8452952000006917,488.4738499999985,None,488.9746507,None,488.9746507,None,r,0.7676814999995258,488.9746507,None,0.7676814999995258,,,sing9,001,2022_Aug_02_1422,ProdSingRedoBetween,2021.2.3,60.007116844327655,
,,,,5,0,5,0,,,,,,,,,,,,,,,,,,,,,,493.31199709999964,None,,,,,,,,,,,,,,,,,election,39,6,sing,old,blue,490.25925649999954,None,490.25925649999954,None,6,2.0588637000000745,490.25925649999954,None,2.0588637000000745,492.34444859999894,None,492.84504509999897,None,492.84504509999897,None,r,0.4411701000008179,492.84504509999897,None,0.4411701000008179,,,sing9,001,2022_Aug_02_1422,ProdSingRedoBetween,2021.2.3,60.007116844327655,
,,,,6,0,6,0,,,,,,,,,,,,,,,,,,,,,,505.75776919999953,None,,,,,,,,,,,,,,,,,suggestion,117,7,sing,new,null,493.81266479999977,None,493.81266479999977,None,2,4.665466799999194,493.81266479999977,None,4.665466799999194,498.5080822,None,499.01781329999903,None,499.01781329999903,None,f,6.708385800000542,499.01781329999903,None,6.708385800000542,,,sing9,001,2022_Aug_02_1422,ProdSingRedoBetween,2021.2.3,60.007116844327655,
,,,,7,0,7,0,,,,,,,,,,,,,,,,,,,,,,509.41133699999955,None,,,,,,,,,,,,,,,,,narrow,140,8,sing,new,null,506.2583885999993,None,506.2583885999993,None,1,1.99572740000076,506.2583885999993,None,1.99572740000076,508.27701049999996,None,508.7776681999985,None,508.7776681999985,None,n,0.6124452999993082,508.7776681999985,None,0.6124452999993082,,,sing9,001,2022_Aug_02_1422,ProdSingRedoBetween,2021.2.3,60.007116844327655,
,,,,8,0,8,0,,,,,,,,,,,,,,,,,,,,,,514.7168615999999,None,,,,,,,,,,,,,,,,,produce,59,9,sing,old,yellow,509.9137546999991,None,509.9137546999991,None,6,3.2443906999997125,509.9137546999991,None,3.2443906999997125,513.1888491999998,None,513.6992661999993,None,513.6992661999993,None,r,0.9869962000011583,513.6992661999993,None,0.9869962000011583,,,sing9,001,2022_Aug_02_1422,ProdSingRedoBetween,2021.2.3,60.007116844327655,
,,,,9,0,9,0,,,,,,,,,,,,,,,,,,,,,,518.8375478999988,None,,,,,,,,,,,,,,,,,music,26,10,sing,old,yellow,515.2174039999991,None,515.2174039999991,None,1,2.0767364999992424,515.2174039999991,None,2.0767364999992424,517.3193268999985,None,517.8199408,None,517.8199408,None,r,0.994228599998678,517.8199408,None,0.994228599998678,,,sing9,001,2022_Aug_02_1422,ProdSingRedoBetween,2021.2.3,60.007116844327655,
,,,,10,0,10,0,,,,,,,,,,,,,,,,,,,,,,523.291883599999,None,,,,,,,,,,,,,,,,,victory,88,11,sing,old,red,519.3381573999995,None,519.3381573999995,None,1,3.0680264000002353,519.3381573999995,None,3.0680264000002353,522.4256015999999,None,522.9250065999986,None,522.9250065999986,None,n,0.3451743000005081,522.9250065999986,None,0.3451743000005081,,,sing9,001,2022_Aug_02_1422,ProdSingRedoBetween,2021.2.3,60.007116844327655,
,,,,11,0,11,0,,,,,,,,,,,,,,,,,,,,,,530.4824931000003,None,,,,,,,,,,,,,,,,,executive,31,12,sing,old,blue,523.7925478999987,None,523.7925478999987,None,6,2.565753200000472,523.7925478999987,None,2.565753200000472,526.3832703999997,None,526.8958915999992,None,526.8958915999992,None,r,3.5662905999997747,526.8958915999992,None,3.5662905999997747,,,sing9,001,2022_Aug_02_1422,ProdSingRedoBetween,2021.2.3,60.007116844327655,
,,,,12,0,12,0,,,,,,,,,,,,,,,,,,,,,,536.5885502000001,None,,,,,,,,,,,,,,,,,range,43,13,sing,old,blue,530.9831454999985,None,530.9831454999985,None,6,3.966978799999197,530.9831454999985,None,3.966978799999197,534.9702198999985,None,535.4709653999998,None,535.4709653999998,None,f,1.08723750000172,535.4709653999998,None,1.08723750000172,,,sing9,001,2022_Aug_02_1422,ProdSingRedoBetween,2021.2.3,60.007116844327655,
,,,,13,0,13,0,,,,,,,,,,,,,,,,,,,,,,542.5967302999998,None,,,,,,,,,,,,,,,,,dance,2,14,sing,old,yellow,537.0892514999996,None,537.0892514999996,None,4,3.9889309000009234,537.0892514999996,None,3.9889309000009234,541.0932171999993,None,541.5937010999987,None,541.5937010999987,None,f,0.9724142999984906,541.5937010999987,None,0.9724142999984906,,,sing9,001,2022_Aug_02_1422,ProdSingRedoBetween,2021.2.3,60.007116844327655,
,,,,14,0,14,0,,,,,,,,,,,,,,,,,,,,,,548.8007552999989,None,,,,,,,,,,,,,,,,,foundation,46,15,sing,old,blue,543.1119261999993,None,543.1119261999993,None,6,2.886421999999584,543.1119261999993,None,2.886421999999584,546.0197098999997,None,546.5321294999994,None,546.5321294999994,None,f,2.2420161000009102,546.5321294999994,None,2.2420161000009102,,,sing9,001,2022_Aug_02_1422,ProdSingRedoBetween,2021.2.3,60.007116844327655,
,,,,15,0,15,0,,,,,,,,,,,,,,,,,,,,,,552.0052235000003,None,,,,,,,,,,,,,,,,,tough,166,16,sing,new,null,549.3015803999988,None,549.3015803999988,None,1,1.7925911000002088,549.3015803999988,None,1.7925911000002088,551.1198722999998,None,551.6204851000002,None,551.6204851000002,None,f,0.35366220000105386,551.6204851000002,None,0.35366220000105386,,,sing9,001,2022_Aug_02_1422,ProdSingRedoBetween,2021.2.3,60.007116844327655,
,,,,16,0,16,0,,,,,,,,,,,,,,,,,,,,,,556.8088037999987,None,,,,,,,,,,,,,,,,,corner,94,17,sing,new,null,552.5055672999988,None,552.5055672999988,None,1,1.4125804000013886,552.5055672999988,None,1.4125804000013886,553.9393369999998,None,554.4399271000002,None,554.4399271000002,None,f,2.3422890000001644,554.4399271000002,None,2.3422890000001644,,,sing9,001,2022_Aug_02_1422,ProdSingRedoBetween,2021.2.3,60.007116844327655,
,,,,17,0,17,0,,,,,,,,,,,,,,,,,,,,,,563.7158024,None,,,,,,,,,,,,,,,,,turkey,55,18,sing,old,blue,557.3095144999988,None,557.3095144999988,None,6,3.1206695000000764,557.3095144999988,None,3.1206695000000764,560.445733999999,None,560.9465005000002,None,560.9465005000002,None,f,2.7397691999995004,560.9465005000002,None,2.7397691999995004,,,sing9,001,2022_Aug_02_1422,ProdSingRedoBetween,2021.2.3,60.007116844327655,
,,,,18,0,18,0,,,,,,,,,,,,,,,,,,,,,,567.7698762999989,None,,,,,,,,,,,,,,,,,edition,40,19,sing,old,blue,564.2257129999998,None,564.2257129999998,None,6,2.5404931000011857,564.2257129999998,None,2.5404931000011857,566.7856906999987,None,567.2884712999985,None,567.2884712999985,None,f,0.4537454000001162,567.2884712999985,None,0.4537454000001162,,,sing9,001,2022_Aug_02_1422,ProdSingRedoBetween,2021.2.3,60.007116844327655,
,,,,19,0,19,0,,,,,,,,,,,,,,,,,,,,,,572.6081001999992,None,,,,,,,,,,,,,,,,,story,78,20,sing,old,red,568.2770266999996,None,568.2770266999996,None,3,3.225248599999759,568.2770266999996,None,3.225248599999759,571.5236750999993,None,572.0242431999995,None,572.0242431999995,None,f,0.5581708000008803,572.0242431999995,None,0.5581708000008803,,,sing9,001,2022_Aug_02_1422,ProdSingRedoBetween,2021.2.3,60.007116844327655,
,,,,20,0,20,0,,,,,,,,,,,,,,,,,,,,,,577.2292958999988,None,,,,,,,,,,,,,,,,,profession,106,21,sing,new,null,573.1172353000002,None,573.1172353000002,None,1,3.1210967999995773,573.1172353000002,None,3.1210967999995773,576.2630970999999,None,576.7687742999988,None,576.7687742999988,None,n,0.42968159999873023,576.7687742999988,None,0.42968159999873023,,,sing9,001,2022_Aug_02_1422,ProdSingRedoBetween,2021.2.3,60.007116844327655,
,,,,21,0,21,0,,,,,,,,,,,,,,,,,,,,,,581.2166110999988,None,,,,,,,,,,,,,,,,,accident,124,22,sing,new,null,577.7380132999988,None,577.7380132999988,None,1,1.4122535999995307,577.7380132999988,None,1.4122535999995307,579.1813721999988,None,579.6856642999992,None,579.6856642999992,None,n,1.5045700999999099,579.6856642999992,None,1.5045700999999099,,,sing9,001,2022_Aug_02_1422,ProdSingRedoBetween,2021.2.3,60.007116844327655,
,,,,22,0,22,0,,,,,,,,,,,,,,,,,,,,,,585.1039243999985,None,,,,,,,,,,,,,,,,,month,144,23,sing,new,null,581.7172517999988,None,581.7172517999988,None,1,2.4971728999989864,581.7172517999988,None,2.4971728999989864,584.2363780999985,None,584.7369631000001,None,584.7369631000001,None,n,0.34144170000035956,584.7369631000001,None,0.34144170000035956,,,sing9,001,2022_Aug_02_1422,ProdSingRedoBetween,2021.2.3,60.007116844327655,
,,,,23,0,23,0,,,,,,,,,,,,,,,,,,,,,,588.3071051999996,None,,,,,,,,,,,,,,,,,under,101,24,sing,new,null,585.6120500999987,None,585.6120500999987,None,1,1.290356099998462,585.6120500999987,None,1.290356099998462,586.9311364999994,None,587.4396257999997,None,587.4396257999997,None,n,0.838658900000155,587.4396257999997,None,0.838658900000155,,,sing9,001,2022_Aug_02_1422,ProdSingRedoBetween,2021.2.3,60.007116844327655,
,,,,24,0,24,0,,,,,,,,,,,,,,,,,,,,,,591.1599819000003,None,,,,,,,,,,,,,,,,,welcome,161,25,sing,new,null,588.8171631999994,None,588.8171631999994,None,1,1.3331386000008933,588.8171631999994,None,1.3331386000008933,590.1832176999997,None,590.6929201999992,None,590.6929201999992,None,n,0.44946749999871827,590.6929201999992,None,0.44946749999871827,,,sing9,001,2022_Aug_02_1422,ProdSingRedoBetween,2021.2.3,60.007116844327655,
,,,,25,0,25,0,,,,,,,,,,,,,,,,,,,,,,596.2482092999999,None,,,,,,,,,,,,,,,,,provision,68,26,sing,old,red,591.6716852999998,None,591.6716852999998,None,5,3.8385051999994175,591.6716852999998,None,3.8385051999994175,595.5389202999995,None,596.0482596999991,None,596.0482596999991,None,f,0.18194040000162204,596.0482596999991,None,0.18194040000162204,,,sing9,001,2022_Aug_02_1422,ProdSingRedoBetween,2021.2.3,60.007116844327655,
,,,,26,0,26,0,,,,,,,,,,,,,,,,,,,,,,599.1012199999986,None,,,,,,,,,,,,,,,,,audience,15,27,sing,old,yellow,596.7489021000001,None,596.7489021000001,None,6,1.6573527000000468,596.7489021000001,None,1.6573527000000468,598.4337620999995,None,598.9344425999989,None,598.9344425999989,None,f,0.15193829999952868,598.9344425999989,None,0.15193829999952868,,,sing9,001,2022_Aug_02_1422,ProdSingRedoBetween,2021.2.3,60.007116844327655,
,,,,27,0,27,0,,,,,,,,,,,,,,,,,,,,,,602.2043899,None,,,,,,,,,,,,,,,,,instrument,44,28,sing,old,blue,599.6019643,None,599.6019643,None,6,1.700324499999624,599.6019643,None,1.700324499999624,601.3213732999993,None,601.8207965000001,None,601.8207965000001,None,f,0.3535498000001098,601.8207965000001,None,0.3535498000001098,,,sing9,001,2022_Aug_02_1422,ProdSingRedoBetween,2021.2.3,60.007116844327655,
,,,,28,0,28,0,,,,,,,,,,,,,,,,,,,,,,605.3741565,None,,,,,,,,,,,,,,,,,style,73,29,sing,old,red,602.7073062999989,None,602.7073062999989,None,6,1.8270408999997017,602.7073062999989,None,1.8270408999997017,604.5578422999988,None,605.0572278999989,None,605.0572278999989,None,f,0.30100619999939227,605.0572278999989,None,0.30100619999939227,,,sing9,001,2022_Aug_02_1422,ProdSingRedoBetween,2021.2.3,60.007116844327655,
,,,,29,0,29,0,,,,,,,,,,,,,,,,,,,,,,608.1481984000002,None,,,,,,,,,,,,,,,,,whole,12,30,sing,old,yellow,605.8753078999998,None,605.8753078999998,None,3,1.7229979000003368,605.8753078999998,None,1.7229979000003368,607.6274084999986,None,608.1307399999987,None,608.1307399999987,None,f,0.003634700000475277,608.1307399999987,None,0.003634700000475277,,,sing9,001,2022_Aug_02_1422,ProdSingRedoBetween,2021.2.3,60.007116844327655,
,,,,30,0,30,0,,,,,,,,,,,,,,,,,,,,,,612.8150084999997,None,,,,,,,,,,,,,,,,,household,74,31,sing,old,red,608.6621864999997,None,608.6621864999997,None,2,3.192057100000966,608.6621864999997,None,3.192057100000966,611.8819133999987,None,612.3813301999999,None,612.3813301999999,None,f,0.40891649999866786,612.3813301999999,None,0.40891649999866786,,,sing9,001,2022_Aug_02_1422,ProdSingRedoBetween,2021.2.3,60.007116844327655,
,,,,31,0,31,0,,,,,,,,,,,,,,,,,,,,,,615.6678062999999,None,,,,,,,,,,,,,,,,,phrase,137,32,sing,new,null,613.3224443999989,None,613.3224443999989,None,1,1.5478936999988946,613.3224443999989,None,1.5478936999988946,614.9003307000003,None,615.4078535999997,None,615.4078535999997,None,f,0.23850670000138052,615.4078535999997,None,0.23850670000138052,,,sing9,001,2022_Aug_02_1422,ProdSingRedoBetween,2021.2.3,60.007116844327655,
,,,,32,0,32,0,,,,,,,,,,,,,,,,,,,,,,618.3537727000003,None,,,,,,,,,,,,,,,,,science,155,33,sing,new,null,616.1716827,None,616.1716827,None,1,1.3546507999999449,616.1716827,None,1.3546507999999449,617.5538512000003,None,618.0536916000001,None,618.0536916000001,None,f,0.2725888999993913,618.0536916000001,None,0.2725888999993913,,,sing9,001,2022_Aug_02_1422,ProdSingRedoBetween,2021.2.3,60.007116844327655,
,,,,33,0,33,0,,,,,,,,,,,,,,,,,,,,,,621.3401279999998,None,,,,,,,,,,,,,,,,,working,142,34,sing,new,null,618.8662224999989,None,618.8662224999989,None,1,1.7401525999994192,618.8662224999989,None,1.7401525999994192,620.6251185000001,None,621.1438658999996,None,621.1438658999996,None,f,0.17449149999993097,621.1438658999996,None,0.17449149999993097,,,sing9,001,2022_Aug_02_1422,ProdSingRedoBetween,2021.2.3,60.007116844327655,
,,,,34,0,34,0,,,,,,,,,,,,,,,,,,,,,,626.2951128999994,None,,,,,,,,,,,,,,,,,theme,136,35,sing,new,null,621.8407960999994,None,621.8407960999994,None,3,3.7415298000014445,621.8407960999994,None,3.7415298000014445,625.6111748999992,None,626.1176505999993,None,626.1176505999993,None,f,0.1606590999999753,626.1176505999993,None,0.1606590999999753,,,sing9,001,2022_Aug_02_1422,ProdSingRedoBetween,2021.2.3,60.007116844327655,
,,,,35,0,35,0,,,,,,,,,,,,,,,,,,,,,,630.6160940999998,None,,,,,,,,,,,,,,,,,trash,25,36,sing,old,yellow,626.8007146,None,626.8007146,None,6,1.781739899999593,626.8007146,None,1.781739899999593,628.5987725999985,None,629.1009667999988,None,629.1009667999988,None,f,1.489441400000942,629.1009667999988,None,1.489441400000942,,,sing9,001,2022_Aug_02_1422,ProdSingRedoBetween,2021.2.3,60.007116844327655,
,,,,36,0,36,0,,,,,,,,,,,,,,,,,,,,,,635.354226899999,None,,,,,,,,,,,,,,,,,interview,177,37,sing,new,null,631.1236582000001,None,631.1236582000001,None,4,2.8667184000005363,631.1236582000001,None,2.8667184000005363,634.0194553000001,None,634.5201314999995,None,634.5201314999995,None,n,0.8143608000009408,634.5201314999995,None,0.8143608000009408,,,sing9,001,2022_Aug_02_1422,ProdSingRedoBetween,2021.2.3,60.007116844327655,
,,,,37,0,37,0,,,,,,,,,,,,,,,,,,,,,,639.4082161999995,None,,,,,,,,,,,,,,,,,research,35,38,sing,old,blue,635.8700826999993,None,635.8700826999993,None,3,2.1282690999996703,635.8700826999993,None,2.1282690999996703,638.0255731999987,None,638.5464487999998,None,638.5464487999998,None,n,0.835907300001054,638.5464487999998,None,0.835907300001054,,,sing9,001,2022_Aug_02_1422,ProdSingRedoBetween,2021.2.3,60.007116844327655,
,,,,38,0,38,0,,,,,,,,,,,,,,,,,,,,,,642.2443539999986,None,,,,,,,,,,,,,,,,,short,67,39,sing,old,red,639.9108598000003,None,639.9108598000003,None,1,1.3676900999998907,639.9108598000003,None,1.3676900999998907,641.2947417999985,None,641.7981024000001,None,641.7981024000001,None,f,0.4242844000000332,641.7981024000001,None,0.4242844000000332,,,sing9,001,2022_Aug_02_1422,ProdSingRedoBetween,2021.2.3,60.007116844327655,
,,,,39,0,39,0,,,,,,,,,,,,,,,,,,,,,,646.832316,None,,,,,,,,,,,,,,,,,straight,23,40,sing,old,yellow,642.7502490999996,None,642.7502490999996,None,3,2.3041833999996015,642.7502490999996,None,2.3041833999996015,645.0805192999997,None,645.5892208999994,None,645.5892208999994,None,n,1.225091700000121,645.5892208999994,None,1.225091700000121,,,sing9,001,2022_Aug_02_1422,ProdSingRedoBetween,2021.2.3,60.007116844327655,
,,,,40,0,40,0,,,,,,,,,,,,,,,,,,,,,,650.7028652999998,None,,,,,,,,,,,,,,,,,portion,32,41,sing,old,blue,647.334356899999,None,647.334356899999,None,6,1.9760394000004453,647.334356899999,None,1.9760394000004453,649.3360114999996,None,649.8354548999996,None,649.8354548999996,None,f,0.8429964999995718,649.8354548999996,None,0.8429964999995718,,,sing9,001,2022_Aug_02_1422,ProdSingRedoBetween,2021.2.3,60.007116844327655,
,,,,41,0,41,0,,,,,,,,,,,,,,,,,,,,,,654.0895494999986,None,,,,,,,,,,,,,,,,,defeat,141,42,sing,new,null,651.2062253999993,None,651.2062253999993,None,1,1.4723532000007253,651.2062253999993,None,1.4723532000007253,652.7047888999987,None,653.2054601999989,None,653.2054601999989,None,f,0.864923799999815,653.2054601999989,None,0.864923799999815,,,sing9,001,2022_Aug_02_1422,ProdSingRedoBetween,2021.2.3,60.007116844327655,
,,,,42,0,42,0,,,,,,,,,,,,,,,,,,,,,,656.6587915,None,,,,,,,,,,,,,,,,,master,108,43,sing,new,null,654.5988902999998,None,654.5988902999998,None,1,1.3834498000014719,654.5988902999998,None,1.3834498000014719,656.0093268,None,656.5087955999988,None,656.5087955999988,None,f,0.1295884000010119,656.5087955999988,None,0.1295884000010119,,,sing9,001,2022_Aug_02_1422,ProdSingRedoBetween,2021.2.3,60.007116844327655,
,,,,43,0,43,0,,,,,,,,,,,,,,,,,,,,,,659.2116963999997,None,,,,,,,,,,,,,,,,,quarter,82,44,sing,old,red,657.165554199999,None,657.165554199999,None,1,1.2248328999994555,657.165554199999,None,1.2248328999994555,658.4116832,None,658.9112129999994,None,658.9112129999994,None,f,0.2790601000015158,658.9112129999994,None,0.2790601000015158,,,sing9,001,2022_Aug_02_1422,ProdSingRedoBetween,2021.2.3,60.007116844327655,
,,,,44,0,44,0,,,,,,,,,,,,,,,,,,,,,,662.2477036,None,,,,,,,,,,,,,,,,,rapid,77,45,sing,old,red,659.7117698000002,None,659.7117698000002,None,4,1.8945361000005505,659.7117698000002,None,1.8945361000005505,661.6357176000001,None,662.1477768999994,None,662.1477768999994,None,f,0.08265570000003208,662.1477768999994,None,0.08265570000003208,,,sing9,001,2022_Aug_02_1422,ProdSingRedoBetween,2021.2.3,60.007116844327655,
,,,,45,0,45,0,,,,,,,,,,,,,,,,,,,,,,665.2674625999989,None,,,,,,,,,,,,,,,,,exchange,170,46,sing,new,null,662.7483350999992,None,662.7483350999992,None,1,1.8021093000006658,662.7483350999992,None,1.8021093000006658,664.5735212,None,665.0883596999993,None,665.0883596999993,None,f,0.15800940000008268,665.0883596999993,None,0.15800940000008268,,,sing9,001,2022_Aug_02_1422,ProdSingRedoBetween,2021.2.3,60.007116844327655,
,,,,46,0,46,0,,,,,,,,,,,,,,,,,,,,,,669.6717979999994,None,,,,,,,,,,,,,,,,,junior,22,47,sing,old,yellow,665.770822299999,None,665.770822299999,None,6,2.483433299999888,665.770822299999,None,2.483433299999888,668.2703873999999,None,668.775225899999,None,668.775225899999,None,f,0.8711772000006022,668.775225899999,None,0.8711772000006022,,,sing9,001,2022_Aug_02_1422,ProdSingRedoBetween,2021.2.3,60.007116844327655,
,,,,47,0,47,0,,,,,,,,,,,,,,,,,,,,,,676.9791214999987,None,,,,,,,,,,,,,,,,,breath,62,48,sing,old,red,670.1824074999986,None,670.1824074999986,None,6,5.688058199999432,670.1824074999986,None,5.688058199999432,675.9004745999991,None,676.4120249999996,None,676.4120249999996,None,r,0.538362599998436,676.4120249999996,None,0.538362599998436,,,sing9,001,2022_Aug_02_1422,ProdSingRedoBetween,2021.2.3,60.007116844327655,
,,,,48,0,48,0,,,,,,,,,,,,,,,,,,,,,,682.8516984999987,None,,,,,,,,,,,,,,,,,country,56,49,sing,old,blue,677.4858188999988,None,677.4858188999988,None,6,3.1045594999995956,677.4858188999988,None,3.1045594999995956,680.6190060999998,None,681.1334162000003,None,681.1334162000003,None,r,1.6970266000007541,681.1334162000003,None,1.6970266000007541,,,sing9,001,2022_Aug_02_1422,ProdSingRedoBetween,2021.2.3,60.007116844327655,
,,,,49,0,49,0,,,,,,,,,,,,,,,,,,,,,,685.3874676999985,None,,,,,,,,,,,,,,,,,crisis,135,50,sing,new,null,683.3618291999992,None,683.3618291999992,None,1,1.2446855999987747,683.3618291999992,None,1.2446855999987747,684.6377343999993,None,685.141119599999,None,685.141119599999,None,f,0.2173992999996699,685.141119599999,None,0.2173992999996699,,,sing9,001,2022_Aug_02_1422,ProdSingRedoBetween,2021.2.3,60.007116844327655,
,,,,50,0,50,0,,,,,,,,,,,,,,,,,,,,,,690.9931400999994,None,,,,,,,,,,,,,,,,,finish,11,51,sing,old,yellow,685.9012244999994,None,685.9012244999994,None,2,4.31303730000036,685.9012244999994,None,4.31303730000036,690.2425125999998,None,690.7470125,None,690.7470125,None,f,0.22745260000010603,690.7470125,None,0.22745260000010603,,,sing9,001,2022_Aug_02_1422,ProdSingRedoBetween,2021.2.3,60.007116844327655,
,,,,51,0,51,0,,,,,,,,,,,,,,,,,,,,,,693.5289966,None,,,,,,,,,,,,,,,,,right,150,52,sing,new,null,691.4961795999989,None,691.4961795999989,None,1,1.3103331000002072,691.4961795999989,None,1.3103331000002072,692.8287197999998,None,693.3289574999999,None,693.3289574999999,None,n,0.1815612999998848,693.3289574999999,None,0.1815612999998848,,,sing9,001,2022_Aug_02_1422,ProdSingRedoBetween,2021.2.3,60.007116844327655,
,,,,52,0,52,0,,,,,,,,,,,,,,,,,,,,,,696.6654547999988,None,,,,,,,,,,,,,,,,,industry,174,53,sing,new,null,694.0383592999988,None,694.0383592999988,None,5,2.0319324000010965,694.0383592999988,None,2.0319324000010965,696.099193099999,None,696.5987958999995,None,696.5987958999995,None,f,0.04760039999928267,696.5987958999995,None,0.04760039999928267,,,sing9,001,2022_Aug_02_1422,ProdSingRedoBetween,2021.2.3,60.007116844327655,
,,,,53,0,53,0,,,,,,,,,,,,,,,,,,,,,,701.0250048999987,None,,,,,,,,,,,,,,,,,partner,64,54,sing,old,red,697.1725123999986,None,697.1725123999986,None,2,3.290009700000155,697.1725123999986,None,3.290009700000155,700.4871661999987,None,700.9948176999987,None,700.9948176999987,None,f,0.01157000000057451,700.9948176999987,None,0.01157000000057451,,,sing9,001,2022_Aug_02_1422,ProdSingRedoBetween,2021.2.3,60.007116844327655,
,,,,54,0,54,0,,,,,,,,,,,,,,,,,,,,,,705.0571650000002,None,,,,,,,,,,,,,,,,,fashion,17,55,sing,old,yellow,701.538125699999,None,701.538125699999,None,6,2.628274500000771,701.538125699999,None,2.628274500000771,704.1908704999987,None,704.6942838999985,None,704.6942838999985,None,r,0.34416029999920283,704.6942838999985,None,0.34416029999920283,,,sing9,001,2022_Aug_02_1422,ProdSingRedoBetween,2021.2.3,60.007116844327655,
,,,,55,0,55,0,,,,,,,,,,,,,,,,,,,,,,707.6264321999988,None,,,,,,,,,,,,,,,,,attack,116,56,sing,new,null,705.5677329999999,None,705.5677329999999,None,1,1.1907960999997158,705.5677329999999,None,1.1907960999997158,706.7818286999991,None,707.2929144999998,None,707.2929144999998,None,n,0.3054753999986133,707.2929144999998,None,0.3054753999986133,,,sing9,001,2022_Aug_02_1422,ProdSingRedoBetween,2021.2.3,60.007116844327655,
,,,,56,0,56,0,,,,,,,,,,,,,,,,,,,,,,712.875391399999,None,,,,,,,,,,,,,,,,,emergency,34,57,sing,old,blue,708.1361317999999,None,708.1361317999999,None,5,2.934229200000118,708.1361317999999,None,2.934229200000118,711.0986584999991,None,711.6167604999991,None,711.6167604999991,None,f,1.2216174000004685,711.6167604999991,None,1.2216174000004685,,,sing9,001,2022_Aug_02_1422,ProdSingRedoBetween,2021.2.3,60.007116844327655,
,,,,57,0,57,0,,,,,,,,,,,,,,,,,,,,,,715.4851787999996,None,,,,,,,,,,,,,,,,,front,139,58,sing,new,null,713.3883582999988,None,713.3883582999988,None,1,1.3219647999994777,713.3883582999988,None,1.3219647999994777,714.7336768999994,None,715.2355582,None,715.2355582,None,n,0.21900319999986095,715.2355582,None,0.21900319999986095,,,sing9,001,2022_Aug_02_1422,ProdSingRedoBetween,2021.2.3,60.007116844327655,
,,,,58,0,58,0,,,,,,,,,,,,,,,,,,,,,,718.987775399999,None,,,,,,,,,,,,,,,,,expansion,92,59,sing,new,null,715.989359199999,None,715.989359199999,None,1,1.3529658999996172,715.989359199999,None,1.3529658999996172,717.3704658999995,None,717.8740522999997,None,717.8740522999997,None,n,1.084346600000572,717.8740522999997,None,1.084346600000572,,,sing9,001,2022_Aug_02_1422,ProdSingRedoBetween,2021.2.3,60.007116844327655,
,,,,59,0,59,0,,,,,,,,,,,,,,,,,,,,,,723.0600736999986,None,,,,,,,,,,,,,,,,,scene,66,60,sing,old,red,719.4902695000001,None,719.4902695000001,None,6,1.9641664000009769,719.4902695000001,None,1.9641664000009769,721.474850999999,None,721.9741752999998,None,721.9741752999998,None,f,1.056182500000432,721.9741752999998,None,1.056182500000432,,,sing9,001,2022_Aug_02_1422,ProdSingRedoBetween,2021.2.3,60.007116844327655,
,,,,60,0,60,0,,,,,,,,,,,,,,,,,,,,,,727.9801545999999,None,,,,,,,,,,,,,,,,,resistance,147,61,sing,new,null,723.5792899999997,None,723.5792899999997,None,6,3.387162700000772,723.5792899999997,None,3.387162700000772,726.9966706999985,None,727.4997527999985,None,727.4997527999985,None,f,0.4586695999987569,727.4997527999985,None,0.4586695999987569,,,sing9,001,2022_Aug_02_1422,ProdSingRedoBetween,2021.2.3,60.007116844327655,
,,,,61,0,61,0,,,,,,,,,,,,,,,,,,,,,,732.6871804000002,None,,,,,,,,,,,,,,,,,career,131,62,sing,new,null,728.4912773999986,None,728.4912773999986,None,3,3.3792935000001307,728.4912773999986,None,3.3792935000001307,731.900711799999,None,732.4014823999987,None,732.4014823999987,None,f,0.2528346999988571,732.4014823999987,None,0.2528346999988571,,,sing9,001,2022_Aug_02_1422,ProdSingRedoBetween,2021.2.3,60.007116844327655,
,,,,62,0,62,0,,,,,,,,,,,,,,,,,,,,,,735.4914849999986,None,,,,,,,,,,,,,,,,,surface,109,63,sing,new,null,733.2047526999995,None,733.2047526999995,None,1,1.4015326999997342,733.2047526999995,None,1.4015326999997342,734.6410544999999,None,735.1538768999999,None,735.1538768999999,None,n,0.31650189999891154,735.1538768999999,None,0.31650189999891154,,,sing9,001,2022_Aug_02_1422,ProdSingRedoBetween,2021.2.3,60.007116844327655,
,,,,63,0,63,0,,,,,,,,,,,,,,,,,,,,,,737.9763542000001,None,,,,,,,,,,,,,,,,,prime,179,64,sing,new,null,736.0066525999991,None,736.0066525999991,None,1,1.311682400000791,736.0066525999991,None,1.311682400000791,737.3432409999987,None,737.8565696999995,None,737.8565696999995,None,n,0.09374339999885706,737.8565696999995,None,0.09374339999885706,,,sing9,001,2022_Aug_02_1422,ProdSingRedoBetween,2021.2.3,60.007116844327655,
,,,,64,0,64,0,,,,,,,,,,,,,,,,,,,,,,741.8963907999987,None,,,,,,,,,,,,,,,,,revolution,4,65,sing,old,yellow,738.4939990000003,None,738.4939990000003,None,6,2.392328900001303,738.4939990000003,None,2.392328900001303,740.9095782999993,None,741.4102395999998,None,741.4102395999998,None,r,0.4521031000003859,741.4102395999998,None,0.4521031000003859,,,sing9,001,2022_Aug_02_1422,ProdSingRedoBetween,2021.2.3,60.007116844327655,
,,,,65,0,65,0,,,,,,,,,,,,,,,,,,,,,,746.5152884999989,None,,,,,,,,,,,,,,,,,captain,19,66,sing,old,yellow,742.4114864999992,None,742.4114864999992,None,5,3.178847200000746,742.4114864999992,None,3.178847200000746,745.6229945999985,None,746.1315897999993,None,746.1315897999993,None,r,0.35487300000022515,746.1315897999993,None,0.35487300000022515,,,sing9,001,2022_Aug_02_1422,ProdSingRedoBetween,2021.2.3,60.007116844327655,
,,,,66,0,66,0,,,,,,,,,,,,,,,,,,,,,,753.6724663999994,None,,,,,,,,,,,,,,,,,principal,27,67,sing,old,yellow,747.0235352999989,None,747.0235352999989,None,5,4.518882300000769,747.0235352999989,None,4.518882300000769,751.5704347999999,None,752.0756205999987,None,752.0756205999987,None,f,1.578874700000597,752.0756205999987,None,1.578874700000597,,,sing9,001,2022_Aug_02_1422,ProdSingRedoBetween,2021.2.3,60.007116844327655,
,,,,67,0,67,0,,,,,,,,,,,,,,,,,,,,,,759.7618917999989,None,,,,,,,,,,,,,,,,,group,5,68,sing,old,yellow,754.1741093,None,754.1741093,None,1,4.528381399999489,754.1741093,None,4.528381399999489,758.7273948999991,None,759.2302186999987,None,759.2302186999987,None,f,0.5041777999995247,759.2302186999987,None,0.5041777999995247,,,sing9,001,2022_Aug_02_1422,ProdSingRedoBetween,2021.2.3,60.007116844327655,
,,,,68,0,68,0,,,,,,,,,,,,,,,,,,,,,,763.3522624999987,None,,,,,,,,,,,,,,,,,number,36,69,sing,old,blue,760.2626212999985,None,760.2626212999985,None,2,2.447735699999612,760.2626212999985,None,2.447735699999612,762.7396405999989,None,763.2489243,None,763.2489243,None,f,0.06951929999922868,763.2489243,None,0.06951929999922868,,,sing9,001,2022_Aug_02_1422,ProdSingRedoBetween,2021.2.3,60.007116844327655,
,,,,69,0,69,0,,,,,,,,,,,,,,,,,,,,,,766.1683641999989,None,,,,,,,,,,,,,,,,,harmony,110,70,sing,new,null,763.8661648999987,None,763.8661648999987,None,1,1.540194799999881,763.8661648999987,None,1.540194799999881,765.4343465999991,None,765.9424889999991,None,765.9424889999991,None,n,0.199938599998859,765.9424889999991,None,0.199938599998859,,,sing9,001,2022_Aug_02_1422,ProdSingRedoBetween,2021.2.3,60.007116844327655,
,,,,70,0,70,0,,,,,,,,,,,,,,,,,,,,,,769.8885439999995,None,,,,,,,,,,,,,,,,,native,45,71,sing,old,blue,766.668859899999,None,766.668859899999,None,3,2.313588900000468,766.668859899999,None,2.313588900000468,769.0043171999987,None,769.505054199999,None,769.505054199999,None,n,0.3572725000012724,769.505054199999,None,0.3572725000012724,,,sing9,001,2022_Aug_02_1422,ProdSingRedoBetween,2021.2.3,60.007116844327655,
,,,,71,0,71,0,,,,,,,,,,,,,,,,,,,,,,772.5912353999993,None,,,,,,,,,,,,,,,,,express,96,72,sing,new,null,770.3892939999987,None,770.3892939999987,None,1,1.3291207000002032,770.3892939999987,None,1.3291207000002032,771.740514699999,None,772.2410375999989,None,772.2410375999989,None,n,0.3253320000003441,772.2410375999989,None,0.3253320000003441,,,sing9,001,2022_Aug_02_1422,ProdSingRedoBetween,2021.2.3,60.007116844327655,
,,,,72,0,72,0,,,,,,,,,,,,,,,,,,,,,,775.4110356000001,None,,,,,,,,,,,,,,,,,series,151,73,sing,new,null,773.0918268999994,None,773.0918268999994,None,1,1.4905160999987856,773.0918268999994,None,1.4905160999987856,774.6100143999993,None,775.110585299999,None,775.110585299999,None,n,0.27180139999836683,775.110585299999,None,0.27180139999836683,,,sing9,001,2022_Aug_02_1422,ProdSingRedoBetween,2021.2.3,60.007116844327655,
,,,,73,0,73,0,,,,,,,,,,,,,,,,,,,,,,777.7965293999987,None,,,,,,,,,,,,,,,,,drink,81,74,sing,old,red,775.9113989999987,None,775.9113989999987,None,1,1.2389837999999145,775.9113989999987,None,1.2389837999999145,777.1792222999993,None,777.6798745999986,None,777.6798745999986,None,n,0.09450749999996333,777.6798745999986,None,0.09450749999996333,,,sing9,001,2022_Aug_02_1422,ProdSingRedoBetween,2021.2.3,60.007116844327655,
,,,,74,0,74,0,,,,,,,,,,,,,,,,,,,,,,781.8671689999992,None,,,,,,,,,,,,,,,,,production,57,75,sing,old,blue,778.2971679000002,None,778.2971679000002,None,6,2.117294599998786,778.2971679000002,None,2.117294599998786,780.4325191999997,None,780.9331186999989,None,780.9331186999989,None,f,0.9052714000008564,780.9331186999989,None,0.9052714000008564,,,sing9,001,2022_Aug_02_1422,ProdSingRedoBetween,2021.2.3,60.007116844327655,
,,,,75,0,75,0,,,,,,,,,,,,,,,,,,,,,,784.7200580999997,None,,,,,,,,,,,,,,,,,touch,89,76,sing,old,red,782.3678607000002,None,782.3678607000002,None,4,1.7345982999995613,782.3678607000002,None,1.7345982999995613,784.1194708000003,None,784.6200429,None,784.6200429,None,f,0.08239509999839356,784.6200429,None,0.08239509999839356,,,sing9,001,2022_Aug_02_1422,ProdSingRedoBetween,2021.2.3,60.007116844327655,
,,,,76,0,76,0,,,,,,,,,,,,,,,,,,,,,,787.1390676999999,None,,,,,,,,,,,,,,,,,second,30,77,sing,old,blue,785.2206358999993,None,785.2206358999993,None,1,1.249756699999125,785.2206358999993,None,1.249756699999125,786.4887832999993,None,786.9890266000002,None,786.9890266000002,None,n,0.12933449999945879,786.9890266000002,None,0.12933449999945879,,,sing9,001,2022_Aug_02_1422,ProdSingRedoBetween,2021.2.3,60.007116844327655,
,,,,77,0,77,0,,,,,,,,,,,,,,,,,,,,,,793.4454867999993,None,,,,,,,,,,,,,,,,,clear,84,78,sing,old,red,787.6396992999998,None,787.6396992999998,None,2,4.38267789999918,787.6396992999998,None,4.38267789999918,792.0441131999996,None,792.5446827999986,None,792.5446827999986,None,n,0.8777428000012151,792.5446827999986,None,0.8777428000012151,,,sing9,001,2022_Aug_02_1422,ProdSingRedoBetween,2021.2.3,60.007116844327655,
,,,,78,0,78,0,,,,,,,,,,,,,,,,,,,,,,796.2482552000001,None,,,,,,,,,,,,,,,,,husband,115,79,sing,new,null,793.9461250999993,None,793.9461250999993,None,1,1.4602806000002602,793.9461250999993,None,1.4602806000002602,795.4308421999995,None,795.931326599999,None,795.931326599999,None,f,0.29137660000014876,795.931326599999,None,0.29137660000014876,,,sing9,001,2022_Aug_02_1422,ProdSingRedoBetween,2021.2.3,60.007116844327655,
,,,,79,0,79,0,,,,,,,,,,,,,,,,,,,,,,799.918713699999,None,,,,,,,,,,,,,,,,,individual,1,80,sing,old,yellow,796.7489281999988,None,796.7489281999988,None,4,2.2175368999996863,796.7489281999988,None,2.2175368999996863,798.9844065999987,None,799.4851159999998,None,799.4851159999998,None,f,0.4173090999993292,799.4851159999998,None,0.4173090999993292,,,sing9,001,2022_Aug_02_1422,ProdSingRedoBetween,2021.2.3,60.007116844327655,
,,,,80,0,80,0,,,,,,,,,,,,,,,,,,,,,,802.4044273999989,None,,,,,,,,,,,,,,,,,waste,167,81,sing,new,null,800.4192777999997,None,800.4192777999997,None,1,1.2992032999991352,800.4192777999997,None,1.2992032999991352,801.7412649999987,None,802.2544835999997,None,802.2544835999997,None,n,0.1199335000001156,802.2544835999997,None,0.1199335000001156,,,sing9,001,2022_Aug_02_1422,ProdSingRedoBetween,2021.2.3,60.007116844327655,
,,,,81,0,81,0,,,,,,,,,,,,,,,,,,,,,,806.3249431999993,None,,,,,,,,,,,,,,,,,death,85,82,sing,old,red,802.9050109999989,None,802.9050109999989,None,6,1.9093670999991446,802.9050109999989,None,1.9093670999991446,804.8432902999994,None,805.3575578,None,805.3575578,None,f,0.9448800000009214,805.3575578,None,0.9448800000009214,,,sing9,001,2022_Aug_02_1422,ProdSingRedoBetween,2021.2.3,60.007116844327655,
,,,,82,0,82,0,,,,,,,,,,,,,,,,,,,,,,812.7157943000002,None,,,,,,,,,,,,,,,,,power,99,83,sing,new,null,806.8256189999993,None,806.8256189999993,None,3,3.4449027000009664,806.8256189999993,None,3.4449027000009664,810.2957055999996,None,810.7993324999989,None,810.7993324999989,None,n,1.8950205000001006,810.7993324999989,None,1.8950205000001006,,,sing9,001,2022_Aug_02_1422,ProdSingRedoBetween,2021.2.3,60.007116844327655,
,,,,83,0,83,0,,,,,,,,,,,,,,,,,,,,,,815.3340630999992,None,,,,,,,,,,,,,,,,,committee,138,84,sing,new,null,813.2237669999995,None,813.2237669999995,None,1,1.4628290000000561,813.2237669999995,None,1.4628290000000561,814.7167511999996,None,815.2208250999993,None,815.2208250999993,None,n,0.08983739999894169,815.2208250999993,None,0.08983739999894169,,,sing9,001,2022_Aug_02_1422,ProdSingRedoBetween,2021.2.3,60.007116844327655,
,,,,84,0,84,0,,,,,,,,,,,,,,,,,,,,,,818.8876510999999,None,,,,,,,,,,,,,,,,,rural,129,85,sing,new,null,815.8358890999989,None,815.8358890999989,None,1,1.506564499999513,815.8358890999989,None,1.506564499999513,817.3694044999993,None,817.8728761999992,None,817.8728761999992,None,n,0.9976528999995935,817.8728761999992,None,0.9976528999995935,,,sing9,001,2022_Aug_02_1422,ProdSingRedoBetween,2021.2.3,60.007116844327655,
,,,,85,0,85,0,,,,,,,,,,,,,,,,,,,,,,822.5938325999996,None,,,,,,,,,,,,,,,,,write,165,86,sing,new,null,819.3988432999995,None,819.3988432999995,None,1,2.543725800000175,819.3988432999995,None,2.543725800000175,821.9611711999987,None,822.4774170000001,None,822.4774170000001,None,n,0.0892015999997966,822.4774170000001,None,0.0892015999997966,,,sing9,001,2022_Aug_02_1422,ProdSingRedoBetween,2021.2.3,60.007116844327655,
,,,,86,0,86,0,,,,,,,,,,,,,,,,,,,,,,826.8288618999995,None,,,,,,,,,,,,,,,,,speech,132,87,sing,new,null,823.1156625999993,None,823.1156625999993,None,1,1.3308904000004986,823.1156625999993,None,1.3308904000004986,824.4775599999994,None,824.9848669999992,None,824.9848669999992,None,n,1.8216597000009642,824.9848669999992,None,1.8216597000009642,,,sing9,001,2022_Aug_02_1422,ProdSingRedoBetween,2021.2.3,60.007116844327655,
,,,,87,0,87,0,,,,,,,,,,,,,,,,,,,,,,829.531524,None,,,,,,,,,,,,,,,,,poetry,69,88,sing,old,red,827.3381543999985,None,827.3381543999985,None,1,1.2683981000009226,827.3381543999985,None,1.2683981000009226,828.6319425999991,None,829.1383057999992,None,829.1383057999992,None,n,0.37226639999971667,829.1383057999992,None,0.37226639999971667,,,sing9,001,2022_Aug_02_1422,ProdSingRedoBetween,2021.2.3,60.007116844327655,
,,,,88,0,88,0,,,,,,,,,,,,,,,,,,,,,,833.0851371999997,None,,,,,,,,,,,,,,,,,bright,119,89,sing,new,null,830.0392876999995,None,830.0392876999995,None,1,1.4712349000001268,830.0392876999995,None,1.4712349000001268,831.5335956999988,None,832.0396806999997,None,832.0396806999997,None,n,1.014905699999872,832.0396806999997,None,1.014905699999872,,,sing9,001,2022_Aug_02_1422,ProdSingRedoBetween,2021.2.3,60.007116844327655,
,,,,89,0,89,0,,,,,,,,,,,,,,,,,,,,,,836.0214535999985,None,,,,,,,,,,,,,,,,,build,176,90,sing,new,null,833.5858358999994,None,833.5858358999994,None,1,1.3405977999991592,833.5858358999994,None,1.3405977999991592,834.9536989999997,None,835.4600113999986,None,835.4600113999986,None,n,0.538550999999643,835.4600113999986,None,0.538550999999643,,,sing9,001,2022_Aug_02_1422,ProdSingRedoBetween,2021.2.3,60.007116844327655,
,,,,90,0,90,0,,,,,,,,,,,,,,,,,,,,,,840.1257062999994,None,,,,,,,,,,,,,,,,,crowd,163,91,sing,new,null,836.5259518999992,None,836.5259518999992,None,4,2.8084603999996034,836.5259518999992,None,2.8084603999996034,839.3583941999987,None,839.858687599999,None,839.858687599999,None,r,0.2438912999987224,839.858687599999,None,0.2438912999987224,,,sing9,001,2022_Aug_02_1422,ProdSingRedoBetween,2021.2.3,60.007116844327655,
,,,,91,0,91,0,,,,,,,,,,,,,,,,,,,,,,843.8460111999993,None,,,,,,,,,,,,,,,,,little,86,92,sing,old,red,840.6330502000001,None,840.6330502000001,None,6,2.589451399999234,840.6330502000001,None,2.589451399999234,843.2463325999997,None,843.7495545999991,None,843.7495545999991,None,r,0.06509889999870211,843.7495545999991,None,0.06509889999870211,,,sing9,001,2022_Aug_02_1422,ProdSingRedoBetween,2021.2.3,60.007116844327655,
,,,,92,0,92,0,,,,,,,,,,,,,,,,,,,,,,847.2326419000001,None,,,,,,,,,,,,,,,,,quantity,60,93,sing,old,red,844.3499283000001,None,844.3499283000001,None,6,1.9366027999985818,844.3499283000001,None,1.9366027999985818,846.3151268999991,None,846.8156283999997,None,846.8156283999997,None,r,0.3908448000001954,846.8156283999997,None,0.3908448000001954,,,sing9,001,2022_Aug_02_1422,ProdSingRedoBetween,2021.2.3,60.007116844327655,
,,,,93,0,93,0,,,,,,,,,,,,,,,,,,,,,,850.0354952999987,None,,,,,,,,,,,,,,,,,hearing,123,94,sing,new,null,847.7413433000002,None,847.7413433000002,None,1,1.4012182999995275,847.7413433000002,None,1.4012182999995275,849.1702292999998,None,849.6852459999991,None,849.6852459999991,None,n,0.32132129999990866,849.6852459999991,None,0.32132129999990866,,,sing9,001,2022_Aug_02_1422,ProdSingRedoBetween,2021.2.3,60.007116844327655,
,,,,94,0,94,0,,,,,,,,,,,,,,,,,,,,,,852.7732293999998,None,,,,,,,,,,,,,,,,,worker,160,95,sing,new,null,850.5406550999996,None,850.5406550999996,None,1,1.313834599999609,850.5406550999996,None,1.313834599999609,851.8732811999998,None,852.3878255,None,852.3878255,None,n,0.3546122000007017,852.3878255,None,0.3546122000007017,,,sing9,001,2022_Aug_02_1422,ProdSingRedoBetween,2021.2.3,60.007116844327655,
,,,,95,0,95,0,,,,,,,,,,,,,,,,,,,,,,856.9590422000001,None,,,,,,,,,,,,,,,,,guide,107,96,sing,new,null,853.2927482999985,None,853.2927482999985,None,3,3.0338291000007303,853.2927482999985,None,3.0338291000007303,856.3417699999991,None,856.8468194999987,None,856.8468194999987,None,f,0.0877755999990768,856.8468194999987,None,0.0877755999990768,,,sing9,001,2022_Aug_02_1422,ProdSingRedoBetween,2021.2.3,60.007116844327655,
,,,,96,0,96,0,,,,,,,,,,,,,,,,,,,,,,859.6450040999989,None,,,,,,,,,,,,,,,,,threat,42,97,sing,old,blue,857.4671495999992,None,857.4671495999992,None,1,1.579475000000457,857.4671495999992,None,1.579475000000457,859.0778475999996,None,859.5819617999987,None,859.5819617999987,None,n,0.04060329999992973,859.5819617999987,None,0.04060329999992973,,,sing9,001,2022_Aug_02_1422,ProdSingRedoBetween,2021.2.3,60.007116844327655,
,,,,97,0,97,0,,,,,,,,,,,,,,,,,,,,,,863.4655654999988,None,,,,,,,,,,,,,,,,,pretty,48,98,sing,old,blue,860.1606714999998,None,860.1606714999998,None,6,2.0378129000000627,860.1606714999998,None,2.0378129000000627,862.2155755999993,None,862.718924499999,None,862.718924499999,None,r,0.7276480000000447,862.718924499999,None,0.7276480000000447,,,sing9,001,2022_Aug_02_1422,ProdSingRedoBetween,2021.2.3,60.007116844327655,
,,,,98,0,98,0,,,,,,,,,,,,,,,,,,,,,,868.3871435000001,None,,,,,,,,,,,,,,,,,people,97,99,sing,new,null,863.9688796999999,None,863.9688796999999,None,2,3.1577193000011903,863.9688796999999,None,3.1577193000011903,867.1538411999991,None,867.6532608999987,None,867.6532608999987,None,f,0.7133169999997335,867.6532608999987,None,0.7133169999997335,,,sing9,001,2022_Aug_02_1422,ProdSingRedoBetween,2021.2.3,60.007116844327655,
,,,,99,0,99,0,,,,,,,,,,,,,,,,,,,,,,874.7435055999995,None,,,,,,,,,,,,,,,,,signal,122,100,sing,new,null,868.8905748999987,None,868.8905748999987,None,2,4.660097100000712,868.8905748999987,None,4.660097100000712,873.5769995999999,None,874.078588299999,None,874.078588299999,None,f,0.640095000000656,874.078588299999,None,0.640095000000656,,,sing9,001,2022_Aug_02_1422,ProdSingRedoBetween,2021.2.3,60.007116844327655,
,,,,100,0,100,0,,,,,,,,,,,,,,,,,,,,,,877.8466461999997,None,,,,,,,,,,,,,,,,,department,91,101,sing,new,null,875.2455083999994,None,875.2455083999994,None,1,1.9370531999993545,875.2455083999994,None,1.9370531999993545,877.2170212000001,None,877.7300496999997,None,877.7300496999997,None,f,0.09266530000058992,877.7300496999997,None,0.09266530000058992,,,sing9,001,2022_Aug_02_1422,ProdSingRedoBetween,2021.2.3,60.007116844327655,
,,,,101,0,101,0,,,,,,,,,,,,,,,,,,,,,,881.3334027000001,None,,,,,,,,,,,,,,,,,incident,113,102,sing,new,null,878.3488574999992,None,878.3488574999992,None,1,1.4098540999984834,878.3488574999992,None,1.4098540999984834,879.7871256999988,None,880.299272799999,None,880.299272799999,None,f,1.0112843999995675,880.299272799999,None,1.0112843999995675,,,sing9,001,2022_Aug_02_1422,ProdSingRedoBetween,2021.2.3,60.007116844327655,
,,,,102,0,102,0,,,,,,,,,,,,,,,,,,,,,,887.6063686999987,None,,,,,,,,,,,,,,,,,territory,16,103,sing,old,yellow,881.8429006999995,None,881.8429006999995,None,6,2.491756699999314,881.8429006999995,None,2.491756699999314,884.3543598999986,None,884.859355999999,None,884.859355999999,None,f,2.731159700000717,884.859355999999,None,2.731159700000717,,,sing9,001,2022_Aug_02_1422,ProdSingRedoBetween,2021.2.3,60.007116844327655,
,,,,103,0,103,0,,,,,,,,,,,,,,,,,,,,,,892.5613373999986,None,,,,,,,,,,,,,,,,,suspect,0,104,sing,old,yellow,888.1162757999991,None,888.1162757999991,None,1,3.6822814000006474,888.1162757999991,None,3.6822814000006474,891.8280725999994,None,892.3279818999999,None,892.3279818999999,None,n,0.21463319999929809,892.3279818999999,None,0.21463319999929809,,,sing9,001,2022_Aug_02_1422,ProdSingRedoBetween,2021.2.3,60.007116844327655,
,,,,104,0,104,0,,,,,,,,,,,,,,,,,,,,,,897.9331832999997,None,,,,,,,,,,,,,,,,,block,49,105,sing,old,blue,893.0687914999999,None,893.0687914999999,None,4,2.033761200000299,893.0687914999999,None,2.033761200000299,895.1305577999992,None,895.6352114000001,None,895.6352114000001,None,f,2.275488100000075,895.6352114000001,None,2.275488100000075,,,sing9,001,2022_Aug_02_1422,ProdSingRedoBetween,2021.2.3,60.007116844327655,
,,,,105,0,105,0,,,,,,,,,,,,,,,,,,,,,,900.5527138999987,None,,,,,,,,,,,,,,,,,stand,41,106,sing,old,blue,898.4442811999998,None,898.4442811999998,None,3,1.4742118999984086,898.4442811999998,None,1.4742118999984086,899.9353101999986,None,900.4369852999989,None,900.4369852999989,None,f,0.09762090000003809,900.4369852999989,None,0.09762090000003809,,,sing9,001,2022_Aug_02_1422,ProdSingRedoBetween,2021.2.3,60.007116844327655,
,,,,106,0,106,0,,,,,,,,,,,,,,,,,,,,,,903.4555464999994,None,,,,,,,,,,,,,,,,,force,80,107,sing,old,red,901.0595170999986,None,901.0595170999986,None,1,1.587065799998527,901.0595170999986,None,1.587065799998527,902.672094399999,None,903.1721025999996,None,903.1721025999996,None,f,0.2584793999994872,903.1721025999996,None,0.2584793999994872,,,sing9,001,2022_Aug_02_1422,ProdSingRedoBetween,2021.2.3,60.007116844327655,
,,,,107,0,107,0,,,,,,,,,,,,,,,,,,,,,,908.5940152999992,None,,,,,,,,,,,,,,,,,entrance,72,108,sing,old,red,903.9621957999989,None,903.9621957999989,None,5,3.9163888999992196,903.9621957999989,None,3.9163888999992196,907.8942731999996,None,908.3939759999994,None,908.3939759999994,None,f,0.18071210000016436,908.3939759999994,None,0.18071210000016436,,,sing9,001,2022_Aug_02_1422,ProdSingRedoBetween,2021.2.3,60.007116844327655,
,,,,108,0,108,0,,,,,,,,,,,,,,,,,,,,,,912.1976576999987,None,,,,,,,,,,,,,,,,,brilliant,79,109,sing,old,red,909.0983877999988,None,909.0983877999988,None,6,1.9481843000012304,909.0983877999988,None,1.9481843000012304,911.0640614999993,None,911.5689330999994,None,911.5689330999994,None,r,0.6136968999999226,911.5689330999994,None,0.6136968999999226,,,sing9,001,2022_Aug_02_1422,ProdSingRedoBetween,2021.2.3,60.007116844327655,
,,,,109,0,109,0,,,,,,,,,,,,,,,,,,,,,,915.4840934999993,None,,,,,,,,,,,,,,,,,nation,37,110,sing,old,blue,912.6982716999992,None,912.6982716999992,None,6,1.9482182000010653,912.6982716999992,None,1.9482182000010653,914.6668021999994,None,915.1697941999992,None,915.1697941999992,None,r,0.2846822000010434,915.1697941999992,None,0.2846822000010434,,,sing9,001,2022_Aug_02_1422,ProdSingRedoBetween,2021.2.3,60.007116844327655,
,,,,110,0,110,0,,,,,,,,,,,,,,,,,,,,,,919.6217446999999,None,,,,,,,,,,,,,,,,,design,153,111,sing,new,null,915.9848191000001,None,915.9848191000001,None,1,1.837804499999038,915.9848191000001,None,1.837804499999038,917.8541903999994,None,918.3539351,None,918.3539351,None,f,1.252742100001342,918.3539351,None,1.252742100001342,,,sing9,001,2022_Aug_02_1422,ProdSingRedoBetween,2021.2.3,60.007116844327655,
,,,,111,0,111,0,,,,,,,,,,,,,,,,,,,,,,924.8603045999989,None,,,,,,,,,,,,,,,,,balance,21,112,sing,old,yellow,920.1304518999987,None,920.1304518999987,None,5,2.9961726999990788,920.1304518999987,None,2.9961726999990788,923.1440070999997,None,923.6592473000001,None,923.6592473000001,None,f,1.179403199999797,923.6592473000001,None,1.179403199999797,,,sing9,001,2022_Aug_02_1422,ProdSingRedoBetween,2021.2.3,60.007116844327655,
,,,,112,0,112,0,,,,,,,,,,,,,,,,,,,,,,930.9497574999987,None,,,,,,,,,,,,,,,,,concern,133,113,sing,new,null,925.3609495000001,None,925.3609495000001,None,2,4.853832400000101,925.3609495000001,None,4.853832400000101,930.2323016999999,None,930.7351922999987,None,930.7351922999987,None,n,0.19141169999966223,930.7351922999987,None,0.19141169999966223,,,sing9,001,2022_Aug_02_1422,ProdSingRedoBetween,2021.2.3,60.007116844327655,
,,,,113,0,113,0,,,,,,,,,,,,,,,,,,,,,,934.3365233999994,None,,,,,,,,,,,,,,,,,shear,33,114,sing,old,blue,931.4569947999989,None,931.4569947999989,None,1,1.413658999999825,931.4569947999989,None,1.413658999999825,932.9026068000003,None,933.40229,None,933.40229,None,n,0.9164276000010432,933.40229,None,0.9164276000010432,,,sing9,001,2022_Aug_02_1422,ProdSingRedoBetween,2021.2.3,60.007116844327655,
,,,,114,0,114,0,,,,,,,,,,,,,,,,,,,,,,936.9723981999996,None,,,,,,,,,,,,,,,,,swift,121,115,sing,new,null,934.8458034999985,None,934.8458034999985,None,1,1.3928257000006852,934.8458034999985,None,1.3928257000006852,936.2563730000002,None,936.7586113999987,None,936.7586113999987,None,n,0.19201409999914176,936.7586113999987,None,0.19201409999914176,,,sing9,001,2022_Aug_02_1422,ProdSingRedoBetween,2021.2.3,60.007116844327655,
,,,,115,0,115,0,,,,,,,,,,,,,,,,,,,,,,944.6300508999993,None,,,,,,,,,,,,,,,,,command,128,116,sing,new,null,937.4788773,None,937.4788773,None,4,5.63970479999989,937.4788773,None,5.63970479999989,943.1470522999989,None,943.6625483999997,None,943.6625483999997,None,f,0.9521026000002166,943.6625483999997,None,0.9521026000002166,,,sing9,001,2022_Aug_02_1422,ProdSingRedoBetween,2021.2.3,60.007116844327655,
,,,,116,0,116,0,,,,,,,,,,,,,,,,,,,,,,948.8676381999994,None,,,,,,,,,,,,,,,,,salary,76,117,sing,old,red,945.1472469,None,945.1472469,None,6,2.4913866000006237,945.1472469,None,2.4913866000006237,947.6702833999989,None,948.1837376999993,None,948.1837376999993,None,r,0.6629499000009673,948.1837376999993,None,0.6629499000009673,,,sing9,001,2022_Aug_02_1422,ProdSingRedoBetween,2021.2.3,60.007116844327655,
,,,,117,0,117,0,,,,,,,,,,,,,,,,,,,,,,952.2376724999995,None,,,,,,,,,,,,,,,,,bureau,10,118,sing,old,yellow,949.3801496999986,None,949.3801496999986,None,6,1.9225714999993215,949.3801496999986,None,1.9225714999993215,951.3234410999994,None,951.8378432999998,None,951.8378432999998,None,r,0.3848606999999902,951.8378432999998,None,0.3848606999999902,,,sing9,001,2022_Aug_02_1422,ProdSingRedoBetween,2021.2.3,60.007116844327655,
,,,,118,0,118,0,,,,,,,,,,,,,,,,,,,,,,954.5900471999994,None,,,,,,,,,,,,,,,,,novel,130,119,sing,new,null,952.7494632999988,None,952.7494632999988,None,1,1.1931464000008418,952.7494632999988,None,1.1931464000008418,953.9737327000003,None,954.4773189999996,None,954.4773189999996,None,n,0.09742130000086036,954.4773189999996,None,0.09742130000086036,,,sing9,001,2022_Aug_02_1422,ProdSingRedoBetween,2021.2.3,60.007116844327655,
,,,,119,0,119,0,,,,,,,,,,,,,,,,,,,,,,959.0111450999993,None,,,,,,,,,,,,,,,,,school,127,120,sing,new,null,955.1053628999998,None,955.1053628999998,None,2,2.7973327999989124,955.1053628999998,None,2.7973327999989124,957.926664999999,None,958.4309109999995,None,958.4309109999995,None,n,0.551714199998969,958.4309109999995,None,0.551714199998969,,,sing9,001,2022_Aug_02_1422,ProdSingRedoBetween,2021.2.3,60.007116844327655,
,,,,120,0,120,0,,,,,,,,,,,,,,,,,,,,,,961.6970427999986,None,,,,,,,,,,,,,,,,,point,120,121,sing,new,null,959.5121579999995,None,959.5121579999995,None,2,1.3424974999998085,959.5121579999995,None,1.3424974999998085,960.8808972999996,None,961.3802949000001,None,961.3802949000001,None,n,0.2903501000000688,961.3802949000001,None,0.2903501000000688,,,sing9,001,2022_Aug_02_1422,ProdSingRedoBetween,2021.2.3,60.007116844327655,
,,,,121,0,121,0,,,,,,,,,,,,,,,,,,,,,,964.5165842999995,None,,,,,,,,,,,,,,,,,voice,175,122,sing,new,null,962.2006963999993,None,962.2006963999993,None,1,1.3499452000014571,962.2006963999993,None,1.3499452000014571,963.5669278999994,None,964.0663496999987,None,964.0663496999987,None,n,0.4203785000008793,964.0663496999987,None,0.4203785000008793,,,sing9,001,2022_Aug_02_1422,ProdSingRedoBetween,2021.2.3,60.007116844327655,
,,,,122,0,122,0,,,,,,,,,,,,,,,,,,,,,,968.5039263999988,None,,,,,,,,,,,,,,,,,sunset,63,123,sing,old,red,965.0243847000002,None,965.0243847000002,None,4,2.854264699999476,965.0243847000002,None,2.854264699999476,967.9032850999993,None,968.4039316999988,None,968.4039316999988,None,f,0.08280369999920367,968.4039316999988,None,0.08280369999920367,,,sing9,001,2022_Aug_02_1422,ProdSingRedoBetween,2021.2.3,60.007116844327655,
,,,,123,0,123,0,,,,,,,,,,,,,,,,,,,,,,972.1093141999991,None,,,,,,,,,,,,,,,,,religion,24,124,sing,old,yellow,969.0104582999993,None,969.0104582999993,None,6,2.180037699999957,969.0104582999993,None,2.180037699999957,971.2143859999996,None,971.7248855999987,None,971.7248855999987,None,f,0.35397010000087903,971.7248855999987,None,0.35397010000087903,,,sing9,001,2022_Aug_02_1422,ProdSingRedoBetween,2021.2.3,60.007116844327655,
,,,,124,0,124,0,,,,,,,,,,,,,,,,,,,,,,974.8269018999999,None,,,,,,,,,,,,,,,,,private,102,125,sing,new,null,972.6304253999988,None,972.6304253999988,None,1,1.3681288000007044,972.6304253999988,None,1.3681288000007044,974.0273625999998,None,974.5307508999995,None,974.5307508999995,None,f,0.26788720000149624,974.5307508999995,None,0.26788720000149624,,,sing9,001,2022_Aug_02_1422,ProdSingRedoBetween,2021.2.3,60.007116844327655,
,,,,125,0,125,0,,,,,,,,,,,,,,,,,,,,,,978.8861554999985,None,,,,,,,,,,,,,,,,,opening,20,126,sing,old,yellow,975.3275008,None,975.3275008,None,1,2.4630383999992773,975.3275008,None,2.4630383999992773,977.8206629999986,None,978.3304782999985,None,978.3304782999985,None,r,0.5321366000007401,978.3304782999985,None,0.5321366000007401,,,sing9,001,2022_Aug_02_1422,ProdSingRedoBetween,2021.2.3,60.007116844327655,
,,,,126,0,126,0,,,,,,,,,,,,,,,,,,,,,,985.4893025000001,None,,,,,,,,,,,,,,,,,health,87,127,sing,old,red,979.4022871999987,None,979.4022871999987,None,2,5.364394700000048,979.4022871999987,None,5.364394700000048,984.7868671999986,None,985.2924801999998,None,985.2924801999998,None,n,0.17823069999940344,985.2924801999998,None,0.17823069999940344,,,sing9,001,2022_Aug_02_1422,ProdSingRedoBetween,2021.2.3,60.007116844327655,
,,,,127,0,127,0,,,,,,,,,,,,,,,,,,,,,,988.2903217999992,None,,,,,,,,,,,,,,,,,display,169,128,sing,new,null,986.0048093999994,None,986.0048093999994,None,1,1.386003499999788,986.0048093999994,None,1.386003499999788,987.4126187999991,None,987.9235264999988,None,987.9235264999988,None,n,0.3471705000010843,987.9235264999988,None,0.3471705000010843,,,sing9,001,2022_Aug_02_1422,ProdSingRedoBetween,2021.2.3,60.007116844327655,
,,,,128,0,128,0,,,,,,,,,,,,,,,,,,,,,,990.9430331999993,None,,,,,,,,,,,,,,,,,question,173,129,sing,new,null,988.7996648999997,None,988.7996648999997,None,1,1.2789009999996779,988.7996648999997,None,1.2789009999996779,990.1137289999988,None,990.6296176999986,None,990.6296176999986,None,n,0.2890750000005937,990.6296176999986,None,0.2890750000005937,,,sing9,001,2022_Aug_02_1422,ProdSingRedoBetween,2021.2.3,60.007116844327655,
,,,,129,0,129,0,,,,,,,,,,,,,,,,,,,,,,995.3307229000002,None,,,,,,,,,,,,,,,,,position,98,130,sing,new,null,991.4537599999985,None,991.4537599999985,None,6,2.0887615000010555,991.4537599999985,None,2.0887615000010555,993.5631299999986,None,994.0666290999998,None,994.0666290999998,None,f,1.2440486999985296,994.0666290999998,None,1.2440486999985296,,,sing9,001,2022_Aug_02_1422,ProdSingRedoBetween,2021.2.3,60.007116844327655,
,,,,130,0,130,0,,,,,,,,,,,,,,,,,,,,,,998.2336801000001,None,,,,,,,,,,,,,,,,,pattern,75,131,sing,old,red,995.8331287000001,None,995.8331287000001,None,1,1.4136304000003292,995.8331287000001,None,1.4136304000003292,997.267280099999,None,997.7705055999995,None,997.7705055999995,None,n,0.4442311000002519,997.7705055999995,None,0.4442311000002519,,,sing9,001,2022_Aug_02_1422,ProdSingRedoBetween,2021.2.3,60.007116844327655,
,,,,131,0,131,0,,,,,,,,,,,,,,,,,,,,,,1002.2876894000001,None,,,,,,,,,,,,,,,,,bitter,50,132,sing,old,blue,998.7455025999989,None,998.7455025999989,None,5,2.9571259999993345,998.7455025999989,None,2.9571259999993345,1001.7214525999989,None,1002.2246383000002,None,1002.2246383000002,None,f,0.045988400001078844,1002.2246383000002,None,0.045988400001078844,,,sing9,001,2022_Aug_02_1422,ProdSingRedoBetween,2021.2.3,60.007116844327655,
,,,,132,0,132,0,,,,,,,,,,,,,,,,,,,,,,1005.2739548999998,None,,,,,,,,,,,,,,,,,listen,83,133,sing,old,red,1002.7962379,None,1002.7962379,None,4,1.498421700000108,1002.7962379,None,1.498421700000108,1004.3239211,None,1004.8277080999997,None,1004.8277080999997,None,f,0.4188624999987951,1004.8277080999997,None,0.4188624999987951,,,sing9,001,2022_Aug_02_1422,ProdSingRedoBetween,2021.2.3,60.007116844327655,
,,,,133,0,133,0,,,,,,,,,,,,,,,,,,,,,,1007.7098335999999,None,,,,,,,,,,,,,,,,,mechanical,171,134,sing,new,null,1005.7806223999996,None,1005.7806223999996,None,1,1.3382990999998583,1005.7806223999996,None,1.3382990999998583,1007.1520344,None,1007.6618127999991,None,1007.6618127999991,None,n,0.017103800000768388,1007.6618127999991,None,0.017103800000768388,,,sing9,001,2022_Aug_02_1422,ProdSingRedoBetween,2021.2.3,60.007116844327655,
,,,,134,0,134,0,,,,,,,,,,,,,,,,,,,,,,1012.1975422999985,None,,,,,,,,,,,,,,,,,society,145,135,sing,new,null,1008.2129788999991,None,1008.2129788999991,None,3,2.3776947999995173,1008.2129788999991,None,2.3776947999995173,1010.6138255999995,None,1011.1133981000003,None,1011.1133981000003,None,f,1.0613149000000703,1011.1133981000003,None,1.0613149000000703,,,sing9,001,2022_Aug_02_1422,ProdSingRedoBetween,2021.2.3,60.007116844327655,
,,,,135,0,135,0,,,,,,,,,,,,,,,,,,,,,,1015.1339020999985,None,,,,,,,,,,,,,,,,,quick,95,136,sing,new,null,1012.7072945999989,None,1012.7072945999989,None,5,1.70739390000017,1012.7072945999989,None,1.70739390000017,1014.4345056999991,None,1014.9338014999994,None,1014.9338014999994,None,f,0.1768802999995387,1014.9338014999994,None,0.1768802999995387,,,sing9,001,2022_Aug_02_1422,ProdSingRedoBetween,2021.2.3,60.007116844327655,
,,,,136,0,136,0,,,,,,,,,,,,,,,,,,,,,,1017.4195892999996,None,,,,,,,,,,,,,,,,,public,172,137,sing,new,null,1015.645083899999,None,1015.645083899999,None,1,1.1695700000000215,1015.645083899999,None,1.1695700000000215,1016.8355456999998,None,1017.3399651999989,None,1017.3399651999989,None,n,0.05881439999939175,1017.3399651999989,None,0.05881439999939175,,,sing9,001,2022_Aug_02_1422,ProdSingRedoBetween,2021.2.3,60.007116844327655,
,,,,137,0,137,0,,,,,,,,,,,,,,,,,,,,,,1019.8886237999996,None,,,,,,,,,,,,,,,,,couch,152,138,sing,new,null,1017.9243451999992,None,1017.9243451999992,None,1,1.1862405000010767,1017.9243451999992,None,1.1862405000010767,1019.1379213,None,1019.6383553999985,None,1019.6383553999985,None,n,0.22423109999908775,1019.6383553999985,None,0.22423109999908775,,,sing9,001,2022_Aug_02_1422,ProdSingRedoBetween,2021.2.3,60.007116844327655,
,,,,138,0,138,0,,,,,,,,,,,,,,,,,,,,,,1022.5246329999991,None,,,,,,,,,,,,,,,,,division,53,139,sing,old,blue,1020.3914256999997,None,1020.3914256999997,None,1,1.3672098999995796,1020.3914256999997,None,1.3672098999995796,1021.7787766999991,None,1022.2912273000002,None,1022.2912273000002,None,n,0.21152579999943555,1022.2912273000002,None,0.21152579999943555,,,sing9,001,2022_Aug_02_1422,ProdSingRedoBetween,2021.2.3,60.007116844327655,
,,,,139,0,139,0,,,,,,,,,,,,,,,,,,,,,,1028.7641570999986,None,,,,,,,,,,,,,,,,,meeting,14,140,sing,old,yellow,1023.0280684999998,None,1023.0280684999998,None,2,4.386658399998851,1023.0280684999998,None,4.386658399998851,1027.4303975999992,None,1027.9335816999992,None,1027.9335816999992,None,n,0.8011611000001722,1027.9335816999992,None,0.8011611000001722,,,sing9,001,2022_Aug_02_1422,ProdSingRedoBetween,2021.2.3,60.007116844327655,
,,,,140,0,140,0,,,,,,,,,,,,,,,,,,,,,,1031.4335056,None,,,,,,,,,,,,,,,,,article,6,141,sing,old,yellow,1029.2723430999995,None,1029.2723430999995,None,1,1.3344297999992705,1029.2723430999995,None,1.3344297999992705,1030.6326869999994,None,1031.1346560999991,None,1031.1346560999991,None,n,0.2720352999986062,1031.1346560999991,None,0.2720352999986062,,,sing9,001,2022_Aug_02_1422,ProdSingRedoBetween,2021.2.3,60.007116844327655,
,,,,141,0,141,0,,,,,,,,,,,,,,,,,,,,,,1034.903667999999,None,,,,,,,,,,,,,,,,,cross,126,142,sing,new,null,1031.9403157999986,None,1031.9403157999986,None,1,2.3863297999996576,1031.9403157999986,None,2.3863297999996576,1034.358069,None,1034.8704302999995,None,1034.8704302999995,None,n,0.016250900000159163,1034.8704302999995,None,0.016250900000159163,,,sing9,001,2022_Aug_02_1422,ProdSingRedoBetween,2021.2.3,60.007116844327655,
,,,,142,0,142,0,,,,,,,,,,,,,,,,,,,,,,1037.7898652999993,None,,,,,,,,,,,,,,,,,court,118,143,sing,new,null,1035.4105233999999,None,1035.4105233999999,None,1,1.6840717999984918,1035.4105233999999,None,1.6840717999984918,1037.122567299999,None,1037.6231976999989,None,1037.6231976999989,None,n,0.14341700000113633,1037.6231976999989,None,0.14341700000113633,,,sing9,001,2022_Aug_02_1422,ProdSingRedoBetween,2021.2.3,60.007116844327655,
,,,,143,0,143,0,,,,,,,,,,,,,,,,,,,,,,1042.6113582999988,None,,,,,,,,,,,,,,,,,medicine,29,144,sing,old,blue,1038.2918412999989,None,1038.2918412999989,None,1,3.5386916999996174,1038.2918412999989,None,3.5386916999996174,1041.8604645999985,None,1042.3610405,None,1042.3610405,None,n,0.2295883999995567,1042.3610405,None,0.2295883999995567,,,sing9,001,2022_Aug_02_1422,ProdSingRedoBetween,2021.2.3,60.007116844327655,
,,,,144,0,144,0,,,,,,,,,,,,,,,,,,,,,,1045.5976866,None,,,,,,,,,,,,,,,,,direction,65,145,sing,old,red,1043.1150350999997,None,1043.1150350999997,None,2,1.7156654999998864,1043.1150350999997,None,1.7156654999998864,1044.8484434999991,None,1045.3475094999994,None,1045.3475094999994,None,n,0.23521269999946526,1045.3475094999994,None,0.23521269999946526,,,sing9,001,2022_Aug_02_1422,ProdSingRedoBetween,2021.2.3,60.007116844327655,
,,,,145,0,145,0,,,,,,,,,,,,,,,,,,,,,,1048.266963,None,,,,,,,,,,,,,,,,,curve,157,146,sing,new,null,1046.1093473,None,1046.1093473,None,1,1.2813820999999734,1046.1093473,None,1.2813820999999734,1047.4209015999986,None,1047.933396299999,None,1047.933396299999,None,n,0.31349389999923005,1047.933396299999,None,0.31349389999923005,,,sing9,001,2022_Aug_02_1422,ProdSingRedoBetween,2021.2.3,60.007116844327655,
,,,,146,0,146,0,,,,,,,,,,,,,,,,,,,,,,1051.7037126999985,None,,,,,,,,,,,,,,,,,platform,52,147,sing,old,blue,1048.7704269999995,None,1048.7704269999995,None,4,1.972231499999907,1048.7704269999995,None,1.972231499999907,1050.7703348999985,None,1051.2780518,None,1051.2780518,None,f,0.4006503000000521,1051.2780518,None,0.4006503000000521,,,sing9,001,2022_Aug_02_1422,ProdSingRedoBetween,2021.2.3,60.007116844327655,
,,,,147,0,147,0,,,,,,,,,,,,,,,,,,,,,,1056.3750664,None,,,,,,,,,,,,,,,,,broke,47,148,sing,old,blue,1052.2156857999998,None,1052.2156857999998,None,5,2.015047400000185,1052.2156857999998,None,2.015047400000185,1054.2576603999987,None,1054.7569969999986,None,1054.7569969999986,None,r,1.5937584000002971,1054.7569969999986,None,1.5937584000002971,,,sing9,001,2022_Aug_02_1422,ProdSingRedoBetween,2021.2.3,60.007116844327655,
,,,,148,0,148,0,,,,,,,,,,,,,,,,,,,,,,1059.8786278999996,None,,,,,,,,,,,,,,,,,blind,103,149,sing,new,null,1056.8823800999999,None,1056.8823800999999,None,1,2.180409900000086,1056.8823800999999,None,2.180409900000086,1059.0787349000002,None,1059.5785221999995,None,1059.5785221999995,None,f,0.27624269999978424,1059.5785221999995,None,0.27624269999978424,,,sing9,001,2022_Aug_02_1422,ProdSingRedoBetween,2021.2.3,60.007116844327655,
,,,,149,0,149,0,,,,,,,,,,,,,,,,,,,,,,1062.7480789,None,,,,,,,,,,,,,,,,,afternoon,28,150,sing,old,yellow,1060.3903388999988,None,1060.3903388999988,None,1,1.6884484000001976,1060.3903388999988,None,1.6884484000001976,1062.0986790999996,None,1062.6001985000003,None,1062.6001985000003,None,n,0.12656710000010207,1062.6001985000003,None,0.12656710000010207,,,sing9,001,2022_Aug_02_1422,ProdSingRedoBetween,2021.2.3,60.007116844327655,
,,,,150,0,150,0,,,,,,,,,,,,,,,,,,,,,,1066.1682218999995,None,,,,,,,,,,,,,,,,,birth,51,151,sing,old,blue,1063.2560615000002,None,1063.2560615000002,None,6,1.966953499999363,1063.2560615000002,None,1.966953499999363,1065.2585288999999,None,1065.7715998999993,None,1065.7715998999993,None,r,0.3712474999992992,1065.7715998999993,None,0.3712474999992992,,,sing9,001,2022_Aug_02_1422,ProdSingRedoBetween,2021.2.3,60.007116844327655,
,,,,151,0,151,0,,,,,,,,,,,,,,,,,,,,,,1068.8066873999996,None,,,,,,,,,,,,,,,,,height,162,152,sing,new,null,1066.6702862999991,None,1066.6702862999991,None,1,1.288431999999375,1066.6702862999991,None,1.288431999999375,1067.9867878999994,None,1068.4907693999994,None,1068.4907693999994,None,n,0.2921857999990607,1068.4907693999994,None,0.2921857999990607,,,sing9,001,2022_Aug_02_1422,ProdSingRedoBetween,2021.2.3,60.007116844327655,
,,,,152,0,152,0,,,,,,,,,,,,,,,,,,,,,,1071.0564932999987,None,,,,,,,,,,,,,,,,,pressure,112,153,sing,new,null,1069.3223609999986,None,1069.3223609999986,None,1,1.124400599999717,1069.3223609999986,None,1.124400599999717,1070.4780601999992,None,1070.9918529999995,None,1070.9918529999995,None,n,0.04699430000073335,1070.9918529999995,None,0.04699430000073335,,,sing9,001,2022_Aug_02_1422,ProdSingRedoBetween,2021.2.3,60.007116844327655,
,,,,153,0,153,0,,,,,,,,,,,,,,,,,,,,,,1074.6934862999988,None,,,,,,,,,,,,,,,,,sleep,111,154,sing,new,null,1071.5695706999995,None,1071.5695706999995,None,3,2.4452010999993945,1071.5695706999995,None,2.4452010999993945,1074.0461637999997,None,1074.5601241999993,None,1074.5601241999993,None,f,0.10272840000106953,1074.5601241999993,None,0.10272840000106953,,,sing9,001,2022_Aug_02_1422,ProdSingRedoBetween,2021.2.3,60.007116844327655,
,,,,154,0,154,0,,,,,,,,,,,,,,,,,,,,,,1078.4138435999994,None,,,,,,,,,,,,,,,,,machinery,178,155,sing,new,null,1075.1999062999985,None,1075.1999062999985,None,1,2.478847999998834,1075.1999062999985,None,2.478847999998834,1077.701521699999,None,1078.2138373999987,None,1078.2138373999987,None,n,0.16889350000019476,1078.2138373999987,None,0.16889350000019476,,,sing9,001,2022_Aug_02_1422,ProdSingRedoBetween,2021.2.3,60.007116844327655,
,,,,155,0,155,0,,,,,,,,,,,,,,,,,,,,,,1080.7494324999989,None,,,,,,,,,,,,,,,,,addition,125,156,sing,new,null,1078.9229777,None,1078.9229777,None,1,1.1636412000007113,1078.9229777,None,1.1636412000007113,1080.118993,None,1080.6340968999993,None,1080.6340968999993,None,n,0.09282700000039767,1080.6340968999993,None,0.09282700000039767,,,sing9,001,2022_Aug_02_1422,ProdSingRedoBetween,2021.2.3,60.007116844327655,
,,,,156,0,156,0,,,,,,,,,,,,,,,,,,,,,,1083.2185778999992,None,,,,,,,,,,,,,,,,,route,156,157,sing,new,null,1081.265448799999,None,1081.265448799999,None,1,1.3812895999999455,1081.265448799999,None,1.3812895999999455,1082.6690419999995,None,1083.1742438,None,1083.1742438,None,n,0.024537600000257953,1083.1742438,None,0.024537600000257953,,,sing9,001,2022_Aug_02_1422,ProdSingRedoBetween,2021.2.3,60.007116844327655,
,,,,157,0,157,0,,,,,,,,,,,,,,,,,,,,,,1085.5041889999993,None,,,,,,,,,,,,,,,,,generation,158,158,sing,new,null,1083.7205607999986,None,1083.7205607999986,None,1,1.1503501000006509,1083.7205607999986,None,1.1503501000006509,1084.8902780999997,None,1085.404330899999,None,1085.404330899999,None,n,0.08241200000156823,1085.404330899999,None,0.08241200000156823,,,sing9,001,2022_Aug_02_1422,ProdSingRedoBetween,2021.2.3,60.007116844327655,
,,,,158,0,158,0,,,,,,,,,,,,,,,,,,,,,,1088.5739823999993,None,,,,,,,,,,,,,,,,,orchestra,54,159,sing,old,blue,1086.0074287999996,None,1086.0074287999996,None,6,1.807397000000492,1086.0074287999996,None,1.807397000000492,1087.8411027000002,None,1088.3405755999993,None,1088.3405755999993,None,r,0.21813120000115305,1088.3405755999993,None,0.21813120000115305,,,sing9,001,2022_Aug_02_1422,ProdSingRedoBetween,2021.2.3,60.007116844327655,
,,,,159,0,159,0,,,,,,,,,,,,,,,,,,,,,,1095.1520330999992,None,,,,,,,,,,,,,,,,,session,146,160,sing,new,null,1089.0870125000001,None,1089.0870125000001,None,2,4.9758679999995366,1089.0870125000001,None,4.9758679999995366,1094.0864225999994,None,1094.6015776999993,None,1094.6015776999993,None,n,0.5171910000008211,1094.6015776999993,None,0.5171910000008211,,,sing9,001,2022_Aug_02_1422,ProdSingRedoBetween,2021.2.3,60.007116844327655,
,,,,160,0,160,0,,,,,,,,,,,,,,,,,,,,,,1098.9843012000001,None,,,,,,,,,,,,,,,,,century,71,161,sing,old,red,1095.6730735,None,1095.6730735,None,5,2.597772500001156,1095.6730735,None,2.597772500001156,1098.3097245999998,None,1098.8254995999996,None,1098.8254995999996,None,f,0.14123769999969227,1098.8254995999996,None,0.14123769999969227,,,sing9,001,2022_Aug_02_1422,ProdSingRedoBetween,2021.2.3,60.007116844327655,
,,,,161,0,161,0,,,,,,,,,,,,,,,,,,,,,,1102.4377632999986,None,,,,,,,,,,,,,,,,,minute,9,162,sing,old,yellow,1099.4913383999992,None,1099.4913383999992,None,4,2.171501900000294,1099.4913383999992,None,2.171501900000294,1101.6917330999986,None,1102.2043410999995,None,1102.2043410999995,None,f,0.20234270000037213,1102.2043410999995,None,0.20234270000037213,,,sing9,001,2022_Aug_02_1422,ProdSingRedoBetween,2021.2.3,60.007116844327655,
,,,,162,0,162,0,,,,,,,,,,,,,,,,,,,,,,1105.5407065999989,None,,,,,,,,,,,,,,,,,strength,134,163,sing,new,null,1102.9456039999986,None,1102.9456039999986,None,1,1.6772381000009773,1102.9456039999986,None,1.6772381000009773,1104.6437085999987,None,1105.1573534999989,None,1105.1573534999989,None,n,0.3533141000007163,1105.1573534999989,None,0.3533141000007163,,,sing9,001,2022_Aug_02_1422,ProdSingRedoBetween,2021.2.3,60.007116844327655,
,,,,163,0,163,0,,,,,,,,,,,,,,,,,,,,,,1109.0443822999987,None,,,,,,,,,,,,,,,,,tennis,93,164,sing,new,null,1106.0505634,None,1106.0505634,None,1,1.212062500000684,1106.0505634,None,1.212062500000684,1107.2927787999997,None,1107.7958679999992,None,1107.7958679999992,None,r,1.2269308000013552,1107.7958679999992,None,1.2269308000013552,,,sing9,001,2022_Aug_02_1422,ProdSingRedoBetween,2021.2.3,60.007116844327655,
,,,,164,0,164,0,,,,,,,,,,,,,,,,,,,,,,1111.8138827000002,None,,,,,,,,,,,,,,,,,patient,164,165,sing,new,null,1109.5448648000001,None,1109.5448648000001,None,1,1.3659291999993002,1109.5448648000001,None,1.3659291999993002,1110.9304745999998,None,1111.435824799999,None,1111.435824799999,None,n,0.3629277000000002,1111.435824799999,None,0.3629277000000002,,,sing9,001,2022_Aug_02_1422,ProdSingRedoBetween,2021.2.3,60.007116844327655,
,,,,165,0,165,0,,,,,,,,,,,,,,,,,,,,,,1114.149537199999,None,,,,,,,,,,,,,,,,,notice,104,166,sing,new,null,1112.3206484000002,None,1112.3206484000002,None,1,1.0620206000003236,1112.3206484000002,None,1.0620206000003236,1113.3987937000002,None,1113.8993633999999,None,1113.8993633999999,None,n,0.23548029999983555,1113.8993633999999,None,0.23548029999983555,,,sing9,001,2022_Aug_02_1422,ProdSingRedoBetween,2021.2.3,60.007116844327655,
,,,,166,0,166,0,,,,,,,,,,,,,,,,,,,,,,1116.401871,None,,,,,,,,,,,,,,,,,piece,148,167,sing,new,null,1114.6529914999992,None,1114.6529914999992,None,1,1.0657798999982333,1114.6529914999992,None,1.0657798999982333,1115.7344928999992,None,1116.2370414999987,None,1116.2370414999987,None,n,0.14598759999898903,1116.2370414999987,None,0.14598759999898903,,,sing9,001,2022_Aug_02_1422,ProdSingRedoBetween,2021.2.3,60.007116844327655,
,,,,167,0,167,0,,,,,,,,,,,,,,,,,,,,,,1118.6707576999997,None,,,,,,,,,,,,,,,,,author,154,168,sing,new,null,1116.9078842,None,1116.9078842,None,1,1.1229851999996754,1116.9078842,None,1.1229851999996754,1118.0534331999988,None,1118.5569141999986,None,1118.5569141999986,None,n,0.08998700000120152,1118.5569141999986,None,0.08998700000120152,,,sing9,001,2022_Aug_02_1422,ProdSingRedoBetween,2021.2.3,60.007116844327655,
,,,,168,0,168,0,,,,,,,,,,,,,,,,,,,,,,1122.9917454999995,None,,,,,,,,,,,,,,,,,judge,8,169,sing,old,yellow,1119.1774780999986,None,1119.1774780999986,None,3,2.885236799998893,1119.1774780999986,None,2.885236799998893,1122.0917657999998,None,1122.591513899999,None,1122.591513899999,None,f,0.38323229999878095,1122.591513899999,None,0.38323229999878095,,,sing9,001,2022_Aug_02_1422,ProdSingRedoBetween,2021.2.3,60.007116844327655,
,,,,169,0,169,0,,,,,,,,,,,,,,,,,,,,,,1127.346091899999,None,,,,,,,,,,,,,,,,,gesture,38,170,sing,old,blue,1123.5010292999996,None,1123.5010292999996,None,1,2.849799900001017,1123.5010292999996,None,2.849799900001017,1126.3828918,None,1126.8957580999995,None,1126.8957580999995,None,n,0.4310169999989739,1126.8957580999995,None,0.4310169999989739,,,sing9,001,2022_Aug_02_1422,ProdSingRedoBetween,2021.2.3,60.007116844327655,
,,,,170,0,170,0,,,,,,,,,,,,,,,,,,,,,,1129.6150034000002,None,,,,,,,,,,,,,,,,,mankind,105,171,sing,new,null,1127.8536606999987,None,1127.8536606999987,None,1,1.0412164000008488,1127.8536606999987,None,1.0412164000008488,1128.9207940999986,None,1129.4342172999986,None,1129.4342172999986,None,n,0.15661290000025474,1129.4342172999986,None,0.15661290000025474,,,sing9,001,2022_Aug_02_1422,ProdSingRedoBetween,2021.2.3,60.007116844327655,
,,,,171,0,171,0,,,,,,,,,,,,,,,,,,,,,,1131.7672084999995,None,,,,,,,,,,,,,,,,,sight,70,172,sing,old,red,1130.1217848999986,None,1130.1217848999986,None,1,0.7489802000000054,1130.1217848999986,None,0.7489802000000054,1130.8997703999994,None,1131.404757799999,None,1131.404757799999,None,n,0.3459880999998859,1131.404757799999,None,0.3459880999998859,,,sing9,001,2022_Aug_02_1422,ProdSingRedoBetween,2021.2.3,60.007116844327655,
,,,,172,0,172,0,,,,,,,,,,,,,,,,,,,,,,1134.2696343999996,None,,,,,,,,,,,,,,,,,pancakes,143,173,sing,new,null,1132.2799130999992,None,1132.2799130999992,None,1,1.302970799999457,1132.2799130999992,None,1.302970799999457,1133.6039627999999,None,1134.1084916,None,1134.1084916,None,n,0.14633660000072268,1134.1084916,None,0.14633660000072268,,,sing9,001,2022_Aug_02_1422,ProdSingRedoBetween,2021.2.3,60.007116844327655,
,,,,173,0,173,0,,,,,,,,,,,,,,,,,,,,,,1137.6063454999985,None,,,,,,,,,,,,,,,,,device,3,174,sing,old,yellow,1134.773385999999,None,1134.773385999999,None,4,2.2092785999993794,1134.773385999999,None,2.2092785999993794,1137.0069664000002,None,1137.5102533999998,None,1137.5102533999998,None,f,0.07257460000073479,1137.5102533999998,None,0.07257460000073479,,,sing9,001,2022_Aug_02_1422,ProdSingRedoBetween,2021.2.3,60.007116844327655,
,,,,174,0,174,0,,,,,,,,,,,,,,,,,,,,,,1140.3257056000002,None,,,,,,,,,,,,,,,,,reading,7,175,sing,old,yellow,1138.1122682999994,None,1138.1122682999994,None,1,1.5584194999992178,1138.1122682999994,None,1.5584194999992178,1139.6939010999995,None,1140.2090911999985,None,1140.2090911999985,None,n,0.1017640999998548,1140.2090911999985,None,0.1017640999998548,,,sing9,001,2022_Aug_02_1422,ProdSingRedoBetween,2021.2.3,60.007116844327655,
,,,,175,0,175,0,,,,,,,,,,,,,,,,,,,,,,1148.667371399999,None,,,,,,,,,,,,,,,,,brief,100,176,sing,new,null,1140.8314157999994,None,1140.8314157999994,None,2,4.399419100000159,1140.8314157999994,None,4.399419100000159,1145.2472620999997,None,1145.7537144999988,None,1145.7537144999988,None,n,2.8850743000002694,1145.7537144999988,None,2.8850743000002694,,,sing9,001,2022_Aug_02_1422,ProdSingRedoBetween,2021.2.3,60.007116844327655,
,,,,176,0,176,0,,,,,,,,,,,,,,,,,,,,,,1151.3701119999987,None,,,,,,,,,,,,,,,,,background,159,177,sing,new,null,1149.1780063999995,None,1149.1780063999995,None,1,1.3248492999991868,1149.1780063999995,None,1.3248492999991868,1150.5204997,None,1151.0264429999988,None,1151.0264429999988,None,n,0.3244616000010865,1151.0264429999988,None,0.3244616000010865,,,sing9,001,2022_Aug_02_1422,ProdSingRedoBetween,2021.2.3,60.007116844327655,
,,,,177,0,177,0,,,,,,,,,,,,,,,,,,,,,,1153.572301799999,None,,,,,,,,,,,,,,,,,agency,90,178,sing,new,null,1151.8733674999985,None,1151.8733674999985,None,1,0.9814179000004515,1151.8733674999985,None,0.9814179000004515,1152.872551299999,None,1153.3781050999987,None,1153.3781050999987,None,n,0.1728413000000728,1153.3781050999987,None,0.1728413000000728,,,sing9,001,2022_Aug_02_1422,ProdSingRedoBetween,2021.2.3,60.007116844327655,
,,,,178,0,178,0,,,,,,,,,,,,,,,,,,,,,,1156.4418472999987,None,,,,,,,,,,,,,,,,,community,114,179,sing,new,null,1154.080922699999,None,1154.080922699999,None,4,1.733792099999846,1154.080922699999,None,1.733792099999846,1155.8423994999994,None,1156.347554599999,None,1156.347554599999,None,f,0.06714699999974982,1156.347554599999,None,0.06714699999974982,,,sing9,001,2022_Aug_02_1422,ProdSingRedoBetween,2021.2.3,60.007116844327655,
,,,,179,0,179,0,,,,,,,,,,,,,,,,,,,,,,1159.7118001,None,,,,,,,,,,,,,,,,,review,61,180,sing,old,red,1156.9508535999994,None,1156.9508535999994,None,1,1.5360376999997243,1156.9508535999994,None,1.5360376999997243,1158.5120548999985,None,1159.0176169999995,None,1159.0176169999995,None,n,0.6692691999996896,1159.0176169999995,None,0.6692691999996896,,,sing9,001,2022_Aug_02_1422,ProdSingRedoBetween,2021.2.3,60.007116844327655,
,,,,,,,,,,,,,,,,,,,,,,,,,,,,,,,,,,,,,,,,,,,,,,,,,,,,,,,,,,,,,,,,,,,,,,,,,1160.212942799999,None,,,,,,,
