StudyLoop.thisRepN,StudyLoop.thisTrialN,StudyLoop.thisN,StudyLoop.thisIndex,TestLoop.thisRepN,TestLoop.thisTrialN,TestLoop.thisN,TestLoop.thisIndex,textCondition.started,textCondition.stopped,keyCondition.keys,keyCondition.rt,keyCondition.started,keyCondition.stopped,Condition,textWelcome.started,textWelcome.stopped,keyWelcome.keys,keyWelcome.rt,keyWelcome.started,keyWelcome.stopped,textAloud.started,textAloud.stopped,textSilent.started,textSilent.stopped,textSing.started,textSing.stopped,conditional_text.started,conditional_text.stopped,textBlank500.started,textBlank500.stopped,study_word,study_num,study_order,study_type,word_color,textStudy.started,textStudy.stopped,keyStudy.keys,keyStudy.started,keyStudy.stopped,textTestInstructions.started,textTestInstructions.stopped,key_resp_3.keys,key_resp_3.rt,key_resp_3.started,key_resp_3.stopped,test_word,test_num,test_order,test_condition,old_new_test,test_word_original_color,textConf.started,textConf.stopped,textConfScale.started,textConfScale.stopped,keyConf.keys,keyConf.rt,keyConf.started,keyConf.stopped,confidence response time,textTestBlank.started,textTestBlank.stopped,textRKN.started,textRKN.stopped,textRKNScale.started,textRKNScale.stopped,keyRKN.keys,keyRKN.rt,keyRKN.started,keyRKN.stopped,rkn response time,textEnd.started,textEnd.stopped,participant,session,date,expName,psychopyVersion,frameRate
,,,,,,,,41.2524571,None,c,4.9914226,41.2524571,None,,,,,,,,,,,,,,,,,,,,,,,,,,,,,,,,,,,,,,,,,,,,,,,,,,,,,,,,,,,,,,June27Sing1,1,2022_Jun_27_1319,ProdSingRedoBetween,2021.2.3,59.90646205
,,,,,,,,,,,,,,SingTest,46.3130597,None,space,2277.393181,46.3130597,None,,,,,,,,,,,,,,,,,,,,,,,,,,,,,,,,,,,,,,,,,,,,,,,,,,,,,,,June27Sing1,1,2022_Jun_27_1319,ProdSingRedoBetween,2021.2.3,59.90646205
0,0,0,0,,,,,,,,,,,,,,,,,,46.3130597,None,46.3130597,None,46.3130597,None,46.3130597,None,2326.245361,None,sunset,6,1,sing,yellow,2324.242673,None,None,2324.242673,None,,,,,,,,,,,,,,,,,,,,,,,,,,,,,,,,,,,June27Sing1,1,2022_Jun_27_1319,ProdSingRedoBetween,2021.2.3,59.90646205
1,0,1,0,,,,,,,,,,,,,,,,,,,,,,,,,,2328.764301,None,weather,21,2,sing,yellow,2326.749774,None,None,2326.749774,None,,,,,,,,,,,,,,,,,,,,,,,,,,,,,,,,,,,June27Sing1,1,2022_Jun_27_1319,ProdSingRedoBetween,2021.2.3,59.90646205
2,0,2,0,,,,,,,,,,,,,,,,,,,,,,,,,,2331.267238,None,captain,30,3,sing,blue,2329.268181,None,None,2329.268181,None,,,,,,,,,,,,,,,,,,,,,,,,,,,,,,,,,,,June27Sing1,1,2022_Jun_27_1319,ProdSingRedoBetween,2021.2.3,59.90646205
3,0,3,0,,,,,,,,,,,,,,,,,,,,,,,,,,2333.769415,None,union,71,4,sing,red,2331.769028,None,None,2331.769028,None,,,,,,,,,,,,,,,,,,,,,,,,,,,,,,,,,,,June27Sing1,1,2022_Jun_27_1319,ProdSingRedoBetween,2021.2.3,59.90646205
4,0,4,0,,,,,,,,,,,,,,,,,,,,,,,,,,2336.271788,None,place,45,5,sing,blue,2334.271692,None,None,2334.271692,None,,,,,,,,,,,,,,,,,,,,,,,,,,,,,,,,,,,June27Sing1,1,2022_Jun_27_1319,ProdSingRedoBetween,2021.2.3,59.90646205
5,0,5,0,,,,,,,,,,,,,,,,,,,,,,,,,,2338.791206,None,cousin,15,6,sing,yellow,2336.77867,None,None,2336.77867,None,,,,,,,,,,,,,,,,,,,,,,,,,,,,,,,,,,,June27Sing1,1,2022_Jun_27_1319,ProdSingRedoBetween,2021.2.3,59.90646205
6,0,6,0,,,,,,,,,,,,,,,,,,,,,,,,,,2341.310041,None,leader,75,7,sing,red,2339.297589,None,None,2339.297589,None,,,,,,,,,,,,,,,,,,,,,,,,,,,,,,,,,,,June27Sing1,1,2022_Jun_27_1319,ProdSingRedoBetween,2021.2.3,59.90646205
7,0,7,0,,,,,,,,,,,,,,,,,,,,,,,,,,2343.829351,None,enemy,50,8,sing,blue,2341.818312,None,None,2341.818312,None,,,,,,,,,,,,,,,,,,,,,,,,,,,,,,,,,,,June27Sing1,1,2022_Jun_27_1319,ProdSingRedoBetween,2021.2.3,59.90646205
8,0,8,0,,,,,,,,,,,,,,,,,,,,,,,,,,2346.331929,None,public,2,9,sing,yellow,2344.332876,None,None,2344.332876,None,,,,,,,,,,,,,,,,,,,,,,,,,,,,,,,,,,,June27Sing1,1,2022_Jun_27_1319,ProdSingRedoBetween,2021.2.3,59.90646205
9,0,9,0,,,,,,,,,,,,,,,,,,,,,,,,,,2348.834422,None,revolution,42,10,sing,blue,2346.8347,None,None,2346.8347,None,,,,,,,,,,,,,,,,,,,,,,,,,,,,,,,,,,,June27Sing1,1,2022_Jun_27_1319,ProdSingRedoBetween,2021.2.3,59.90646205
10,0,10,0,,,,,,,,,,,,,,,,,,,,,,,,,,2351.353644,None,music,86,11,sing,red,2349.346014,None,None,2349.346014,None,,,,,,,,,,,,,,,,,,,,,,,,,,,,,,,,,,,June27Sing1,1,2022_Jun_27_1319,ProdSingRedoBetween,2021.2.3,59.90646205
11,0,11,0,,,,,,,,,,,,,,,,,,,,,,,,,,2353.856113,None,under,83,12,sing,red,2351.855122,None,None,2351.855122,None,,,,,,,,,,,,,,,,,,,,,,,,,,,,,,,,,,,June27Sing1,1,2022_Jun_27_1319,ProdSingRedoBetween,2021.2.3,59.90646205
12,0,12,0,,,,,,,,,,,,,,,,,,,,,,,,,,2356.375394,None,quarter,14,13,sing,yellow,2354.367926,None,None,2354.367926,None,,,,,,,,,,,,,,,,,,,,,,,,,,,,,,,,,,,June27Sing1,1,2022_Jun_27_1319,ProdSingRedoBetween,2021.2.3,59.90646205
13,0,13,0,,,,,,,,,,,,,,,,,,,,,,,,,,2358.877841,None,century,82,14,sing,red,2356.877178,None,None,2356.877178,None,,,,,,,,,,,,,,,,,,,,,,,,,,,,,,,,,,,June27Sing1,1,2022_Jun_27_1319,ProdSingRedoBetween,2021.2.3,59.90646205
14,0,14,0,,,,,,,,,,,,,,,,,,,,,,,,,,2361.380474,None,republic,53,15,sing,blue,2359.380575,None,None,2359.380575,None,,,,,,,,,,,,,,,,,,,,,,,,,,,,,,,,,,,June27Sing1,1,2022_Jun_27_1319,ProdSingRedoBetween,2021.2.3,59.90646205
15,0,15,0,,,,,,,,,,,,,,,,,,,,,,,,,,2363.899532,None,husband,51,16,sing,blue,2361.885603,None,None,2361.885603,None,,,,,,,,,,,,,,,,,,,,,,,,,,,,,,,,,,,June27Sing1,1,2022_Jun_27_1319,ProdSingRedoBetween,2021.2.3,59.90646205
16,0,16,0,,,,,,,,,,,,,,,,,,,,,,,,,,2366.402051,None,skill,10,17,sing,yellow,2364.401224,None,None,2364.401224,None,,,,,,,,,,,,,,,,,,,,,,,,,,,,,,,,,,,June27Sing1,1,2022_Jun_27_1319,ProdSingRedoBetween,2021.2.3,59.90646205
17,0,17,0,,,,,,,,,,,,,,,,,,,,,,,,,,2368.904702,None,silence,9,18,sing,yellow,2366.903062,None,None,2366.903062,None,,,,,,,,,,,,,,,,,,,,,,,,,,,,,,,,,,,June27Sing1,1,2022_Jun_27_1319,ProdSingRedoBetween,2021.2.3,59.90646205
18,0,18,0,,,,,,,,,,,,,,,,,,,,,,,,,,2371.423743,None,device,57,19,sing,blue,2369.415287,None,None,2369.415287,None,,,,,,,,,,,,,,,,,,,,,,,,,,,,,,,,,,,June27Sing1,1,2022_Jun_27_1319,ProdSingRedoBetween,2021.2.3,59.90646205
19,0,19,0,,,,,,,,,,,,,,,,,,,,,,,,,,2373.926128,None,community,41,20,sing,blue,2371.924188,None,None,2371.924188,None,,,,,,,,,,,,,,,,,,,,,,,,,,,,,,,,,,,June27Sing1,1,2022_Jun_27_1319,ProdSingRedoBetween,2021.2.3,59.90646205
20,0,20,0,,,,,,,,,,,,,,,,,,,,,,,,,,2376.445296,None,question,67,21,sing,red,2374.439123,None,None,2374.439123,None,,,,,,,,,,,,,,,,,,,,,,,,,,,,,,,,,,,June27Sing1,1,2022_Jun_27_1319,ProdSingRedoBetween,2021.2.3,59.90646205
21,0,21,0,,,,,,,,,,,,,,,,,,,,,,,,,,2378.964638,None,carry,28,22,sing,yellow,2376.949679,None,None,2376.949679,None,,,,,,,,,,,,,,,,,,,,,,,,,,,,,,,,,,,June27Sing1,1,2022_Jun_27_1319,ProdSingRedoBetween,2021.2.3,59.90646205
22,0,22,0,,,,,,,,,,,,,,,,,,,,,,,,,,2381.467061,None,smell,27,23,sing,yellow,2379.467708,None,None,2379.467708,None,,,,,,,,,,,,,,,,,,,,,,,,,,,,,,,,,,,June27Sing1,1,2022_Jun_27_1319,ProdSingRedoBetween,2021.2.3,59.90646205
23,0,23,0,,,,,,,,,,,,,,,,,,,,,,,,,,2383.992155,None,bitter,59,24,sing,yellow,2381.97624,None,None,2381.97624,None,,,,,,,,,,,,,,,,,,,,,,,,,,,,,,,,,,,June27Sing1,1,2022_Jun_27_1319,ProdSingRedoBetween,2021.2.3,59.90646205
24,0,24,0,,,,,,,,,,,,,,,,,,,,,,,,,,2386.488655,None,substance,44,25,sing,blue,2384.486675,None,None,2384.486675,None,,,,,,,,,,,,,,,,,,,,,,,,,,,,,,,,,,,June27Sing1,1,2022_Jun_27_1319,ProdSingRedoBetween,2021.2.3,59.90646205
25,0,25,0,,,,,,,,,,,,,,,,,,,,,,,,,,2388.991463,None,orchestra,79,26,sing,red,2386.989208,None,None,2386.989208,None,,,,,,,,,,,,,,,,,,,,,,,,,,,,,,,,,,,June27Sing1,1,2022_Jun_27_1319,ProdSingRedoBetween,2021.2.3,59.90646205
26,0,26,0,,,,,,,,,,,,,,,,,,,,,,,,,,2391.493886,None,quick,33,27,sing,blue,2389.492871,None,None,2389.492871,None,,,,,,,,,,,,,,,,,,,,,,,,,,,,,,,,,,,June27Sing1,1,2022_Jun_27_1319,ProdSingRedoBetween,2021.2.3,59.90646205
27,0,27,0,,,,,,,,,,,,,,,,,,,,,,,,,,2394.012906,None,little,68,28,sing,red,2392.000494,None,None,2392.000494,None,,,,,,,,,,,,,,,,,,,,,,,,,,,,,,,,,,,June27Sing1,1,2022_Jun_27_1319,ProdSingRedoBetween,2021.2.3,59.90646205
28,0,28,0,,,,,,,,,,,,,,,,,,,,,,,,,,2396.515353,None,brilliant,78,29,sing,red,2394.513402,None,None,2394.513402,None,,,,,,,,,,,,,,,,,,,,,,,,,,,,,,,,,,,June27Sing1,1,2022_Jun_27_1319,ProdSingRedoBetween,2021.2.3,59.90646205
29,0,29,0,,,,,,,,,,,,,,,,,,,,,,,,,,2399.018129,None,reading,5,30,sing,yellow,2397.016145,None,None,2397.016145,None,,,,,,,,,,,,,,,,,,,,,,,,,,,,,,,,,,,June27Sing1,1,2022_Jun_27_1319,ProdSingRedoBetween,2021.2.3,59.90646205
30,0,30,0,,,,,,,,,,,,,,,,,,,,,,,,,,2401.52028,None,ground,47,31,sing,blue,2399.518331,None,None,2399.518331,None,,,,,,,,,,,,,,,,,,,,,,,,,,,,,,,,,,,June27Sing1,1,2022_Jun_27_1319,ProdSingRedoBetween,2021.2.3,59.90646205
31,0,31,0,,,,,,,,,,,,,,,,,,,,,,,,,,2404.022865,None,express,69,32,sing,red,2402.020939,None,None,2402.020939,None,,,,,,,,,,,,,,,,,,,,,,,,,,,,,,,,,,,June27Sing1,1,2022_Jun_27_1319,ProdSingRedoBetween,2021.2.3,59.90646205
32,0,32,0,,,,,,,,,,,,,,,,,,,,,,,,,,2406.542308,None,clear,13,33,sing,yellow,2404.532936,None,None,2404.532936,None,,,,,,,,,,,,,,,,,,,,,,,,,,,,,,,,,,,June27Sing1,1,2022_Jun_27_1319,ProdSingRedoBetween,2021.2.3,59.90646205
33,0,33,0,,,,,,,,,,,,,,,,,,,,,,,,,,2409.044817,None,generation,22,34,sing,yellow,2407.042693,None,None,2407.042693,None,,,,,,,,,,,,,,,,,,,,,,,,,,,,,,,,,,,June27Sing1,1,2022_Jun_27_1319,ProdSingRedoBetween,2021.2.3,59.90646205
34,0,34,0,,,,,,,,,,,,,,,,,,,,,,,,,,2411.547343,None,build,66,35,sing,red,2409.545078,None,None,2409.545078,None,,,,,,,,,,,,,,,,,,,,,,,,,,,,,,,,,,,June27Sing1,1,2022_Jun_27_1319,ProdSingRedoBetween,2021.2.3,59.90646205
35,0,35,0,,,,,,,,,,,,,,,,,,,,,,,,,,2414.04961,None,force,7,36,sing,yellow,2412.048603,None,None,2412.048603,None,,,,,,,,,,,,,,,,,,,,,,,,,,,,,,,,,,,June27Sing1,1,2022_Jun_27_1319,ProdSingRedoBetween,2021.2.3,59.90646205
36,0,36,0,,,,,,,,,,,,,,,,,,,,,,,,,,2416.552251,None,speech,1,37,sing,yellow,2414.551293,None,None,2414.551293,None,,,,,,,,,,,,,,,,,,,,,,,,,,,,,,,,,,,June27Sing1,1,2022_Jun_27_1319,ProdSingRedoBetween,2021.2.3,59.90646205
37,0,37,0,,,,,,,,,,,,,,,,,,,,,,,,,,2419.071252,None,blind,70,38,sing,red,2417.063118,None,None,2417.063118,None,,,,,,,,,,,,,,,,,,,,,,,,,,,,,,,,,,,June27Sing1,1,2022_Jun_27_1319,ProdSingRedoBetween,2021.2.3,59.90646205
38,0,38,0,,,,,,,,,,,,,,,,,,,,,,,,,,2421.590786,None,provision,37,39,sing,blue,2419.579434,None,None,2419.579434,None,,,,,,,,,,,,,,,,,,,,,,,,,,,,,,,,,,,June27Sing1,1,2022_Jun_27_1319,ProdSingRedoBetween,2021.2.3,59.90646205
39,0,39,0,,,,,,,,,,,,,,,,,,,,,,,,,,2424.109873,None,member,60,40,sing,red,2422.099471,None,None,2422.099471,None,,,,,,,,,,,,,,,,,,,,,,,,,,,,,,,,,,,June27Sing1,1,2022_Jun_27_1319,ProdSingRedoBetween,2021.2.3,59.90646205
40,0,40,0,,,,,,,,,,,,,,,,,,,,,,,,,,2426.612111,None,harmony,35,41,sing,blue,2424.612571,None,None,2424.612571,None,,,,,,,,,,,,,,,,,,,,,,,,,,,,,,,,,,,June27Sing1,1,2022_Jun_27_1319,ProdSingRedoBetween,2021.2.3,59.90646205
41,0,41,0,,,,,,,,,,,,,,,,,,,,,,,,,,2429.131191,None,goose,23,42,sing,yellow,2427.121408,None,None,2427.121408,None,,,,,,,,,,,,,,,,,,,,,,,,,,,,,,,,,,,June27Sing1,1,2022_Jun_27_1319,ProdSingRedoBetween,2021.2.3,59.90646205
42,0,42,0,,,,,,,,,,,,,,,,,,,,,,,,,,2431.634009,None,society,24,43,sing,yellow,2429.631919,None,None,2429.631919,None,,,,,,,,,,,,,,,,,,,,,,,,,,,,,,,,,,,June27Sing1,1,2022_Jun_27_1319,ProdSingRedoBetween,2021.2.3,59.90646205
43,0,43,0,,,,,,,,,,,,,,,,,,,,,,,,,,2434.152966,None,machinery,31,44,sing,blue,2432.140476,None,None,2432.140476,None,,,,,,,,,,,,,,,,,,,,,,,,,,,,,,,,,,,June27Sing1,1,2022_Jun_27_1319,ProdSingRedoBetween,2021.2.3,59.90646205
44,0,44,0,,,,,,,,,,,,,,,,,,,,,,,,,,2436.67217,None,shock,52,45,sing,blue,2434.65948,None,None,2434.65948,None,,,,,,,,,,,,,,,,,,,,,,,,,,,,,,,,,,,June27Sing1,1,2022_Jun_27_1319,ProdSingRedoBetween,2021.2.3,59.90646205
45,0,45,0,,,,,,,,,,,,,,,,,,,,,,,,,,2439.17465,None,territory,26,46,sing,yellow,2437.172618,None,None,2437.172618,None,,,,,,,,,,,,,,,,,,,,,,,,,,,,,,,,,,,June27Sing1,1,2022_Jun_27_1319,ProdSingRedoBetween,2021.2.3,59.90646205
46,0,46,0,,,,,,,,,,,,,,,,,,,,,,,,,,2441.677107,None,crime,8,47,sing,yellow,2439.675332,None,None,2439.675332,None,,,,,,,,,,,,,,,,,,,,,,,,,,,,,,,,,,,June27Sing1,1,2022_Jun_27_1319,ProdSingRedoBetween,2021.2.3,59.90646205
47,0,47,0,,,,,,,,,,,,,,,,,,,,,,,,,,2444.179627,None,treatment,64,48,sing,red,2442.177656,None,None,2442.177656,None,,,,,,,,,,,,,,,,,,,,,,,,,,,,,,,,,,,June27Sing1,1,2022_Jun_27_1319,ProdSingRedoBetween,2021.2.3,59.90646205
48,0,48,0,,,,,,,,,,,,,,,,,,,,,,,,,,2446.682153,None,death,65,49,sing,red,2444.680128,None,None,2444.680128,None,,,,,,,,,,,,,,,,,,,,,,,,,,,,,,,,,,,June27Sing1,1,2022_Jun_27_1319,ProdSingRedoBetween,2021.2.3,59.90646205
49,0,49,0,,,,,,,,,,,,,,,,,,,,,,,,,,2449.184816,None,resistance,11,50,sing,yellow,2447.184427,None,None,2447.184427,None,,,,,,,,,,,,,,,,,,,,,,,,,,,,,,,,,,,June27Sing1,1,2022_Jun_27_1319,ProdSingRedoBetween,2021.2.3,59.90646205
50,0,50,0,,,,,,,,,,,,,,,,,,,,,,,,,,2451.704015,None,government,12,51,sing,yellow,2449.69361,None,None,2449.69361,None,,,,,,,,,,,,,,,,,,,,,,,,,,,,,,,,,,,June27Sing1,1,2022_Jun_27_1319,ProdSingRedoBetween,2021.2.3,59.90646205
51,0,51,0,,,,,,,,,,,,,,,,,,,,,,,,,,2454.222959,None,institute,43,52,sing,blue,2452.207999,None,None,2452.207999,None,,,,,,,,,,,,,,,,,,,,,,,,,,,,,,,,,,,June27Sing1,1,2022_Jun_27_1319,ProdSingRedoBetween,2021.2.3,59.90646205
52,0,52,0,,,,,,,,,,,,,,,,,,,,,,,,,,2456.742067,None,research,48,53,sing,blue,2454.731386,None,None,2454.731386,None,,,,,,,,,,,,,,,,,,,,,,,,,,,,,,,,,,,June27Sing1,1,2022_Jun_27_1319,ProdSingRedoBetween,2021.2.3,59.90646205
53,0,53,0,,,,,,,,,,,,,,,,,,,,,,,,,,2459.244631,None,universal,0,54,sing,yellow,2457.244435,None,None,2457.244435,None,,,,,,,,,,,,,,,,,,,,,,,,,,,,,,,,,,,June27Sing1,1,2022_Jun_27_1319,ProdSingRedoBetween,2021.2.3,59.90646205
54,0,54,0,,,,,,,,,,,,,,,,,,,,,,,,,,2461.766128,None,instrument,85,55,sing,red,2459.751675,None,None,2459.751675,None,,,,,,,,,,,,,,,,,,,,,,,,,,,,,,,,,,,June27Sing1,1,2022_Jun_27_1319,ProdSingRedoBetween,2021.2.3,59.90646205
55,0,55,0,,,,,,,,,,,,,,,,,,,,,,,,,,2464.268248,None,people,16,56,sing,yellow,2462.266649,None,None,2462.266649,None,,,,,,,,,,,,,,,,,,,,,,,,,,,,,,,,,,,June27Sing1,1,2022_Jun_27_1319,ProdSingRedoBetween,2021.2.3,59.90646205
56,0,56,0,,,,,,,,,,,,,,,,,,,,,,,,,,2466.82134,None,store,38,57,sing,blue,2464.769209,None,None,2464.769209,None,,,,,,,,,,,,,,,,,,,,,,,,,,,,,,,,,,,June27Sing1,1,2022_Jun_27_1319,ProdSingRedoBetween,2021.2.3,59.90646205
57,0,57,0,,,,,,,,,,,,,,,,,,,,,,,,,,2469.288326,None,welcome,56,58,sing,blue,2467.287104,None,None,2467.287104,None,,,,,,,,,,,,,,,,,,,,,,,,,,,,,,,,,,,June27Sing1,1,2022_Jun_27_1319,ProdSingRedoBetween,2021.2.3,59.90646205
58,0,58,0,,,,,,,,,,,,,,,,,,,,,,,,,,2471.790552,None,crisis,84,59,sing,red,2469.788568,None,None,2469.788568,None,,,,,,,,,,,,,,,,,,,,,,,,,,,,,,,,,,,June27Sing1,1,2022_Jun_27_1319,ProdSingRedoBetween,2021.2.3,59.90646205
59,0,59,0,,,,,,,,,,,,,,,,,,,,,,,,,,2474.293203,None,discovery,32,60,sing,blue,2472.291629,None,None,2472.291629,None,,,,,,,,,,,,,,,,,,,,,,,,,,,,,,,,,,,June27Sing1,1,2022_Jun_27_1319,ProdSingRedoBetween,2021.2.3,59.90646205
60,0,60,0,,,,,,,,,,,,,,,,,,,,,,,,,,2476.795341,None,review,19,61,sing,yellow,2474.793492,None,None,2474.793492,None,,,,,,,,,,,,,,,,,,,,,,,,,,,,,,,,,,,June27Sing1,1,2022_Jun_27_1319,ProdSingRedoBetween,2021.2.3,59.90646205
61,0,61,0,,,,,,,,,,,,,,,,,,,,,,,,,,2479.298014,None,period,39,62,sing,blue,2477.296827,None,None,2477.296827,None,,,,,,,,,,,,,,,,,,,,,,,,,,,,,,,,,,,June27Sing1,1,2022_Jun_27_1319,ProdSingRedoBetween,2021.2.3,59.90646205
62,0,62,0,,,,,,,,,,,,,,,,,,,,,,,,,,2481.800729,None,engineer,89,63,sing,red,2479.798481,None,None,2479.798481,None,,,,,,,,,,,,,,,,,,,,,,,,,,,,,,,,,,,June27Sing1,1,2022_Jun_27_1319,ProdSingRedoBetween,2021.2.3,59.90646205
63,0,63,0,,,,,,,,,,,,,,,,,,,,,,,,,,2484.303363,None,shape,87,64,sing,red,2482.301089,None,None,2482.301089,None,,,,,,,,,,,,,,,,,,,,,,,,,,,,,,,,,,,June27Sing1,1,2022_Jun_27_1319,ProdSingRedoBetween,2021.2.3,59.90646205
64,0,64,0,,,,,,,,,,,,,,,,,,,,,,,,,,2486.805774,None,election,58,65,sing,blue,2484.80437,None,None,2484.80437,None,,,,,,,,,,,,,,,,,,,,,,,,,,,,,,,,,,,June27Sing1,1,2022_Jun_27_1319,ProdSingRedoBetween,2021.2.3,59.90646205
65,0,65,0,,,,,,,,,,,,,,,,,,,,,,,,,,2489.308188,None,audience,46,66,sing,blue,2487.306302,None,None,2487.306302,None,,,,,,,,,,,,,,,,,,,,,,,,,,,,,,,,,,,June27Sing1,1,2022_Jun_27_1319,ProdSingRedoBetween,2021.2.3,59.90646205
66,0,66,0,,,,,,,,,,,,,,,,,,,,,,,,,,2491.827221,None,still,74,67,sing,red,2489.815034,None,None,2489.815034,None,,,,,,,,,,,,,,,,,,,,,,,,,,,,,,,,,,,June27Sing1,1,2022_Jun_27_1319,ProdSingRedoBetween,2021.2.3,59.90646205
67,0,67,0,,,,,,,,,,,,,,,,,,,,,,,,,,2494.329691,None,background,88,68,sing,red,2492.327725,None,None,2492.327725,None,,,,,,,,,,,,,,,,,,,,,,,,,,,,,,,,,,,June27Sing1,1,2022_Jun_27_1319,ProdSingRedoBetween,2021.2.3,59.90646205
68,0,68,0,,,,,,,,,,,,,,,,,,,,,,,,,,2496.848996,None,thing,72,69,sing,red,2494.83752,None,None,2494.83752,None,,,,,,,,,,,,,,,,,,,,,,,,,,,,,,,,,,,June27Sing1,1,2022_Jun_27_1319,ProdSingRedoBetween,2021.2.3,59.90646205
69,0,69,0,,,,,,,,,,,,,,,,,,,,,,,,,,2499.351359,None,discussion,17,70,sing,yellow,2497.351559,None,None,2497.351559,None,,,,,,,,,,,,,,,,,,,,,,,,,,,,,,,,,,,June27Sing1,1,2022_Jun_27_1319,ProdSingRedoBetween,2021.2.3,59.90646205
70,0,70,0,,,,,,,,,,,,,,,,,,,,,,,,,,2501.870501,None,cross,55,71,sing,blue,2499.857317,None,None,2499.857317,None,,,,,,,,,,,,,,,,,,,,,,,,,,,,,,,,,,,June27Sing1,1,2022_Jun_27_1319,ProdSingRedoBetween,2021.2.3,59.90646205
71,0,71,0,,,,,,,,,,,,,,,,,,,,,,,,,,2504.389745,None,theme,25,72,sing,yellow,2502.375588,None,None,2502.375588,None,,,,,,,,,,,,,,,,,,,,,,,,,,,,,,,,,,,June27Sing1,1,2022_Jun_27_1319,ProdSingRedoBetween,2021.2.3,59.90646205
72,0,72,0,,,,,,,,,,,,,,,,,,,,,,,,,,2506.892271,None,collection,34,73,sing,blue,2504.890255,None,None,2504.890255,None,,,,,,,,,,,,,,,,,,,,,,,,,,,,,,,,,,,June27Sing1,1,2022_Jun_27_1319,ProdSingRedoBetween,2021.2.3,59.90646205
73,0,73,0,,,,,,,,,,,,,,,,,,,,,,,,,,2509.394704,None,opening,29,74,sing,blue,2507.393446,None,None,2507.393446,None,,,,,,,,,,,,,,,,,,,,,,,,,,,,,,,,,,,June27Sing1,1,2022_Jun_27_1319,ProdSingRedoBetween,2021.2.3,59.90646205
74,0,74,0,,,,,,,,,,,,,,,,,,,,,,,,,,2511.897396,None,drama,40,75,sing,blue,2509.895494,None,None,2509.895494,None,,,,,,,,,,,,,,,,,,,,,,,,,,,,,,,,,,,June27Sing1,1,2022_Jun_27_1319,ProdSingRedoBetween,2021.2.3,59.90646205
75,0,75,0,,,,,,,,,,,,,,,,,,,,,,,,,,2514.416454,None,judge,81,76,sing,red,2512.408231,None,None,2512.408231,None,,,,,,,,,,,,,,,,,,,,,,,,,,,,,,,,,,,June27Sing1,1,2022_Jun_27_1319,ProdSingRedoBetween,2021.2.3,59.90646205
76,0,76,0,,,,,,,,,,,,,,,,,,,,,,,,,,2516.918854,None,contract,63,77,sing,red,2514.916905,None,None,2514.916905,None,,,,,,,,,,,,,,,,,,,,,,,,,,,,,,,,,,,June27Sing1,1,2022_Jun_27_1319,ProdSingRedoBetween,2021.2.3,59.90646205
77,0,77,0,,,,,,,,,,,,,,,,,,,,,,,,,,2519.421618,None,medicine,36,78,sing,blue,2517.419285,None,None,2517.419285,None,,,,,,,,,,,,,,,,,,,,,,,,,,,,,,,,,,,June27Sing1,1,2022_Jun_27_1319,ProdSingRedoBetween,2021.2.3,59.90646205
78,0,78,0,,,,,,,,,,,,,,,,,,,,,,,,,,2521.940633,None,route,3,79,sing,yellow,2519.925958,None,None,2519.925958,None,,,,,,,,,,,,,,,,,,,,,,,,,,,,,,,,,,,June27Sing1,1,2022_Jun_27_1319,ProdSingRedoBetween,2021.2.3,59.90646205
79,0,79,0,,,,,,,,,,,,,,,,,,,,,,,,,,2524.443038,None,pretty,62,80,sing,red,2522.441382,None,None,2522.441382,None,,,,,,,,,,,,,,,,,,,,,,,,,,,,,,,,,,,June27Sing1,1,2022_Jun_27_1319,ProdSingRedoBetween,2021.2.3,59.90646205
80,0,80,0,,,,,,,,,,,,,,,,,,,,,,,,,,2526.962428,None,marriage,73,81,sing,red,2524.947103,None,None,2524.947103,None,,,,,,,,,,,,,,,,,,,,,,,,,,,,,,,,,,,June27Sing1,1,2022_Jun_27_1319,ProdSingRedoBetween,2021.2.3,59.90646205
81,0,81,0,,,,,,,,,,,,,,,,,,,,,,,,,,2529.48148,None,order,77,82,sing,red,2527.467086,None,None,2527.467086,None,,,,,,,,,,,,,,,,,,,,,,,,,,,,,,,,,,,June27Sing1,1,2022_Jun_27_1319,ProdSingRedoBetween,2021.2.3,59.90646205
82,0,82,0,,,,,,,,,,,,,,,,,,,,,,,,,,2531.984196,None,career,76,83,sing,red,2529.981937,None,None,2529.981937,None,,,,,,,,,,,,,,,,,,,,,,,,,,,,,,,,,,,June27Sing1,1,2022_Jun_27_1319,ProdSingRedoBetween,2021.2.3,59.90646205
83,0,83,0,,,,,,,,,,,,,,,,,,,,,,,,,,2534.486492,None,running,49,84,sing,blue,2532.484445,None,None,2532.484445,None,,,,,,,,,,,,,,,,,,,,,,,,,,,,,,,,,,,June27Sing1,1,2022_Jun_27_1319,ProdSingRedoBetween,2021.2.3,59.90646205
84,0,84,0,,,,,,,,,,,,,,,,,,,,,,,,,,2536.989738,None,salary,20,85,sing,yellow,2534.989073,None,None,2534.989073,None,,,,,,,,,,,,,,,,,,,,,,,,,,,,,,,,,,,June27Sing1,1,2022_Jun_27_1319,ProdSingRedoBetween,2021.2.3,59.90646205
85,0,85,0,,,,,,,,,,,,,,,,,,,,,,,,,,2539.491477,None,heavy,80,86,sing,red,2537.490707,None,None,2537.490707,None,,,,,,,,,,,,,,,,,,,,,,,,,,,,,,,,,,,June27Sing1,1,2022_Jun_27_1319,ProdSingRedoBetween,2021.2.3,59.90646205
86,0,86,0,,,,,,,,,,,,,,,,,,,,,,,,,,2542.010539,None,comfort,4,87,sing,yellow,2539.997373,None,None,2539.997373,None,,,,,,,,,,,,,,,,,,,,,,,,,,,,,,,,,,,June27Sing1,1,2022_Jun_27_1319,ProdSingRedoBetween,2021.2.3,59.90646205
87,0,87,0,,,,,,,,,,,,,,,,,,,,,,,,,,2544.513305,None,spoke,54,88,sing,blue,2542.511,None,None,2542.511,None,,,,,,,,,,,,,,,,,,,,,,,,,,,,,,,,,,,June27Sing1,1,2022_Jun_27_1319,ProdSingRedoBetween,2021.2.3,59.90646205
88,0,88,0,,,,,,,,,,,,,,,,,,,,,,,,,,2547.015569,None,owner,61,89,sing,red,2545.016173,None,None,2545.016173,None,,,,,,,,,,,,,,,,,,,,,,,,,,,,,,,,,,,June27Sing1,1,2022_Jun_27_1319,ProdSingRedoBetween,2021.2.3,59.90646205
89,0,89,0,,,,,,,,,,,,,,,,,,,,,,,,,,2549.518379,None,dream,18,90,sing,yellow,2547.516118,None,None,2547.516118,None,,,,,,,,,,,,,,,,,,,,,,,,,,,,,,,,,,,June27Sing1,1,2022_Jun_27_1319,ProdSingRedoBetween,2021.2.3,59.90646205
,,,,,,,,,,,,,,,,,,,,,,,,,,,,,,,,,,,,,,,,,2550.019083,None,k,40.4709315,2550.019083,None,,,,,,,,,,,,,,,,,,,,,,,,,,,,,June27Sing1,1,2022_Jun_27_1319,ProdSingRedoBetween,2021.2.3,59.90646205
,,,,0,0,0,0,,,,,,,,,,,,,,,,,,,,,,2609.683151,None,,,,,,,,,,,,,,,,,store,38,1,sing,old,blue,2591.021603,None,2591.021603,None,6,11.7563063,2591.021603,None,11.7563063,2602.806641,None,2603.328289,None,2603.328289,None,f,6.3298142,2603.328289,None,6.3298142,,,June27Sing1,1,2022_Jun_27_1319,ProdSingRedoBetween,2021.2.3,59.90646205
,,,,1,0,1,0,,,,,,,,,,,,,,,,,,,,,,2615.419479,None,,,,,,,,,,,,,,,,,stand,111,2,sing,new,null,2610.197377,None,2610.197377,None,6,2.3968238,2610.197377,None,2.3968238,2612.615999,None,2613.122393,None,2613.122393,None,f,2.2797124,2613.122393,None,2.2797124,,,June27Sing1,1,2022_Jun_27_1319,ProdSingRedoBetween,2021.2.3,59.90646205
,,,,2,0,2,0,,,,,,,,,,,,,,,,,,,,,,2621.40913,None,,,,,,,,,,,,,,,,,produce,125,3,sing,new,null,2615.95075,None,2615.95075,None,6,2.5873554,2615.95075,None,2.5873554,2618.566952,None,2619.070933,None,2619.070933,None,f,2.315165,2619.070933,None,2.315165,,,June27Sing1,1,2022_Jun_27_1319,ProdSingRedoBetween,2021.2.3,59.90646205
,,,,3,0,3,0,,,,,,,,,,,,,,,,,,,,,,2626.29473,None,,,,,,,,,,,,,,,,,shear,126,4,sing,new,null,2621.928514,None,2621.928514,None,6,1.7535042,2621.928514,None,1.7535042,2623.71482,None,2624.226095,None,2624.226095,None,n,2.039887,2624.226095,None,2.039887,,,June27Sing1,1,2022_Jun_27_1319,ProdSingRedoBetween,2021.2.3,59.90646205
,,,,4,0,4,0,,,,,,,,,,,,,,,,,,,,,,2630.48224,None,,,,,,,,,,,,,,,,,marriage,73,5,sing,old,red,2626.804343,None,2626.804343,None,6,1.7815501,2626.804343,None,1.7815501,2628.614418,None,2629.119003,None,2629.119003,None,f,1.3390285,2629.119003,None,1.3390285,,,June27Sing1,1,2022_Jun_27_1319,ProdSingRedoBetween,2021.2.3,59.90646205
,,,,5,0,5,0,,,,,,,,,,,,,,,,,,,,,,2636.455062,None,,,,,,,,,,,,,,,,,machinery,31,6,sing,old,blue,2630.983031,None,2630.983031,None,5,3.6109922,2630.983031,None,3.6109922,2634.620549,None,2635.121963,None,2635.121963,None,n,1.3039792,2635.121963,None,1.3039792,,,June27Sing1,1,2022_Jun_27_1319,ProdSingRedoBetween,2021.2.3,59.90646205
,,,,6,0,6,0,,,,,,,,,,,,,,,,,,,,,,2642.043804,None,,,,,,,,,,,,,,,,,discovery,32,7,sing,old,blue,2636.969149,None,2636.969149,None,6,2.2328533,2636.969149,None,2.2328533,2639.226848,None,2639.741728,None,2639.741728,None,f,2.2762894,2639.741728,None,2.2762894,,,June27Sing1,1,2022_Jun_27_1319,ProdSingRedoBetween,2021.2.3,59.90646205
,,,,7,0,7,0,,,,,,,,,,,,,,,,,,,,,,2647.215611,None,,,,,,,,,,,,,,,,,threat,116,8,sing,new,null,2642.545666,None,2642.545666,None,6,3.0803424,2642.545666,None,3.0803424,2645.648589,None,2646.156934,None,2646.156934,None,f,1.0290438,2646.156934,None,1.0290438,,,June27Sing1,1,2022_Jun_27_1319,ProdSingRedoBetween,2021.2.3,59.90646205
,,,,8,0,8,0,,,,,,,,,,,,,,,,,,,,,,2651.720089,None,,,,,,,,,,,,,,,,,cross,55,9,sing,old,blue,2647.72265,None,2647.72265,None,6,2.1593343,2647.72265,None,2.1593343,2649.904958,None,2650.424184,None,2650.424184,None,f,1.2657882,2650.424184,None,1.2657882,,,June27Sing1,1,2022_Jun_27_1319,ProdSingRedoBetween,2021.2.3,59.90646205
,,,,9,0,9,0,,,,,,,,,,,,,,,,,,,,,,2656.341425,None,,,,,,,,,,,,,,,,,hearing,135,10,sing,new,null,2652.227924,None,2652.227924,None,5,2.1261686,2652.227924,None,2.1261686,2654.377712,None,2654.892296,None,2654.892296,None,f,1.421598,2654.892296,None,1.421598,,,June27Sing1,1,2022_Jun_27_1319,ProdSingRedoBetween,2021.2.3,59.90646205
,,,,10,0,10,0,,,,,,,,,,,,,,,,,,,,,,2661.549833,None,,,,,,,,,,,,,,,,,resistance,11,11,sing,old,yellow,2656.853592,None,2656.853592,None,5,3.0524296,2656.853592,None,3.0524296,2659.92832,None,2660.441476,None,2660.441476,None,f,1.088561,2660.441476,None,1.088561,,,June27Sing1,1,2022_Jun_27_1319,ProdSingRedoBetween,2021.2.3,59.90646205
,,,,11,0,11,0,,,,,,,,,,,,,,,,,,,,,,2665.116932,None,,,,,,,,,,,,,,,,,still,74,12,sing,old,red,2662.066568,None,2662.066568,None,6,1.4794252,2662.066568,None,1.4794252,2663.566683,None,2664.072247,None,2664.072247,None,f,1.0258407,2664.072247,None,1.0258407,,,June27Sing1,1,2022_Jun_27_1319,ProdSingRedoBetween,2021.2.3,59.90646205
,,,,12,0,12,0,,,,,,,,,,,,,,,,,,,,,,2671.540143,None,,,,,,,,,,,,,,,,,production,161,13,sing,new,null,2665.634106,None,2665.634106,None,6,4.1198657,2665.634106,None,4.1198657,2669.772677,None,2670.283409,None,2670.283409,None,f,1.2305252,2670.283409,None,1.2305252,,,June27Sing1,1,2022_Jun_27_1319,ProdSingRedoBetween,2021.2.3,59.90646205
,,,,13,0,13,0,,,,,,,,,,,,,,,,,,,,,,2675.028037,None,,,,,,,,,,,,,,,,,drama,40,14,sing,old,blue,2672.046505,None,2672.046505,None,6,1.2353621,2672.046505,None,1.2353621,2673.308398,None,2673.811624,None,2673.811624,None,f,1.1903538,2673.811624,None,1.1903538,,,June27Sing1,1,2022_Jun_27_1319,ProdSingRedoBetween,2021.2.3,59.90646205
,,,,14,0,14,0,,,,,,,,,,,,,,,,,,,,,,2691.826871,None,,,,,,,,,,,,,,,,,foundation,170,15,sing,new,null,2675.535103,None,2675.535103,None,6,2.0189307,2675.535103,None,2.0189307,2677.582675,None,2678.098127,None,2678.098127,None,r,13.7038583,2678.098127,None,13.7038583,,,June27Sing1,1,2022_Jun_27_1319,ProdSingRedoBetween,2021.2.3,59.90646205
,,,,15,0,15,0,,,,,,,,,,,,,,,,,,,,,,2695.747483,None,,,,,,,,,,,,,,,,,surface,148,16,sing,new,null,2692.335631,None,2692.335631,None,6,1.6904868,2692.335631,None,1.6904868,2694.047013,None,2694.554097,None,2694.554097,None,f,1.1758504,2694.554097,None,1.1758504,,,June27Sing1,1,2022_Jun_27_1319,ProdSingRedoBetween,2021.2.3,59.90646205
,,,,16,0,16,0,,,,,,,,,,,,,,,,,,,,,,2702.757053,None,,,,,,,,,,,,,,,,,strength,129,17,sing,new,null,2696.257722,None,2696.257722,None,6,4.0722227,2696.257722,None,4.0722227,2700.353206,None,2700.858945,None,2700.858945,None,f,1.8709836,2700.858945,None,1.8709836,,,June27Sing1,1,2022_Jun_27_1319,ProdSingRedoBetween,2021.2.3,59.90646205
,,,,17,0,17,0,,,,,,,,,,,,,,,,,,,,,,2706.307944,None,,,,,,,,,,,,,,,,,comfort,4,18,sing,old,yellow,2703.285655,None,2703.285655,None,6,1.6203407,2703.285655,None,1.6203407,2704.931493,None,2705.440739,None,2705.440739,None,r,0.8412427,2705.440739,None,0.8412427,,,June27Sing1,1,2022_Jun_27_1319,ProdSingRedoBetween,2021.2.3,59.90646205
,,,,18,0,18,0,,,,,,,,,,,,,,,,,,,,,,2712.414237,None,,,,,,,,,,,,,,,,,childhood,134,19,sing,new,null,2706.818724,None,2706.818724,None,6,2.2792832,2706.818724,None,2.2792832,2709.128276,None,2709.628149,None,2709.628149,None,r,2.7658032,2709.628149,None,2.7658032,,,June27Sing1,1,2022_Jun_27_1319,ProdSingRedoBetween,2021.2.3,59.90646205
,,,,19,0,19,0,,,,,,,,,,,,,,,,,,,,,,2715.600525,None,,,,,,,,,,,,,,,,,audience,46,20,sing,old,blue,2712.914916,None,2712.914916,None,6,1.559043,2712.914916,None,1.559043,2714.499553,None,2715.005587,None,2715.005587,None,r,0.5803394,2715.005587,None,0.5803394,,,June27Sing1,1,2022_Jun_27_1319,ProdSingRedoBetween,2021.2.3,59.90646205
,,,,20,0,20,0,,,,,,,,,,,,,,,,,,,,,,2719.788127,None,,,,,,,,,,,,,,,,,bicycle,159,21,sing,new,null,2716.111412,None,2716.111412,None,5,2.1705569,2716.111412,None,2.1705569,2718.309754,None,2718.827814,None,2718.827814,None,f,0.9340764,2718.827814,None,0.9340764,,,June27Sing1,1,2022_Jun_27_1319,ProdSingRedoBetween,2021.2.3,59.90646205
,,,,21,0,21,0,,,,,,,,,,,,,,,,,,,,,,2724.359532,None,,,,,,,,,,,,,,,,,contract,63,22,sing,old,red,2720.304199,None,2720.304199,None,6,2.5697074,2720.304199,None,2.5697074,2722.892221,None,2723.397432,None,2723.397432,None,n,0.9326283,2723.397432,None,0.9326283,,,June27Sing1,1,2022_Jun_27_1319,ProdSingRedoBetween,2021.2.3,59.90646205
,,,,22,0,22,0,,,,,,,,,,,,,,,,,,,,,,2728.647023,None,,,,,,,,,,,,,,,,,victory,130,23,sing,new,null,2724.866,None,2724.866,None,6,1.615967,2724.866,None,1.615967,2726.512756,None,2727.01627,None,2727.01627,None,f,1.6096823,2727.01627,None,1.6096823,,,June27Sing1,1,2022_Jun_27_1319,ProdSingRedoBetween,2021.2.3,59.90646205
,,,,23,0,23,0,,,,,,,,,,,,,,,,,,,,,,2734.285846,None,,,,,,,,,,,,,,,,,watch,95,24,sing,new,null,2729.161049,None,2729.161049,None,6,2.5608031,2729.161049,None,2.5608031,2731.751045,None,2732.258003,None,2732.258003,None,f,1.9998207,2732.258003,None,1.9998207,,,June27Sing1,1,2022_Jun_27_1319,ProdSingRedoBetween,2021.2.3,59.90646205
,,,,24,0,24,0,,,,,,,,,,,,,,,,,,,,,,2738.389987,None,,,,,,,,,,,,,,,,,territory,26,25,sing,old,yellow,2734.796271,None,2734.796271,None,6,1.7177022,2734.796271,None,1.7177022,2736.539394,None,2737.046253,None,2737.046253,None,f,1.3236648,2737.046253,None,1.3236648,,,June27Sing1,1,2022_Jun_27_1319,ProdSingRedoBetween,2021.2.3,59.90646205
,,,,25,0,25,0,,,,,,,,,,,,,,,,,,,,,,2742.861177,None,,,,,,,,,,,,,,,,,portion,160,26,sing,new,null,2738.899517,None,2738.899517,None,6,2.0785008,2738.899517,None,2.0785008,2741.015607,None,2741.531857,None,2741.531857,None,f,1.3100692,2741.531857,None,1.3100692,,,June27Sing1,1,2022_Jun_27_1319,ProdSingRedoBetween,2021.2.3,59.90646205
,,,,26,0,26,0,,,,,,,,,,,,,,,,,,,,,,2746.948496,None,,,,,,,,,,,,,,,,,discussion,17,27,sing,old,yellow,2743.370587,None,2743.370587,None,6,1.9833268,2743.370587,None,1.9833268,2745.38185,None,2745.89318,None,2745.89318,None,f,1.0367949,2745.89318,None,1.0367949,,,June27Sing1,1,2022_Jun_27_1319,ProdSingRedoBetween,2021.2.3,59.90646205
,,,,27,0,27,0,,,,,,,,,,,,,,,,,,,,,,2751.035977,None,,,,,,,,,,,,,,,,,running,49,28,sing,old,blue,2747.457548,None,2747.457548,None,6,1.8644847,2747.457548,None,1.8644847,2749.350929,None,2749.855685,None,2749.855685,None,f,1.1541987,2749.855685,None,1.1541987,,,June27Sing1,1,2022_Jun_27_1319,ProdSingRedoBetween,2021.2.3,59.90646205
,,,,28,0,28,0,,,,,,,,,,,,,,,,,,,,,,2755.807351,None,,,,,,,,,,,,,,,,,private,163,29,sing,new,null,2751.541459,None,2751.541459,None,6,2.5724609,2751.541459,None,2.5724609,2754.140786,None,2754.644251,None,2754.644251,None,f,1.1416814,2754.644251,None,1.1416814,,,June27Sing1,1,2022_Jun_27_1319,ProdSingRedoBetween,2021.2.3,59.90646205
,,,,29,0,29,0,,,,,,,,,,,,,,,,,,,,,,2759.544536,None,,,,,,,,,,,,,,,,,poetry,173,30,sing,new,null,2756.330906,None,2756.330906,None,6,1.7269728,2756.330906,None,1.7269728,2758.078413,None,2758.593647,None,2758.593647,None,f,0.9282502,2758.593647,None,0.9282502,,,June27Sing1,1,2022_Jun_27_1319,ProdSingRedoBetween,2021.2.3,59.90646205
,,,,30,0,30,0,,,,,,,,,,,,,,,,,,,,,,2762.997896,None,,,,,,,,,,,,,,,,,solution,165,31,sing,new,null,2760.047227,None,2760.047227,None,6,1.3707027,2760.047227,None,1.3707027,2761.448781,None,2761.968329,None,2761.968329,None,f,1.0095997,2761.968329,None,1.0095997,,,June27Sing1,1,2022_Jun_27_1319,ProdSingRedoBetween,2021.2.3,59.90646205
,,,,31,0,31,0,,,,,,,,,,,,,,,,,,,,,,2766.769837,None,,,,,,,,,,,,,,,,,route,3,32,sing,old,yellow,2763.507399,None,2763.507399,None,6,1.63061,2763.507399,None,1.63061,2765.174365,None,2765.684747,None,2765.684747,None,r,1.0611983,2765.684747,None,1.0611983,,,June27Sing1,1,2022_Jun_27_1319,ProdSingRedoBetween,2021.2.3,59.90646205
,,,,32,0,32,0,,,,,,,,,,,,,,,,,,,,,,2770.674836,None,,,,,,,,,,,,,,,,,trash,107,33,sing,new,null,2767.288127,None,2767.288127,None,5,1.5778102,2767.288127,None,1.5778102,2768.888577,None,2769.387733,None,2769.387733,None,f,1.2621976,2769.387733,None,1.2621976,,,June27Sing1,1,2022_Jun_27_1319,ProdSingRedoBetween,2021.2.3,59.90646205
,,,,33,0,33,0,,,,,,,,,,,,,,,,,,,,,,2774.659578,None,,,,,,,,,,,,,,,,,committee,172,34,sing,new,null,2771.189487,None,2771.189487,None,6,1.6284197,2771.189487,None,1.6284197,2772.84116,None,2773.343185,None,2773.343185,None,f,1.2907763,2773.343185,None,1.2907763,,,June27Sing1,1,2022_Jun_27_1319,ProdSingRedoBetween,2021.2.3,59.90646205
,,,,34,0,34,0,,,,,,,,,,,,,,,,,,,,,,2778.947243,None,,,,,,,,,,,,,,,,,chief,106,35,sing,new,null,2775.160085,None,2775.160085,None,6,2.1138262,2775.160085,None,2.1138262,2777.296989,None,2777.800605,None,2777.800605,None,f,1.1212897,2777.800605,None,1.1212897,,,June27Sing1,1,2022_Jun_27_1319,ProdSingRedoBetween,2021.2.3,59.90646205
,,,,35,0,35,0,,,,,,,,,,,,,,,,,,,,,,2783.585074,None,,,,,,,,,,,,,,,,,track,128,36,sing,new,null,2779.457552,None,2779.457552,None,5,2.4883659,2779.457552,None,2.4883659,2781.97274,None,2782.484136,None,2782.484136,None,r,1.0857356,2782.484136,None,1.0857356,,,June27Sing1,1,2022_Jun_27_1319,ProdSingRedoBetween,2021.2.3,59.90646205
,,,,36,0,36,0,,,,,,,,,,,,,,,,,,,,,,2787.188742,None,,,,,,,,,,,,,,,,,light,90,37,sing,new,null,2784.096299,None,2784.096299,None,5,1.617793,2784.096299,None,1.617793,2785.744497,None,2786.254621,None,2786.254621,None,r,0.9153554,2786.254621,None,0.9153554,,,June27Sing1,1,2022_Jun_27_1319,ProdSingRedoBetween,2021.2.3,59.90646205
,,,,37,0,37,0,,,,,,,,,,,,,,,,,,,,,,2791.059217,None,,,,,,,,,,,,,,,,,orchestra,79,38,sing,old,red,2787.690491,None,2787.690491,None,6,1.6392858,2787.690491,None,1.6392858,2789.359282,None,2789.862869,None,2789.862869,None,f,1.1710258,2789.862869,None,1.1710258,,,June27Sing1,1,2022_Jun_27_1319,ProdSingRedoBetween,2021.2.3,59.90646205
,,,,38,0,38,0,,,,,,,,,,,,,,,,,,,,,,2794.596139,None,,,,,,,,,,,,,,,,,generation,22,39,sing,old,yellow,2791.562627,None,2791.562627,None,6,1.2552877,2791.562627,None,1.2552877,2792.844662,None,2793.349223,None,2793.349223,None,f,1.2206225,2793.349223,None,1.2206225,,,June27Sing1,1,2022_Jun_27_1319,ProdSingRedoBetween,2021.2.3,59.90646205
,,,,39,0,39,0,,,,,,,,,,,,,,,,,,,,,,2799.369085,None,,,,,,,,,,,,,,,,,revolution,42,40,sing,old,blue,2795.112352,None,2795.112352,None,5,2.4575689,2795.112352,None,2.4575689,2797.601068,None,2798.116412,None,2798.116412,None,r,1.2215269,2798.116412,None,1.2215269,,,June27Sing1,1,2022_Jun_27_1319,ProdSingRedoBetween,2021.2.3,59.90646205
,,,,40,0,40,0,,,,,,,,,,,,,,,,,,,,,,2802.770899,None,,,,,,,,,,,,,,,,,exchange,117,41,sing,new,null,2799.886111,None,2799.886111,None,6,1.5396771,2799.886111,None,1.5396771,2801.454076,None,2801.959981,None,2801.959981,None,f,0.7939126,2801.959981,None,0.7939126,,,June27Sing1,1,2022_Jun_27_1319,ProdSingRedoBetween,2021.2.3,59.90646205
,,,,41,0,41,0,,,,,,,,,,,,,,,,,,,,,,2807.358785,None,,,,,,,,,,,,,,,,,universal,0,42,sing,old,yellow,2803.279561,None,2803.279561,None,6,1.466273,2803.279561,None,1.466273,2804.779647,None,2805.300515,None,2805.300515,None,n,2.0373445,2805.300515,None,2.0373445,,,June27Sing1,1,2022_Jun_27_1319,ProdSingRedoBetween,2021.2.3,59.90646205
,,,,42,0,42,0,,,,,,,,,,,,,,,,,,,,,,2811.89664,None,,,,,,,,,,,,,,,,,spoke,54,43,sing,old,blue,2807.871132,None,2807.871132,None,6,1.682739,2807.871132,None,1.682739,2809.58009,None,2810.095221,None,2810.095221,None,r,1.7866486,2810.095221,None,1.7866486,,,June27Sing1,1,2022_Jun_27_1319,ProdSingRedoBetween,2021.2.3,59.90646205
,,,,43,0,43,0,,,,,,,,,,,,,,,,,,,,,,2816.017505,None,,,,,,,,,,,,,,,,,rapid,162,44,sing,new,null,2812.406076,None,2812.406076,None,6,2.131767,2812.406076,None,2.131767,2814.567201,None,2815.072875,None,2815.072875,None,f,0.9209944,2815.072875,None,0.9209944,,,June27Sing1,1,2022_Jun_27_1319,ProdSingRedoBetween,2021.2.3,59.90646205
,,,,44,0,44,0,,,,,,,,,,,,,,,,,,,,,,2820.622039,None,,,,,,,,,,,,,,,,,shape,87,45,sing,old,red,2816.532648,None,2816.532648,None,6,2.2292434,2816.532648,None,2.2292434,2818.789161,None,2819.311547,None,2819.311547,None,f,1.2903159,2819.311547,None,1.2903159,,,June27Sing1,1,2022_Jun_27_1319,ProdSingRedoBetween,2021.2.3,59.90646205
,,,,45,0,45,0,,,,,,,,,,,,,,,,,,,,,,2824.209032,None,,,,,,,,,,,,,,,,,review,19,46,sing,old,yellow,2821.133987,None,2821.133987,None,5,1.4439055,2821.133987,None,1.4439055,2822.610973,None,2823.124957,None,2823.124957,None,f,1.0531162,2823.124957,None,1.0531162,,,June27Sing1,1,2022_Jun_27_1319,ProdSingRedoBetween,2021.2.3,59.90646205
,,,,46,0,46,0,,,,,,,,,,,,,,,,,,,,,,2827.74582,None,,,,,,,,,,,,,,,,,harmony,35,47,sing,old,blue,2824.72425,None,2824.72425,None,5,1.3416165,2824.72425,None,1.3416165,2826.095404,None,2826.595046,None,2826.595046,None,f,1.134794,2826.595046,None,1.134794,,,June27Sing1,1,2022_Jun_27_1319,ProdSingRedoBetween,2021.2.3,59.90646205
,,,,47,0,47,0,,,,,,,,,,,,,,,,,,,,,,2830.898987,None,,,,,,,,,,,,,,,,,shock,52,48,sing,old,blue,2828.263925,None,2828.263925,None,5,1.2580144,2828.263925,None,1.2580144,2829.555181,None,2830.065145,None,2830.065145,None,f,0.8167026,2830.065145,None,0.8167026,,,June27Sing1,1,2022_Jun_27_1319,ProdSingRedoBetween,2021.2.3,59.90646205
,,,,48,0,48,0,,,,,,,,,,,,,,,,,,,,,,2833.868655,None,,,,,,,,,,,,,,,,,little,68,49,sing,old,red,2831.412102,None,2831.412102,None,5,1.3817914,2831.412102,None,1.3817914,2832.821054,None,2833.334848,None,2833.334848,None,f,0.5069566,2833.334848,None,0.5069566,,,June27Sing1,1,2022_Jun_27_1319,ProdSingRedoBetween,2021.2.3,59.90646205
,,,,49,0,49,0,,,,,,,,,,,,,,,,,,,,,,2837.643047,None,,,,,,,,,,,,,,,,,background,88,50,sing,old,red,2834.383447,None,2834.383447,None,5,1.5223582,2834.383447,None,1.5223582,2835.921714,None,2836.421371,None,2836.421371,None,f,1.1883883,2836.421371,None,1.1883883,,,June27Sing1,1,2022_Jun_27_1319,ProdSingRedoBetween,2021.2.3,59.90646205
,,,,50,0,50,0,,,,,,,,,,,,,,,,,,,,,,2841.009257,None,,,,,,,,,,,,,,,,,theme,25,51,sing,old,yellow,2838.169162,None,2838.169162,None,6,1.2405987,2838.169162,None,1.2405987,2839.440921,None,2839.942465,None,2839.942465,None,f,1.0354219,2839.942465,None,1.0354219,,,June27Sing1,1,2022_Jun_27_1319,ProdSingRedoBetween,2021.2.3,59.90646205
,,,,51,0,51,0,,,,,,,,,,,,,,,,,,,,,,2849.500888,None,,,,,,,,,,,,,,,,,estate,142,52,sing,new,null,2841.519335,None,2841.519335,None,6,1.578479,2841.519335,None,1.578479,2843.130349,None,2843.650334,None,2843.650334,None,f,5.8234132,2843.650334,None,5.8234132,,,June27Sing1,1,2022_Jun_27_1319,ProdSingRedoBetween,2021.2.3,59.90646205
,,,,52,0,52,0,,,,,,,,,,,,,,,,,,,,,,2853.505004,None,,,,,,,,,,,,,,,,,season,168,53,sing,new,null,2850.016904,None,2850.016904,None,6,2.0810116,2850.016904,None,2.0810116,2852.129355,None,2852.640993,None,2852.640993,None,f,0.8488805,2852.640993,None,0.8488805,,,June27Sing1,1,2022_Jun_27_1319,ProdSingRedoBetween,2021.2.3,59.90646205
,,,,53,0,53,0,,,,,,,,,,,,,,,,,,,,,,2857.408768,None,,,,,,,,,,,,,,,,,minute,114,54,sing,new,null,2854.012301,None,2854.012301,None,5,1.6935113,2854.012301,None,1.6935113,2855.72529,None,2856.224379,None,2856.224379,None,f,1.1614473,2856.224379,None,1.1614473,,,June27Sing1,1,2022_Jun_27_1319,ProdSingRedoBetween,2021.2.3,59.90646205
,,,,54,0,54,0,,,,,,,,,,,,,,,,,,,,,,2863.468213,None,,,,,,,,,,,,,,,,,accident,132,55,sing,new,null,2857.912314,None,2857.912314,None,5,3.1135386,2857.912314,None,3.1135386,2861.046615,None,2861.551974,None,2861.551974,None,f,1.8978805,2861.551974,None,1.8978805,,,June27Sing1,1,2022_Jun_27_1319,ProdSingRedoBetween,2021.2.3,59.90646205
,,,,55,0,55,0,,,,,,,,,,,,,,,,,,,,,,2867.168645,None,,,,,,,,,,,,,,,,,blind,70,56,sing,old,red,2863.989409,None,2863.989409,None,5,1.6524248,2863.989409,None,1.6524248,2865.666988,None,2866.172112,None,2866.172112,None,f,0.9656216,2866.172112,None,0.9656216,,,June27Sing1,1,2022_Jun_27_1319,ProdSingRedoBetween,2021.2.3,59.90646205
,,,,56,0,56,0,,,,,,,,,,,,,,,,,,,,,,2870.305019,None,,,,,,,,,,,,,,,,,interior,178,57,sing,new,null,2867.670453,None,2867.670453,None,5,1.5074753,2867.670453,None,1.5074753,2869.204306,None,2869.704546,None,2869.704546,None,f,0.5773987,2869.704546,None,0.5773987,,,June27Sing1,1,2022_Jun_27_1319,ProdSingRedoBetween,2021.2.3,59.90646205
,,,,57,0,57,0,,,,,,,,,,,,,,,,,,,,,,2874.325651,None,,,,,,,,,,,,,,,,,judge,81,58,sing,old,red,2870.815438,None,2870.815438,None,5,1.7704174,2870.815438,None,1.7704174,2872.609038,None,2873.113264,None,2873.113264,None,f,1.1845268,2873.113264,None,1.1845268,,,June27Sing1,1,2022_Jun_27_1319,ProdSingRedoBetween,2021.2.3,59.90646205
,,,,58,0,58,0,,,,,,,,,,,,,,,,,,,,,,2877.829173,None,,,,,,,,,,,,,,,,,brief,179,59,sing,new,null,2874.828516,None,2874.828516,None,5,1.3253254,2874.828516,None,1.3253254,2876.178687,None,2876.682782,None,2876.682782,None,f,1.1269597,2876.682782,None,1.1269597,,,June27Sing1,1,2022_Jun_27_1319,ProdSingRedoBetween,2021.2.3,59.90646205
,,,,59,0,59,0,,,,,,,,,,,,,,,,,,,,,,2880.767846,None,,,,,,,,,,,,,,,,,carry,28,60,sing,old,yellow,2878.33938,None,2878.33938,None,5,1.2784975,2878.33938,None,1.2784975,2879.650365,None,2880.16682,None,2880.16682,None,f,0.5709723,2880.16682,None,0.5709723,,,June27Sing1,1,2022_Jun_27_1319,ProdSingRedoBetween,2021.2.3,59.90646205
,,,,60,0,60,0,,,,,,,,,,,,,,,,,,,,,,2885.470979,None,,,,,,,,,,,,,,,,,distance,118,61,sing,new,null,2881.285474,None,2881.285474,None,5,2.6443639,2881.285474,None,2.6443639,2883.954941,None,2884.479303,None,2884.479303,None,f,0.9705545,2884.479303,None,0.9705545,,,June27Sing1,1,2022_Jun_27_1319,ProdSingRedoBetween,2021.2.3,59.90646205
,,,,61,0,61,0,,,,,,,,,,,,,,,,,,,,,,2889.29078,None,,,,,,,,,,,,,,,,,birth,145,62,sing,new,null,2885.979031,None,2885.979031,None,5,1.3907729,2885.979031,None,1.3907729,2887.390468,None,2887.896392,None,2887.896392,None,r,1.3694215,2887.896392,None,1.3694215,,,June27Sing1,1,2022_Jun_27_1319,ProdSingRedoBetween,2021.2.3,59.90646205
,,,,62,0,62,0,,,,,,,,,,,,,,,,,,,,,,2893.261233,None,,,,,,,,,,,,,,,,,sunset,6,63,sing,old,yellow,2889.799981,None,2889.799981,None,5,1.793863,2889.799981,None,1.793863,2891.613267,None,2892.129762,None,2892.129762,None,f,1.1040312,2892.129762,None,1.1040312,,,June27Sing1,1,2022_Jun_27_1319,ProdSingRedoBetween,2021.2.3,59.90646205
,,,,63,0,63,0,,,,,,,,,,,,,,,,,,,,,,2897.031659,None,,,,,,,,,,,,,,,,,gesture,105,64,sing,new,null,2893.771987,None,2893.771987,None,5,1.7258194,2893.771987,None,1.7258194,2895.516887,None,2896.033523,None,2896.033523,None,n,0.9762962,2896.033523,None,0.9762962,,,June27Sing1,1,2022_Jun_27_1319,ProdSingRedoBetween,2021.2.3,59.90646205
,,,,64,0,64,0,,,,,,,,,,,,,,,,,,,,,,2900.852136,None,,,,,,,,,,,,,,,,,public,2,65,sing,old,yellow,2897.540443,None,2897.540443,None,5,1.5574617,2897.540443,None,1.5574617,2899.128348,None,2899.637081,None,2899.637081,None,f,1.1887257,2899.637081,None,1.1887257,,,June27Sing1,1,2022_Jun_27_1319,ProdSingRedoBetween,2021.2.3,59.90646205
,,,,65,0,65,0,,,,,,,,,,,,,,,,,,,,,,2904.655932,None,,,,,,,,,,,,,,,,,capital,112,66,sing,new,null,2901.364662,None,2901.364662,None,5,1.4854711,2901.364662,None,1.4854711,2902.872223,None,2903.377077,None,2903.377077,None,r,1.2567294,2903.377077,None,1.2567294,,,June27Sing1,1,2022_Jun_27_1319,ProdSingRedoBetween,2021.2.3,59.90646205
,,,,66,0,66,0,,,,,,,,,,,,,,,,,,,,,,2908.327268,None,,,,,,,,,,,,,,,,,pretty,62,67,sing,old,red,2905.167442,None,2905.167442,None,6,1.2985067,2905.167442,None,1.2985067,2906.495926,None,2907.014888,None,2907.014888,None,f,1.282992,2907.014888,None,1.282992,,,June27Sing1,1,2022_Jun_27_1319,ProdSingRedoBetween,2021.2.3,59.90646205
,,,,67,0,67,0,,,,,,,,,,,,,,,,,,,,,,2911.646334,None,,,,,,,,,,,,,,,,,vision,154,68,sing,new,null,2908.834061,None,2908.834061,None,6,1.2637384,2908.834061,None,1.2637384,2910.131106,None,2910.653226,None,2910.653226,None,f,0.9645217,2910.653226,None,0.9645217,,,June27Sing1,1,2022_Jun_27_1319,ProdSingRedoBetween,2021.2.3,59.90646205
,,,,68,0,68,0,,,,,,,,,,,,,,,,,,,,,,2915.501196,None,,,,,,,,,,,,,,,,,republic,53,69,sing,old,blue,2912.163337,None,2912.163337,None,6,1.7024385,2912.163337,None,1.7024385,2913.8852,None,2914.401919,None,2914.401919,None,f,1.0800782,2914.401919,None,1.0800782,,,June27Sing1,1,2022_Jun_27_1319,ProdSingRedoBetween,2021.2.3,59.90646205
,,,,69,0,69,0,,,,,,,,,,,,,,,,,,,,,,2919.42217,None,,,,,,,,,,,,,,,,,swift,171,70,sing,new,null,2916.003905,None,2916.003905,None,5,1.7499627,2916.003905,None,1.7499627,2917.777715,None,2918.286483,None,2918.286483,None,f,1.1154827,2918.286483,None,1.1154827,,,June27Sing1,1,2022_Jun_27_1319,ProdSingRedoBetween,2021.2.3,59.90646205
,,,,70,0,70,0,,,,,,,,,,,,,,,,,,,,,,2924.175496,None,,,,,,,,,,,,,,,,,surprise,151,71,sing,new,null,2919.926658,None,2919.926658,None,5,2.3151548,2919.926658,None,2.3151548,2922.274451,None,2922.779686,None,2922.779686,None,f,1.3741679,2922.779686,None,1.3741679,,,June27Sing1,1,2022_Jun_27_1319,ProdSingRedoBetween,2021.2.3,59.90646205
,,,,71,0,71,0,,,,,,,,,,,,,,,,,,,,,,2927.879303,None,,,,,,,,,,,,,,,,,provision,37,72,sing,old,blue,2924.688574,None,2924.688574,None,5,1.6893071,2924.688574,None,1.6893071,2926.396715,None,2926.913009,None,2926.913009,None,f,0.9368789,2926.913009,None,0.9368789,,,June27Sing1,1,2022_Jun_27_1319,ProdSingRedoBetween,2021.2.3,59.90646205
,,,,72,0,72,0,,,,,,,,,,,,,,,,,,,,,,2932.600532,None,,,,,,,,,,,,,,,,,health,91,73,sing,new,null,2928.39102,None,2928.39102,None,5,2.4347307,2928.39102,None,2.4347307,2930.848881,None,2931.353664,None,2931.353664,None,f,1.2161236,2931.353664,None,1.2161236,,,June27Sing1,1,2022_Jun_27_1319,ProdSingRedoBetween,2021.2.3,59.90646205
,,,,73,0,73,0,,,,,,,,,,,,,,,,,,,,,,2936.571316,None,,,,,,,,,,,,,,,,,employment,137,74,sing,new,null,2933.104985,None,2933.104985,None,6,1.6248016,2933.104985,None,1.6248016,2934.754093,None,2935.259238,None,2935.259238,None,r,1.2945671,2935.259238,None,1.2945671,,,June27Sing1,1,2022_Jun_27_1319,ProdSingRedoBetween,2021.2.3,59.90646205
,,,,74,0,74,0,,,,,,,,,,,,,,,,,,,,,,2940.374927,None,,,,,,,,,,,,,,,,,research,48,75,sing,old,blue,2937.0772,None,2937.0772,None,5,1.8286284,2937.0772,None,1.8286284,2938.924682,None,2939.42422,None,2939.42422,None,f,0.929572,2939.42422,None,0.929572,,,June27Sing1,1,2022_Jun_27_1319,ProdSingRedoBetween,2021.2.3,59.90646205
,,,,75,0,75,0,,,,,,,,,,,,,,,,,,,,,,2944.262307,None,,,,,,,,,,,,,,,,,patient,97,76,sing,new,null,2940.884974,None,2940.884974,None,6,1.9168413,2940.884974,None,1.9168413,2942.827639,None,2943.332463,None,2943.332463,None,f,0.9094468,2943.332463,None,0.9094468,,,June27Sing1,1,2022_Jun_27_1319,ProdSingRedoBetween,2021.2.3,59.90646205
,,,,76,0,76,0,,,,,,,,,,,,,,,,,,,,,,2947.982527,None,,,,,,,,,,,,,,,,,order,77,77,sing,old,red,2944.771343,None,2944.771343,None,6,1.7903015,2944.771343,None,1.7903015,2946.583134,None,2947.098449,None,2947.098449,None,f,0.86336,2947.098449,None,0.86336,,,June27Sing1,1,2022_Jun_27_1319,ProdSingRedoBetween,2021.2.3,59.90646205
,,,,77,0,77,0,,,,,,,,,,,,,,,,,,,,,,2951.769812,None,,,,,,,,,,,,,,,,,ground,47,78,sing,old,blue,2948.48885,None,2948.48885,None,5,1.8089301,2948.48885,None,1.8089301,2950.319312,None,2950.826453,None,2950.826453,None,f,0.9272126,2950.826453,None,0.9272126,,,June27Sing1,1,2022_Jun_27_1319,ProdSingRedoBetween,2021.2.3,59.90646205
,,,,78,0,78,0,,,,,,,,,,,,,,,,,,,,,,2955.289905,None,,,,,,,,,,,,,,,,,place,45,79,sing,old,blue,2952.286155,None,2952.286155,None,5,1.3555982,2952.286155,None,1.3555982,2953.673575,None,2954.188982,None,2954.188982,None,f,1.0768303,2954.188982,None,1.0768303,,,June27Sing1,1,2022_Jun_27_1319,ProdSingRedoBetween,2021.2.3,59.90646205
,,,,79,0,79,0,,,,,,,,,,,,,,,,,,,,,,2958.659845,None,,,,,,,,,,,,,,,,,danger,158,80,sing,new,null,2955.799095,None,2955.799095,None,5,1.3146201,2955.799095,None,1.3146201,2957.14655,None,2957.663208,None,2957.663208,None,f,0.9784543,2957.663208,None,0.9784543,,,June27Sing1,1,2022_Jun_27_1319,ProdSingRedoBetween,2021.2.3,59.90646205
,,,,80,0,80,0,,,,,,,,,,,,,,,,,,,,,,2961.612874,None,,,,,,,,,,,,,,,,,reading,5,81,sing,old,yellow,2959.170809,None,2959.170809,None,5,1.1910877,2959.170809,None,1.1910877,2960.380153,None,2960.895519,None,2960.895519,None,f,0.6901847,2960.895519,None,0.6901847,,,June27Sing1,1,2022_Jun_27_1319,ProdSingRedoBetween,2021.2.3,59.90646205
,,,,81,0,81,0,,,,,,,,,,,,,,,,,,,,,,2964.265502,None,,,,,,,,,,,,,,,,,treatment,64,82,sing,old,red,2962.113572,None,2962.113572,None,5,1.1843022,2962.113572,None,1.1843022,2963.324132,None,2963.833696,None,2963.833696,None,f,0.4161815,2963.833696,None,0.4161815,,,June27Sing1,1,2022_Jun_27_1319,ProdSingRedoBetween,2021.2.3,59.90646205
,,,,82,0,82,0,,,,,,,,,,,,,,,,,,,,,,2967.435516,None,,,,,,,,,,,,,,,,,collection,34,83,sing,old,blue,2964.775752,None,2964.775752,None,5,1.2020939,2964.775752,None,1.2020939,2966.000742,None,2966.502921,None,2966.502921,None,r,0.9147439,2966.502921,None,0.9147439,,,June27Sing1,1,2022_Jun_27_1319,ProdSingRedoBetween,2021.2.3,59.90646205
,,,,83,0,83,0,,,,,,,,,,,,,,,,,,,,,,2970.638444,None,,,,,,,,,,,,,,,,,broke,110,84,sing,new,null,2967.937934,None,2967.937934,None,6,1.3438583,2967.937934,None,1.3438583,2969.305965,None,2969.830425,None,2969.830425,None,r,0.7793052,2969.830425,None,0.7793052,,,June27Sing1,1,2022_Jun_27_1319,ProdSingRedoBetween,2021.2.3,59.90646205
,,,,84,0,84,0,,,,,,,,,,,,,,,,,,,,,,2974.275436,None,,,,,,,,,,,,,,,,,speech,1,85,sing,old,yellow,2971.149363,None,2971.149363,None,5,1.6683582,2971.149363,None,1.6683582,2972.842063,None,2973.345767,None,2973.345767,None,f,0.9039687,2973.345767,None,0.9039687,,,June27Sing1,1,2022_Jun_27_1319,ProdSingRedoBetween,2021.2.3,59.90646205
,,,,85,0,85,0,,,,,,,,,,,,,,,,,,,,,,2978.818449,None,,,,,,,,,,,,,,,,,sight,108,86,sing,new,null,2974.788556,None,2974.788556,None,5,1.2291789,2974.788556,None,1.2291789,2976.045247,None,2976.548806,None,2976.548806,None,r,2.2450722,2976.548806,None,2.2450722,,,June27Sing1,1,2022_Jun_27_1319,ProdSingRedoBetween,2021.2.3,59.90646205
,,,,86,0,86,0,,,,,,,,,,,,,,,,,,,,,,2982.583727,None,,,,,,,,,,,,,,,,,enemy,50,87,sing,old,blue,2979.335876,None,2979.335876,None,5,1.5219827,2979.335876,None,1.5219827,2980.882805,None,2981.384721,None,2981.384721,None,f,1.1770477,2981.384721,None,1.1770477,,,June27Sing1,1,2022_Jun_27_1319,ProdSingRedoBetween,2021.2.3,59.90646205
,,,,87,0,87,0,,,,,,,,,,,,,,,,,,,,,,2986.420892,None,,,,,,,,,,,,,,,,,afternoon,156,88,sing,new,null,2983.094721,None,2983.094721,None,5,1.6270335,2983.094721,None,1.6270335,2984.753772,None,2985.25835,None,2985.25835,None,f,1.1353196,2985.25835,None,1.1353196,,,June27Sing1,1,2022_Jun_27_1319,ProdSingRedoBetween,2021.2.3,59.90646205
,,,,88,0,88,0,,,,,,,,,,,,,,,,,,,,,,2989.50732,None,,,,,,,,,,,,,,,,,government,12,89,sing,old,yellow,2986.931683,None,2986.931683,None,5,1.4940556,2986.931683,None,1.4940556,2988.457526,None,2988.956953,None,2988.956953,None,f,0.524829,2988.956953,None,0.524829,,,June27Sing1,1,2022_Jun_27_1319,ProdSingRedoBetween,2021.2.3,59.90646205
,,,,89,0,89,0,,,,,,,,,,,,,,,,,,,,,,2992.260186,None,,,,,,,,,,,,,,,,,atmosphere,164,90,sing,new,null,2990.016186,None,2990.016186,None,5,1.2494754,2990.016186,None,1.2494754,2991.293781,None,2991.801781,None,2991.801781,None,f,0.4319345,2991.801781,None,0.4319345,,,June27Sing1,1,2022_Jun_27_1319,ProdSingRedoBetween,2021.2.3,59.90646205
,,,,90,0,90,0,,,,,,,,,,,,,,,,,,,,,,2996.430939,None,,,,,,,,,,,,,,,,,union,71,91,sing,old,red,2992.766798,None,2992.766798,None,5,2.1069392,2992.766798,None,2.1069392,2994.898889,None,2995.413421,None,2995.413421,None,f,0.9883661,2995.413421,None,0.9883661,,,June27Sing1,1,2022_Jun_27_1319,ProdSingRedoBetween,2021.2.3,59.90646205
,,,,91,0,91,0,,,,,,,,,,,,,,,,,,,,,,3000.173379,None,,,,,,,,,,,,,,,,,crisis,84,92,sing,old,red,2996.934107,None,2996.934107,None,6,1.6916447,2996.934107,None,1.6916447,2998.651836,None,2999.173522,None,2999.173522,None,f,0.9725466,2999.173522,None,0.9725466,,,June27Sing1,1,2022_Jun_27_1319,ProdSingRedoBetween,2021.2.3,59.90646205
,,,,92,0,92,0,,,,,,,,,,,,,,,,,,,,,,3003.621459,None,,,,,,,,,,,,,,,,,space,131,93,sing,new,null,3000.698715,None,3000.698715,None,6,1.3989414,3000.698715,None,1.3989414,3002.120141,None,3002.624318,None,3002.624318,None,f,0.9774043,3002.624318,None,0.9774043,,,June27Sing1,1,2022_Jun_27_1319,ProdSingRedoBetween,2021.2.3,59.90646205
,,,,93,0,93,0,,,,,,,,,,,,,,,,,,,,,,3007.493692,None,,,,,,,,,,,,,,,,,sleep,144,94,sing,new,null,3004.131753,None,3004.131753,None,6,1.9262698,3004.131753,None,1.9262698,3006.080609,None,3006.59834,None,3006.59834,None,f,0.8755034,3006.59834,None,0.8755034,,,June27Sing1,1,2022_Jun_27_1319,ProdSingRedoBetween,2021.2.3,59.90646205
,,,,94,0,94,0,,,,,,,,,,,,,,,,,,,,,,3011.128874,None,,,,,,,,,,,,,,,,,century,82,95,sing,old,red,3008.004251,None,3008.004251,None,6,1.6855051,3008.004251,None,1.6855051,3009.714602,None,3010.230299,None,3010.230299,None,f,0.8755597,3010.230299,None,0.8755597,,,June27Sing1,1,2022_Jun_27_1319,ProdSingRedoBetween,2021.2.3,59.90646205
,,,,95,0,95,0,,,,,,,,,,,,,,,,,,,,,,3014.31542,None,,,,,,,,,,,,,,,,,welcome,56,96,sing,old,blue,3011.635598,None,3011.635598,None,6,1.3100303,3011.635598,None,1.3100303,3012.965272,None,3013.471076,None,3013.471076,None,f,0.8266657,3013.471076,None,0.8266657,,,June27Sing1,1,2022_Jun_27_1319,ProdSingRedoBetween,2021.2.3,59.90646205
,,,,96,0,96,0,,,,,,,,,,,,,,,,,,,,,,3019.320408,None,,,,,,,,,,,,,,,,,quick,33,97,sing,old,blue,3014.832495,None,3014.832495,None,6,2.7132578,3014.832495,None,2.7132578,3017.572437,None,3018.086003,None,3018.086003,None,f,1.2037438,3018.086003,None,1.2037438,,,June27Sing1,1,2022_Jun_27_1319,ProdSingRedoBetween,2021.2.3,59.90646205
,,,,97,0,97,0,,,,,,,,,,,,,,,,,,,,,,3022.607466,None,,,,,,,,,,,,,,,,,captain,30,98,sing,old,blue,3019.823828,None,3019.823828,None,6,1.2019293,3019.823828,None,1.2019293,3021.05941,None,3021.577096,None,3021.577096,None,f,1.0086669,3021.577096,None,1.0086669,,,June27Sing1,1,2022_Jun_27_1319,ProdSingRedoBetween,2021.2.3,59.90646205
,,,,98,0,98,0,,,,,,,,,,,,,,,,,,,,,,3026.177288,None,,,,,,,,,,,,,,,,,alert,121,99,sing,new,null,3023.11047,None,3023.11047,None,6,1.6272729,3023.11047,None,1.6272729,3024.766289,None,3025.276547,None,3025.276547,None,f,0.8692723,3025.276547,None,0.8692723,,,June27Sing1,1,2022_Jun_27_1319,ProdSingRedoBetween,2021.2.3,59.90646205
,,,,99,0,99,0,,,,,,,,,,,,,,,,,,,,,,3029.263684,None,,,,,,,,,,,,,,,,,husband,51,100,sing,old,blue,3026.686014,None,3026.686014,None,6,1.14761,3026.686014,None,1.14761,3027.862248,None,3028.370357,None,3028.370357,None,f,0.8713712,3028.370357,None,0.8713712,,,June27Sing1,1,2022_Jun_27_1319,ProdSingRedoBetween,2021.2.3,59.90646205
,,,,100,0,100,0,,,,,,,,,,,,,,,,,,,,,,3032.454662,None,,,,,,,,,,,,,,,,,engineer,89,101,sing,old,red,3029.7746,None,3029.7746,None,6,1.2191473,3029.7746,None,1.2191473,3031.018852,None,3031.535624,None,3031.535624,None,f,0.8981823,3031.535624,None,0.8981823,,,June27Sing1,1,2022_Jun_27_1319,ProdSingRedoBetween,2021.2.3,59.90646205
,,,,101,0,101,0,,,,,,,,,,,,,,,,,,,,,,3035.970397,None,,,,,,,,,,,,,,,,,quarter,14,102,sing,old,yellow,3032.967501,None,3032.967501,None,5,1.4342092,3032.967501,None,1.4342092,3034.424323,None,3034.93968,None,3034.93968,None,f,1.0060932,3034.93968,None,1.0060932,,,June27Sing1,1,2022_Jun_27_1319,ProdSingRedoBetween,2021.2.3,59.90646205
,,,,102,0,102,0,,,,,,,,,,,,,,,,,,,,,,3039.158371,None,,,,,,,,,,,,,,,,,society,24,103,sing,old,yellow,3036.484455,None,3036.484455,None,6,1.2058281,3036.484455,None,1.2058281,3037.708878,None,3038.22733,None,3038.22733,None,f,0.9023915,3038.22733,None,0.9023915,,,June27Sing1,1,2022_Jun_27_1319,ProdSingRedoBetween,2021.2.3,59.90646205
,,,,103,0,103,0,,,,,,,,,,,,,,,,,,,,,,3042.52708,None,,,,,,,,,,,,,,,,,color,94,104,sing,new,null,3039.662007,None,3039.662007,None,6,1.3317563,3039.662007,None,1.3317563,3041.010149,None,3041.513669,None,3041.513669,None,f,0.9920804,3041.513669,None,0.9920804,,,June27Sing1,1,2022_Jun_27_1319,ProdSingRedoBetween,2021.2.3,59.90646205
,,,,104,0,104,0,,,,,,,,,,,,,,,,,,,,,,3045.481706,None,,,,,,,,,,,,,,,,,touch,96,105,sing,new,null,3043.037393,None,3043.037393,None,6,1.0843224,3043.037393,None,1.0843224,3044.145205,None,3044.646016,None,3044.646016,None,f,0.8117533,3044.646016,None,0.8117533,,,June27Sing1,1,2022_Jun_27_1319,ProdSingRedoBetween,2021.2.3,59.90646205
,,,,105,0,105,0,,,,,,,,,,,,,,,,,,,,,,3048.332971,None,,,,,,,,,,,,,,,,,death,65,106,sing,old,red,3045.992467,None,3045.992467,None,6,1.0812435,3045.992467,None,1.0812435,3047.102432,None,3047.615816,None,3047.615816,None,f,0.6979117,3047.615816,None,0.6979117,,,June27Sing1,1,2022_Jun_27_1319,ProdSingRedoBetween,2021.2.3,59.90646205
,,,,106,0,106,0,,,,,,,,,,,,,,,,,,,,,,3051.436417,None,,,,,,,,,,,,,,,,,career,76,107,sing,old,red,3048.842008,None,3048.842008,None,6,1.335708,3048.842008,None,1.335708,3050.204318,None,3050.718609,None,3050.718609,None,f,0.6910555,3050.718609,None,0.6910555,,,June27Sing1,1,2022_Jun_27_1319,ProdSingRedoBetween,2021.2.3,59.90646205
,,,,107,0,107,0,,,,,,,,,,,,,,,,,,,,,,3053.905054,None,,,,,,,,,,,,,,,,,goose,23,108,sing,old,yellow,3051.948742,None,3051.948742,None,6,1.2049642,3051.948742,None,1.2049642,3053.174264,None,3053.691998,None,3053.691998,None,f,0.1815742,3053.691998,None,0.1815742,,,June27Sing1,1,2022_Jun_27_1319,ProdSingRedoBetween,2021.2.3,59.90646205
,,,,108,0,108,0,,,,,,,,,,,,,,,,,,,,,,3057.675715,None,,,,,,,,,,,,,,,,,balance,138,109,sing,new,null,3054.420586,None,3054.420586,None,6,1.9331403,3054.420586,None,1.9331403,3056.381675,None,3056.891549,None,3056.891549,None,f,0.7580972,3056.891549,None,0.7580972,,,June27Sing1,1,2022_Jun_27_1319,ProdSingRedoBetween,2021.2.3,59.90646205
,,,,109,0,109,0,,,,,,,,,,,,,,,,,,,,,,3060.795125,None,,,,,,,,,,,,,,,,,south,133,110,sing,new,null,3058.183192,None,3058.183192,None,6,1.0905378,3058.183192,None,1.0905378,3059.295641,None,3059.815249,None,3059.815249,None,f,0.9624252,3059.815249,None,0.9624252,,,June27Sing1,1,2022_Jun_27_1319,ProdSingRedoBetween,2021.2.3,59.90646205
,,,,110,0,110,0,,,,,,,,,,,,,,,,,,,,,,3063.914935,None,,,,,,,,,,,,,,,,,point,169,111,sing,new,null,3061.308122,None,3061.308122,None,6,1.1176191,3061.308122,None,1.1176191,3062.446808,None,3062.953205,None,3062.953205,None,f,0.9445049,3062.953205,None,0.9445049,,,June27Sing1,1,2022_Jun_27_1319,ProdSingRedoBetween,2021.2.3,59.90646205
,,,,111,0,111,0,,,,,,,,,,,,,,,,,,,,,,3066.901234,None,,,,,,,,,,,,,,,,,attack,99,112,sing,new,null,3064.423386,None,3064.423386,None,6,1.0984162,3064.423386,None,1.0984162,3065.555899,None,3066.072995,None,3066.072995,None,f,0.8006607,3066.072995,None,0.8006607,,,June27Sing1,1,2022_Jun_27_1319,ProdSingRedoBetween,2021.2.3,59.90646205
,,,,112,0,112,0,,,,,,,,,,,,,,,,,,,,,,3069.820835,None,,,,,,,,,,,,,,,,,interview,155,113,sing,new,null,3067.40613,None,3067.40613,None,6,1.0755718,3067.40613,None,1.0755718,3068.504825,None,3069.025341,None,3069.025341,None,f,0.7763482,3069.025341,None,0.7763482,,,June27Sing1,1,2022_Jun_27_1319,ProdSingRedoBetween,2021.2.3,59.90646205
,,,,113,0,113,0,,,,,,,,,,,,,,,,,,,,,,3073.458733,None,,,,,,,,,,,,,,,,,turkey,104,114,sing,new,null,3070.330195,None,3070.330195,None,6,1.6874865,3070.330195,None,1.6874865,3072.042978,None,3072.556982,None,3072.556982,None,f,0.8847192,3072.556982,None,0.8847192,,,June27Sing1,1,2022_Jun_27_1319,ProdSingRedoBetween,2021.2.3,59.90646205
,,,,114,0,114,0,,,,,,,,,,,,,,,,,,,,,,3076.928158,None,,,,,,,,,,,,,,,,,straight,98,115,sing,new,null,3073.961905,None,3073.961905,None,6,1.2158028,3073.961905,None,1.2158028,3075.195045,None,3075.715435,None,3075.715435,None,r,1.1822203,3075.715435,None,1.1822203,,,June27Sing1,1,2022_Jun_27_1319,ProdSingRedoBetween,2021.2.3,59.90646205
,,,,115,0,115,0,,,,,,,,,,,,,,,,,,,,,,3080.898569,None,,,,,,,,,,,,,,,,,leader,75,116,sing,old,red,3077.443134,None,3077.443134,None,6,1.7745432,3077.443134,None,1.7745432,3079.247585,None,3079.750668,None,3079.750668,None,f,1.1311328,3079.750668,None,1.1311328,,,June27Sing1,1,2022_Jun_27_1319,ProdSingRedoBetween,2021.2.3,59.90646205
,,,,116,0,116,0,,,,,,,,,,,,,,,,,,,,,,3084.335502,None,,,,,,,,,,,,,,,,,member,60,117,sing,old,red,3081.406864,None,3081.406864,None,6,1.3628008,3081.406864,None,1.3628008,3082.800547,None,3083.309747,None,3083.309747,None,f,0.9959157,3083.309747,None,0.9959157,,,June27Sing1,1,2022_Jun_27_1319,ProdSingRedoBetween,2021.2.3,59.90646205
,,,,117,0,117,0,,,,,,,,,,,,,,,,,,,,,,3087.638545,None,,,,,,,,,,,,,,,,,congress,109,118,sing,new,null,3084.84703,None,3084.84703,None,6,1.3066804,3084.84703,None,1.3066804,3086.177536,None,3086.690021,None,3086.690021,None,f,0.9275813,3086.690021,None,0.9275813,,,June27Sing1,1,2022_Jun_27_1319,ProdSingRedoBetween,2021.2.3,59.90646205
,,,,118,0,118,0,,,,,,,,,,,,,,,,,,,,,,3090.057702,None,,,,,,,,,,,,,,,,,frank,115,119,sing,new,null,3088.139158,None,3088.139158,None,6,1.20644,3088.139158,None,1.20644,3089.375034,None,3089.879327,None,3089.879327,None,f,0.162332,3089.879327,None,0.162332,,,June27Sing1,1,2022_Jun_27_1319,ProdSingRedoBetween,2021.2.3,59.90646205
,,,,119,0,119,0,,,,,,,,,,,,,,,,,,,,,,3092.810443,None,,,,,,,,,,,,,,,,,owner,61,120,sing,old,red,3090.568338,None,3090.568338,None,6,1.241442,3090.568338,None,1.241442,3091.836073,None,3092.345748,None,3092.345748,None,r,0.4399572,3092.345748,None,0.4399572,,,June27Sing1,1,2022_Jun_27_1319,ProdSingRedoBetween,2021.2.3,59.90646205
,,,,120,0,120,0,,,,,,,,,,,,,,,,,,,,,,3096.514311,None,,,,,,,,,,,,,,,,,medicine,36,121,sing,old,blue,3093.323245,None,3093.323245,None,6,1.7825025,3093.323245,None,1.7825025,3095.133597,None,3095.64984,None,3095.64984,None,f,0.8398321,3095.64984,None,0.8398321,,,June27Sing1,1,2022_Jun_27_1319,ProdSingRedoBetween,2021.2.3,59.90646205
,,,,121,0,121,0,,,,,,,,,,,,,,,,,,,,,,3100.0677,None,,,,,,,,,,,,,,,,,brilliant,78,122,sing,old,red,3097.026246,None,3097.026246,None,6,1.5354605,3097.026246,None,1.5354605,3098.587468,None,3099.103979,None,3099.103979,None,f,0.9376334,3099.103979,None,0.9376334,,,June27Sing1,1,2022_Jun_27_1319,ProdSingRedoBetween,2021.2.3,59.90646205
,,,,122,0,122,0,,,,,,,,,,,,,,,,,,,,,,3103.170729,None,,,,,,,,,,,,,,,,,opening,29,123,sing,old,blue,3100.571122,None,3100.571122,None,6,1.2226101,3100.571122,None,1.2226101,3101.828234,None,3102.342009,None,3102.342009,None,f,0.8036613,3102.342009,None,0.8036613,,,June27Sing1,1,2022_Jun_27_1319,ProdSingRedoBetween,2021.2.3,59.90646205
,,,,123,0,123,0,,,,,,,,,,,,,,,,,,,,,,3106.641044,None,,,,,,,,,,,,,,,,,dream,18,124,sing,old,yellow,3103.686278,None,3103.686278,None,6,1.3636574,3103.686278,None,1.3636574,3105.079706,None,3105.590132,None,3105.590132,None,f,1.035471,3105.590132,None,1.035471,,,June27Sing1,1,2022_Jun_27_1319,ProdSingRedoBetween,2021.2.3,59.90646205
,,,,124,0,124,0,,,,,,,,,,,,,,,,,,,,,,3109.994266,None,,,,,,,,,,,,,,,,,device,57,125,sing,old,blue,3107.1485,None,3107.1485,None,6,1.3171353,3107.1485,None,1.3171353,3108.497918,None,3109.010284,None,3109.010284,None,f,0.9593825,3109.010284,None,0.9593825,,,June27Sing1,1,2022_Jun_27_1319,ProdSingRedoBetween,2021.2.3,59.90646205
,,,,125,0,125,0,,,,,,,,,,,,,,,,,,,,,,3113.433638,None,,,,,,,,,,,,,,,,,answer,176,126,sing,new,null,3110.503714,None,3110.503714,None,6,1.2419244,3110.503714,None,1.2419244,3111.764214,None,3112.263278,None,3112.263278,None,f,1.14643,3112.263278,None,1.14643,,,June27Sing1,1,2022_Jun_27_1319,ProdSingRedoBetween,2021.2.3,59.90646205
,,,,126,0,126,0,,,,,,,,,,,,,,,,,,,,,,3117.251383,None,,,,,,,,,,,,,,,,,instrument,85,127,sing,old,red,3113.965075,None,3113.965075,None,6,1.6125739,3113.965075,None,1.6125739,3115.602803,None,3116.120234,None,3116.120234,None,f,1.1053936,3116.120234,None,1.1053936,,,June27Sing1,1,2022_Jun_27_1319,ProdSingRedoBetween,2021.2.3,59.90646205
,,,,127,0,127,0,,,,,,,,,,,,,,,,,,,,,,3120.707184,None,,,,,,,,,,,,,,,,,disease,174,128,sing,new,null,3117.754665,None,3117.754665,None,6,1.1351164,3117.754665,None,1.1351164,3118.921675,None,3119.442352,None,3119.442352,None,f,1.2473605,3119.442352,None,1.2473605,,,June27Sing1,1,2022_Jun_27_1319,ProdSingRedoBetween,2021.2.3,59.90646205
,,,,128,0,128,0,,,,,,,,,,,,,,,,,,,,,,3124.592196,None,,,,,,,,,,,,,,,,,dozen,147,129,sing,new,null,3121.229765,None,3121.229765,None,5,1.691967,3121.229765,None,1.691967,3122.941972,None,3123.448538,None,3123.448538,None,r,1.1131286,3123.448538,None,1.1131286,,,June27Sing1,1,2022_Jun_27_1319,ProdSingRedoBetween,2021.2.3,59.90646205
,,,,129,0,129,0,,,,,,,,,,,,,,,,,,,,,,3129.864926,None,,,,,,,,,,,,,,,,,express,69,130,sing,old,red,3125.106904,None,3125.106904,None,6,2.9027787,3125.106904,None,2.9027787,3128.035822,None,3128.552041,None,3128.552041,None,r,1.2896002,3128.552041,None,1.2896002,,,June27Sing1,1,2022_Jun_27_1319,ProdSingRedoBetween,2021.2.3,59.90646205
,,,,130,0,130,0,,,,,,,,,,,,,,,,,,,,,,3133.520362,None,,,,,,,,,,,,,,,,,suspect,120,131,sing,new,null,3130.367732,None,3130.367732,None,6,1.6739217,3130.367732,None,1.6739217,3132.067728,None,3132.572552,None,3132.572552,None,f,0.9251656,3132.572552,None,0.9251656,,,June27Sing1,1,2022_Jun_27_1319,ProdSingRedoBetween,2021.2.3,59.90646205
,,,,131,0,131,0,,,,,,,,,,,,,,,,,,,,,,3136.822496,None,,,,,,,,,,,,,,,,,story,123,132,sing,new,null,3134.039688,None,3134.039688,None,6,1.585895,3134.039688,None,1.585895,3135.65405,None,3136.159572,None,3136.159572,None,f,0.6421215,3136.159572,None,0.6421215,,,June27Sing1,1,2022_Jun_27_1319,ProdSingRedoBetween,2021.2.3,59.90646205
,,,,132,0,132,0,,,,,,,,,,,,,,,,,,,,,,3140.309701,None,,,,,,,,,,,,,,,,,second,102,133,sing,new,null,3137.325075,None,3137.325075,None,6,1.4365157,3137.325075,None,1.4365157,3138.792356,None,3139.30917,None,3139.30917,None,f,0.9804719,3139.30917,None,0.9804719,,,June27Sing1,1,2022_Jun_27_1319,ProdSingRedoBetween,2021.2.3,59.90646205
,,,,133,0,133,0,,,,,,,,,,,,,,,,,,,,,,3143.360918,None,,,,,,,,,,,,,,,,,listen,103,134,sing,new,null,3140.827556,None,3140.827556,None,6,1.3980546,3140.827556,None,1.3980546,3142.246136,None,3142.764767,None,3142.764767,None,f,0.580905,3142.764767,None,0.580905,,,June27Sing1,1,2022_Jun_27_1319,ProdSingRedoBetween,2021.2.3,59.90646205
,,,,134,0,134,0,,,,,,,,,,,,,,,,,,,,,,3146.230473,None,,,,,,,,,,,,,,,,,heavy,80,135,sing,old,red,3143.872848,None,3143.872848,None,6,1.1607518,3143.872848,None,1.1607518,3145.064716,None,3145.58407,None,3145.58407,None,f,0.6175742,3145.58407,None,0.6175742,,,June27Sing1,1,2022_Jun_27_1319,ProdSingRedoBetween,2021.2.3,59.90646205
,,,,135,0,135,0,,,,,,,,,,,,,,,,,,,,,,3149.817268,None,,,,,,,,,,,,,,,,,people,16,136,sing,old,yellow,3146.733877,None,3146.733877,None,6,1.6037194,3146.733877,None,1.6037194,3148.372708,None,3148.883221,None,3148.883221,None,f,0.9183739,3148.883221,None,0.9183739,,,June27Sing1,1,2022_Jun_27_1319,ProdSingRedoBetween,2021.2.3,59.90646205
,,,,136,0,136,0,,,,,,,,,,,,,,,,,,,,,,3152.853695,None,,,,,,,,,,,,,,,,,damage,127,137,sing,new,null,3150.318029,None,3150.318029,None,6,1.539551,3150.318029,None,1.539551,3151.88628,None,3152.3869,None,3152.3869,None,f,0.4467775,3152.3869,None,0.4467775,,,June27Sing1,1,2022_Jun_27_1319,ProdSingRedoBetween,2021.2.3,59.90646205
,,,,137,0,137,0,,,,,,,,,,,,,,,,,,,,,,3156.459565,None,,,,,,,,,,,,,,,,,youth,122,138,sing,new,null,3153.359645,None,3153.359645,None,5,1.5858988,3153.359645,None,1.5858988,3154.973797,None,3155.478525,None,3155.478525,None,f,0.9631823,3155.478525,None,0.9631823,,,June27Sing1,1,2022_Jun_27_1319,ProdSingRedoBetween,2021.2.3,59.90646205
,,,,138,0,138,0,,,,,,,,,,,,,,,,,,,,,,3160.12792,None,,,,,,,,,,,,,,,,,business,113,139,sing,new,null,3156.978741,None,3156.978741,None,5,1.790929,3156.978741,None,1.790929,3158.793071,None,3159.297634,None,3159.297634,None,f,0.7998512,3159.297634,None,0.7998512,,,June27Sing1,1,2022_Jun_27_1319,ProdSingRedoBetween,2021.2.3,59.90646205
,,,,139,0,139,0,,,,,,,,,,,,,,,,,,,,,,3163.198775,None,,,,,,,,,,,,,,,,,build,66,140,sing,old,red,3160.635114,None,3160.635114,None,5,1.5345433,3160.635114,None,1.5345433,3162.196622,None,3162.702449,None,3162.702449,None,f,0.4671224,3162.702449,None,0.4671224,,,June27Sing1,1,2022_Jun_27_1319,ProdSingRedoBetween,2021.2.3,59.90646205
,,,,140,0,140,0,,,,,,,,,,,,,,,,,,,,,,3166.033672,None,,,,,,,,,,,,,,,,,salary,20,141,sing,old,yellow,3163.702758,None,3163.702758,None,5,1.2027927,3163.702758,None,1.2027927,3164.932407,None,3165.433168,None,3165.433168,None,f,0.5844503,3165.433168,None,0.5844503,,,June27Sing1,1,2022_Jun_27_1319,ProdSingRedoBetween,2021.2.3,59.90646205
,,,,141,0,141,0,,,,,,,,,,,,,,,,,,,,,,3168.469361,None,,,,,,,,,,,,,,,,,cover,119,142,sing,new,null,3166.543973,None,3166.543973,None,6,1.0096927,3166.543973,None,1.0096927,3167.571951,None,3168.085928,None,3168.085928,None,f,0.355607,3168.085928,None,0.355607,,,June27Sing1,1,2022_Jun_27_1319,ProdSingRedoBetween,2021.2.3,59.90646205
,,,,142,0,142,0,,,,,,,,,,,,,,,,,,,,,,3171.358287,None,,,,,,,,,,,,,,,,,fashion,153,143,sing,new,null,3168.973618,None,3168.973618,None,6,1.4039846,3168.973618,None,1.4039846,3170.409071,None,3170.924677,None,3170.924677,None,f,0.4050023,3170.924677,None,0.4050023,,,June27Sing1,1,2022_Jun_27_1319,ProdSingRedoBetween,2021.2.3,59.90646205
,,,,143,0,143,0,,,,,,,,,,,,,,,,,,,,,,3174.265384,None,,,,,,,,,,,,,,,,,under,83,144,sing,old,red,3171.884543,None,3171.884543,None,6,1.3890744,3171.884543,None,1.3890744,3173.292821,None,3173.810964,None,3173.810964,None,f,0.4307483,3173.810964,None,0.4307483,,,June27Sing1,1,2022_Jun_27_1319,ProdSingRedoBetween,2021.2.3,59.90646205
,,,,144,0,144,0,,,,,,,,,,,,,,,,,,,,,,3177.044583,None,,,,,,,,,,,,,,,,,community,41,145,sing,old,blue,3174.784866,None,3174.784866,None,6,1.4087105,3174.784866,None,1.4087105,3176.21158,None,3176.714566,None,3176.714566,None,f,0.3029718,3176.714566,None,0.3029718,,,June27Sing1,1,2022_Jun_27_1319,ProdSingRedoBetween,2021.2.3,59.90646205
,,,,145,0,145,0,,,,,,,,,,,,,,,,,,,,,,3179.715578,None,,,,,,,,,,,,,,,,,safety,175,146,sing,new,null,3177.546538,None,3177.546538,None,6,1.1031258,3177.546538,None,1.1031258,3178.680439,None,3179.18606,None,3179.18606,None,f,0.5116642,3179.18606,None,0.5116642,,,June27Sing1,1,2022_Jun_27_1319,ProdSingRedoBetween,2021.2.3,59.90646205
,,,,146,0,146,0,,,,,,,,,,,,,,,,,,,,,,3182.266403,None,,,,,,,,,,,,,,,,,tough,100,147,sing,new,null,3180.236043,None,3180.236043,None,6,1.1656442,3180.236043,None,1.1656442,3181.438883,None,3181.957527,None,3181.957527,None,f,0.284031,3181.957527,None,0.284031,,,June27Sing1,1,2022_Jun_27_1319,ProdSingRedoBetween,2021.2.3,59.90646205
,,,,147,0,147,0,,,,,,,,,,,,,,,,,,,,,,3184.60295,None,,,,,,,,,,,,,,,,,month,136,148,sing,new,null,3182.774068,None,3182.774068,None,6,1.1797134,3182.774068,None,1.1797134,3183.990139,None,3184.50502,None,3184.50502,None,f,0.0806957,3184.50502,None,0.0806957,,,June27Sing1,1,2022_Jun_27_1319,ProdSingRedoBetween,2021.2.3,59.90646205
,,,,148,0,148,0,,,,,,,,,,,,,,,,,,,,,,3187.173975,None,,,,,,,,,,,,,,,,,smell,27,149,sing,old,yellow,3185.115694,None,3185.115694,None,6,1.141953,3185.115694,None,1.141953,3186.291358,None,3186.804444,None,3186.804444,None,f,0.341207,3186.804444,None,0.341207,,,June27Sing1,1,2022_Jun_27_1319,ProdSingRedoBetween,2021.2.3,59.90646205
,,,,149,0,149,0,,,,,,,,,,,,,,,,,,,,,,3190.00765,None,,,,,,,,,,,,,,,,,department,141,150,sing,new,null,3187.69035,None,3187.69035,None,6,1.4391833,3187.69035,None,1.4391833,3189.161789,None,3189.677613,None,3189.677613,None,f,0.2999728,3189.677613,None,0.2999728,,,June27Sing1,1,2022_Jun_27_1319,ProdSingRedoBetween,2021.2.3,59.90646205
,,,,150,0,150,0,,,,,,,,,,,,,,,,,,,,,,3193.027194,None,,,,,,,,,,,,,,,,,management,167,151,sing,new,null,3190.516171,None,3190.516171,None,5,1.6295211,3190.516171,None,1.6295211,3192.184417,None,3192.693713,None,3192.693713,None,f,0.3078976,3192.693713,None,0.3078976,,,June27Sing1,1,2022_Jun_27_1319,ProdSingRedoBetween,2021.2.3,59.90646205
,,,,151,0,151,0,,,,,,,,,,,,,,,,,,,,,,3195.996812,None,,,,,,,,,,,,,,,,,title,157,152,sing,new,null,3193.536844,None,3193.536844,None,5,1.5927472,3193.536844,None,1.5927472,3195.146049,None,3195.652629,None,3195.652629,None,f,0.325019,3195.652629,None,0.325019,,,June27Sing1,1,2022_Jun_27_1319,ProdSingRedoBetween,2021.2.3,59.90646205
,,,,152,0,152,0,,,,,,,,,,,,,,,,,,,,,,3198.434592,None,,,,,,,,,,,,,,,,,skill,10,153,sing,old,yellow,3196.514891,None,3196.514891,None,5,1.078721,3196.514891,None,1.078721,3197.616698,None,3198.12385,None,3198.12385,None,f,0.2938215,3198.12385,None,0.2938215,,,June27Sing1,1,2022_Jun_27_1319,ProdSingRedoBetween,2021.2.3,59.90646205
,,,,153,0,153,0,,,,,,,,,,,,,,,,,,,,,,3200.968414,None,,,,,,,,,,,,,,,,,music,86,154,sing,old,red,3198.954513,None,3198.954513,None,5,1.255091,3198.954513,None,1.255091,3200.24142,None,3200.756249,None,3200.756249,None,f,0.1973539,3200.756249,None,0.1973539,,,June27Sing1,1,2022_Jun_27_1319,ProdSingRedoBetween,2021.2.3,59.90646205
,,,,154,0,154,0,,,,,,,,,,,,,,,,,,,,,,3203.454246,None,,,,,,,,,,,,,,,,,silence,9,155,sing,old,yellow,3201.479389,None,3201.479389,None,5,1.1061911,3201.479389,None,1.1061911,3202.610113,None,3203.12075,None,3203.12075,None,f,0.304904,3203.12075,None,0.304904,,,June27Sing1,1,2022_Jun_27_1319,ProdSingRedoBetween,2021.2.3,59.90646205
,,,,155,0,155,0,,,,,,,,,,,,,,,,,,,,,,3205.723318,None,,,,,,,,,,,,,,,,,question,67,156,sing,old,red,3203.958289,None,3203.958289,None,5,1.0433403,3203.958289,None,1.0433403,3205.02431,None,3205.531678,None,3205.531678,None,f,0.173914,3205.531678,None,0.173914,,,June27Sing1,1,2022_Jun_27_1319,ProdSingRedoBetween,2021.2.3,59.90646205
,,,,156,0,156,0,,,,,,,,,,,,,,,,,,,,,,3209.026714,None,,,,,,,,,,,,,,,,,period,39,157,sing,old,blue,3206.226569,None,3206.226569,None,6,1.5909447,3206.226569,None,1.5909447,3207.84558,None,3208.363224,None,3208.363224,None,f,0.6383707,3208.363224,None,0.6383707,,,June27Sing1,1,2022_Jun_27_1319,ProdSingRedoBetween,2021.2.3,59.90646205
,,,,157,0,157,0,,,,,,,,,,,,,,,,,,,,,,3212.212932,None,,,,,,,,,,,,,,,,,substance,44,158,sing,old,blue,3209.544307,None,3209.544307,None,6,1.1613428,3209.544307,None,1.1613428,3210.733736,None,3211.24641,None,3211.24641,None,r,0.939164,3211.24641,None,0.939164,,,June27Sing1,1,2022_Jun_27_1319,ProdSingRedoBetween,2021.2.3,59.90646205
,,,,158,0,158,0,,,,,,,,,,,,,,,,,,,,,,3215.666557,None,,,,,,,,,,,,,,,,,bitter,59,159,sing,old,yellow,3212.719358,None,3212.719358,None,6,1.4422578,3212.719358,None,1.4422578,3214.182682,None,3214.684499,None,3214.684499,None,f,0.9651073,3214.684499,None,0.9651073,,,June27Sing1,1,2022_Jun_27_1319,ProdSingRedoBetween,2021.2.3,59.90646205
,,,,159,0,159,0,,,,,,,,,,,,,,,,,,,,,,3219.003192,None,,,,,,,,,,,,,,,,,weather,21,160,sing,old,yellow,3216.185413,None,3216.185413,None,6,1.3600595,3216.185413,None,1.3600595,3217.569746,None,3218.074618,None,3218.074618,None,f,0.9031777,3218.074618,None,0.9031777,,,June27Sing1,1,2022_Jun_27_1319,ProdSingRedoBetween,2021.2.3,59.90646205
,,,,160,0,160,0,,,,,,,,,,,,,,,,,,,,,,3222.189545,None,,,,,,,,,,,,,,,,,force,7,161,sing,old,yellow,3219.507037,None,3219.507037,None,6,1.1105649,3219.507037,None,1.1105649,3220.641644,None,3221.155414,None,3221.155414,None,f,1.0060624,3221.155414,None,1.0060624,,,June27Sing1,1,2022_Jun_27_1319,ProdSingRedoBetween,2021.2.3,59.90646205
,,,,161,0,161,0,,,,,,,,,,,,,,,,,,,,,,3225.559801,None,,,,,,,,,,,,,,,,,crime,8,162,sing,old,yellow,3222.70175,None,3222.70175,None,6,1.4357633,3222.70175,None,1.4357633,3224.158352,None,3224.660718,None,3224.660718,None,f,0.8688837,3224.660718,None,0.8688837,,,June27Sing1,1,2022_Jun_27_1319,ProdSingRedoBetween,2021.2.3,59.90646205
,,,,162,0,162,0,,,,,,,,,,,,,,,,,,,,,,3230.464613,None,,,,,,,,,,,,,,,,,personnel,140,163,sing,new,null,3226.069317,None,3226.069317,None,4,2.8202753,3226.069317,None,2.8202753,3228.917976,None,3229.430329,None,3229.430329,None,f,1.0032168,3229.430329,None,1.0032168,,,June27Sing1,1,2022_Jun_27_1319,ProdSingRedoBetween,2021.2.3,59.90646205
,,,,163,0,163,0,,,,,,,,,,,,,,,,,,,,,,3233.60288,None,,,,,,,,,,,,,,,,,income,166,164,sing,new,null,3230.967511,None,3230.967511,None,6,1.3301979,3230.967511,None,1.3301979,3232.318315,None,3232.835436,None,3232.835436,None,f,0.7422224,3232.835436,None,0.7422224,,,June27Sing1,1,2022_Jun_27_1319,ProdSingRedoBetween,2021.2.3,59.90646205
,,,,164,0,164,0,,,,,,,,,,,,,,,,,,,,,,3236.570635,None,,,,,,,,,,,,,,,,,notice,143,165,sing,new,null,3234.121662,None,3234.121662,None,6,1.1519864,3234.121662,None,1.1519864,3235.303395,None,3235.807404,None,3235.807404,None,f,0.7381677,3235.807404,None,0.7381677,,,June27Sing1,1,2022_Jun_27_1319,ProdSingRedoBetween,2021.2.3,59.90646205
,,,,165,0,165,0,,,,,,,,,,,,,,,,,,,,,,3239.845465,None,,,,,,,,,,,,,,,,,smooth,92,166,sing,new,null,3237.071689,None,3237.071689,None,6,1.2259017,3237.071689,None,1.2259017,3238.323749,None,3238.82831,None,3238.82831,None,f,0.997455,3238.82831,None,0.997455,,,June27Sing1,1,2022_Jun_27_1319,ProdSingRedoBetween,2021.2.3,59.90646205
,,,,166,0,166,0,,,,,,,,,,,,,,,,,,,,,,3242.97811,None,,,,,,,,,,,,,,,,,thing,72,167,sing,old,red,3240.369094,None,3240.369094,None,6,1.1764949,3240.369094,None,1.1764949,3241.578586,None,3242.100886,None,3242.100886,None,f,0.844763,3242.100886,None,0.844763,,,June27Sing1,1,2022_Jun_27_1319,ProdSingRedoBetween,2021.2.3,59.90646205
,,,,167,0,167,0,,,,,,,,,,,,,,,,,,,,,,3246.464495,None,,,,,,,,,,,,,,,,,split,149,168,sing,new,null,3243.483101,None,3243.483101,None,6,1.9024507,3243.483101,None,1.9024507,3245.413933,None,3245.913466,None,3245.913466,None,f,0.5203126,3245.913466,None,0.5203126,,,June27Sing1,1,2022_Jun_27_1319,ProdSingRedoBetween,2021.2.3,59.90646205
,,,,168,0,168,0,,,,,,,,,,,,,,,,,,,,,,3250.918356,None,,,,,,,,,,,,,,,,,property,177,169,sing,new,null,3246.968448,None,3246.968448,None,5,2.5132385,3246.968448,None,2.5132385,3249.501382,None,3250.00481,None,3250.00481,None,f,0.8927801,3250.00481,None,0.8927801,,,June27Sing1,1,2022_Jun_27_1319,ProdSingRedoBetween,2021.2.3,59.90646205
,,,,169,0,169,0,,,,,,,,,,,,,,,,,,,,,,3254.173357,None,,,,,,,,,,,,,,,,,short,150,170,sing,new,null,3251.432548,None,3251.432548,None,5,1.3130453,3251.432548,None,1.3130453,3252.774993,None,3253.287436,None,3253.287436,None,f,0.8581895,3253.287436,None,0.8581895,,,June27Sing1,1,2022_Jun_27_1319,ProdSingRedoBetween,2021.2.3,59.90646205
,,,,170,0,170,0,,,,,,,,,,,,,,,,,,,,,,3257.558283,None,,,,,,,,,,,,,,,,,cousin,15,171,sing,old,yellow,3254.685266,None,3254.685266,None,6,1.5083162,3254.685266,None,1.5083162,3256.226165,None,3256.744212,None,3256.744212,None,f,0.7853623,3256.744212,None,0.7853623,,,June27Sing1,1,2022_Jun_27_1319,ProdSingRedoBetween,2021.2.3,59.90646205
,,,,171,0,171,0,,,,,,,,,,,,,,,,,,,,,,3260.912918,None,,,,,,,,,,,,,,,,,motion,101,172,sing,new,null,3258.059991,None,3258.059991,None,6,1.1655323,3258.059991,None,1.1655323,3259.243344,None,3259.748685,None,3259.748685,None,f,1.1331188,3259.748685,None,1.1331188,,,June27Sing1,1,2022_Jun_27_1319,ProdSingRedoBetween,2021.2.3,59.90646205
,,,,172,0,172,0,,,,,,,,,,,,,,,,,,,,,,3263.564209,None,,,,,,,,,,,,,,,,,election,58,173,sing,old,blue,3261.417902,None,3261.417902,None,6,1.1036613,3261.417902,None,1.1036613,3262.549159,None,3263.066874,None,3263.066874,None,f,0.4705775,3263.066874,None,0.4705775,,,June27Sing1,1,2022_Jun_27_1319,ProdSingRedoBetween,2021.2.3,59.90646205
,,,,173,0,173,0,,,,,,,,,,,,,,,,,,,,,,3266.350549,None,,,,,,,,,,,,,,,,,beauty,152,174,sing,new,null,3264.078182,None,3264.078182,None,6,1.1313228,3264.078182,None,1.1313228,3265.234206,None,3265.737056,None,3265.737056,None,f,0.5925018,3265.737056,None,0.5925018,,,June27Sing1,1,2022_Jun_27_1319,ProdSingRedoBetween,2021.2.3,59.90646205
,,,,174,0,174,0,,,,,,,,,,,,,,,,,,,,,,3269.870723,None,,,,,,,,,,,,,,,,,appearance,139,175,sing,new,null,3266.864083,None,3266.864083,None,6,1.5933748,3266.864083,None,1.5933748,3268.487776,None,3269.008414,None,3269.008414,None,f,0.8330807,3269.008414,None,0.8330807,,,June27Sing1,1,2022_Jun_27_1319,ProdSingRedoBetween,2021.2.3,59.90646205
,,,,175,0,175,0,,,,,,,,,,,,,,,,,,,,,,3272.389737,None,,,,,,,,,,,,,,,,,clear,13,176,sing,old,yellow,3270.375691,None,3270.375691,None,6,1.0819034,3270.375691,None,1.0819034,3271.491839,None,3272.006212,None,3272.006212,None,f,0.3553177,3272.006212,None,0.3553177,,,June27Sing1,1,2022_Jun_27_1319,ProdSingRedoBetween,2021.2.3,59.90646205
,,,,176,0,176,0,,,,,,,,,,,,,,,,,,,,,,3276.176798,None,,,,,,,,,,,,,,,,,institute,43,177,sing,old,blue,3272.900762,None,3272.900762,None,6,1.0767891,3272.900762,None,1.0767891,3274.01427,None,3274.525265,None,3274.525265,None,n,1.6361679,3274.525265,None,1.6361679,,,June27Sing1,1,2022_Jun_27_1319,ProdSingRedoBetween,2021.2.3,59.90646205
,,,,177,0,177,0,,,,,,,,,,,,,,,,,,,,,,3279.480116,None,,,,,,,,,,,,,,,,,service,146,178,sing,new,null,3276.689376,None,3276.689376,None,5,1.3120744,3276.689376,None,1.3120744,3278.029928,None,3278.535575,None,3278.535575,None,f,0.9141671,3278.535575,None,0.9141671,,,June27Sing1,1,2022_Jun_27_1319,ProdSingRedoBetween,2021.2.3,59.90646205
,,,,178,0,178,0,,,,,,,,,,,,,,,,,,,,,,3282.399806,None,,,,,,,,,,,,,,,,,emergency,93,179,sing,new,null,3279.998502,None,3279.998502,None,5,1.4750434,3279.998502,None,1.4750434,3281.5001,None,3282.005413,None,3282.005413,None,f,0.3641489,3282.005413,None,0.3641489,,,June27Sing1,1,2022_Jun_27_1319,ProdSingRedoBetween,2021.2.3,59.90646205
,,,,179,0,179,0,,,,,,,,,,,,,,,,,,,,,,3286.320873,None,,,,,,,,,,,,,,,,,suggestion,124,180,sing,new,null,3282.911533,None,3282.911533,None,5,1.7459293,3282.911533,None,1.7459293,3284.686365,None,3285.194293,None,3285.194293,None,n,1.0952729,3285.194293,None,1.0952729,,,June27Sing1,1,2022_Jun_27_1319,ProdSingRedoBetween,2021.2.3,59.90646205
,,,,,,,,,,,,,,,,,,,,,,,,,,,,,,,,,,,,,,,,,,,,,,,,,,,,,,,,,,,,,,,,,,,,,,,,,3286.821295,None,,,,,,
