StudyLoop.thisRepN,StudyLoop.thisTrialN,StudyLoop.thisN,StudyLoop.thisIndex,TestLoop.thisRepN,TestLoop.thisTrialN,TestLoop.thisN,TestLoop.thisIndex,textCondition.started,textCondition.stopped,keyCondition.keys,keyCondition.rt,keyCondition.started,keyCondition.stopped,Condition,textWelcome.started,textWelcome.stopped,keyWelcome.keys,keyWelcome.rt,keyWelcome.started,keyWelcome.stopped,textAloud.started,textAloud.stopped,textSilent.started,textSilent.stopped,textSing.started,textSing.stopped,conditional_text.started,conditional_text.stopped,textBlank500.started,textBlank500.stopped,study_word,study_num,study_order,study_type,word_color,textStudy.started,textStudy.stopped,keyStudy.keys,keyStudy.started,keyStudy.stopped,keyStudy.rt,textTestInstructions.started,textTestInstructions.stopped,key_resp_3.keys,key_resp_3.rt,key_resp_3.started,key_resp_3.stopped,test_word,test_num,test_order,test_condition,old_new_test,test_word_original_color,textConf.started,textConf.stopped,textConfScale.started,textConfScale.stopped,keyConf.keys,keyConf.rt,keyConf.started,keyConf.stopped,confidence response time,textTestBlank.started,textTestBlank.stopped,textRKN.started,textRKN.stopped,textRKNScale.started,textRKNScale.stopped,keyRKN.keys,keyRKN.rt,keyRKN.started,keyRKN.stopped,rkn response time,textEnd.started,textEnd.stopped,participant,session,date,expName,psychopyVersion,frameRate
,,,,,,,,37.6899946,None,c,26.1339288,37.6899946,None,,,,,,,,,,,,,,,,,,,,,,,,,,,,,,,,,,,,,,,,,,,,,,,,,,,,,,,,,,,,,,,Sep16Sing1,42,2022_Sep_16_1446,ProdSingRedoBetween,2021.2.3,59.87403703
,,,,,,,,,,,,,,SingTest,63.8690692,None,space,6.1706639,63.8690692,None,,,,,,,,,,,,,,,,,,,,,,,,,,,,,,,,,,,,,,,,,,,,,,,,,,,,,,,,Sep16Sing1,42,2022_Sep_16_1446,ProdSingRedoBetween,2021.2.3,59.87403703
0,0,0,0,,,,,,,,,,,,,,,,,,63.8690692,None,63.8690692,None,63.8690692,None,63.8690692,None,72.5873419,None,community,22,1,sing,yellow,70.5729989,None,None,70.5729989,None,,,,,,,,,,,,,,,,,,,,,,,,,,,,,,,,,,,,Sep16Sing1,42,2022_Sep_16_1446,ProdSingRedoBetween,2021.2.3,59.87403703
1,0,1,0,,,,,,,,,,,,,,,,,,,,,,,,,,75.0899323,None,poetry,62,2,sing,red,73.0878102,None,space,73.0878102,None,1.3682656,,,,,,,,,,,,,,,,,,,,,,,,,,,,,,,,,,,Sep16Sing1,42,2022_Sep_16_1446,ProdSingRedoBetween,2021.2.3,59.87403703
2,0,2,0,,,,,,,,,,,,,,,,,,,,,,,,,,77.6090504,None,curve,64,3,sing,red,75.6015902,None,None,75.6015902,None,,,,,,,,,,,,,,,,,,,,,,,,,,,,,,,,,,,,Sep16Sing1,42,2022_Sep_16_1446,ProdSingRedoBetween,2021.2.3,59.87403703
3,0,3,0,,,,,,,,,,,,,,,,,,,,,,,,,,80.1117136,None,smooth,14,4,sing,yellow,78.1111566,None,None,78.1111566,None,,,,,,,,,,,,,,,,,,,,,,,,,,,,,,,,,,,,Sep16Sing1,42,2022_Sep_16_1446,ProdSingRedoBetween,2021.2.3,59.87403703
4,0,4,0,,,,,,,,,,,,,,,,,,,,,,,,,,82.6141141,None,carry,11,5,sing,yellow,80.6120671,None,None,80.6120671,None,,,,,,,,,,,,,,,,,,,,,,,,,,,,,,,,,,,,Sep16Sing1,42,2022_Sep_16_1446,ProdSingRedoBetween,2021.2.3,59.87403703
5,0,5,0,,,,,,,,,,,,,,,,,,,,,,,,,,85.1166492,None,entrance,74,6,sing,red,83.1146254,None,None,83.1146254,None,,,,,,,,,,,,,,,,,,,,,,,,,,,,,,,,,,,,Sep16Sing1,42,2022_Sep_16_1446,ProdSingRedoBetween,2021.2.3,59.87403703
6,0,6,0,,,,,,,,,,,,,,,,,,,,,,,,,,87.6355867,None,fellow,38,7,sing,blue,85.622295,None,None,85.622295,None,,,,,,,,,,,,,,,,,,,,,,,,,,,,,,,,,,,,Sep16Sing1,42,2022_Sep_16_1446,ProdSingRedoBetween,2021.2.3,59.87403703
7,0,7,0,,,,,,,,,,,,,,,,,,,,,,,,,,90.138297,None,platform,79,8,sing,red,88.1361794,None,None,88.1361794,None,,,,,,,,,,,,,,,,,,,,,,,,,,,,,,,,,,,,Sep16Sing1,42,2022_Sep_16_1446,ProdSingRedoBetween,2021.2.3,59.87403703
8,0,8,0,,,,,,,,,,,,,,,,,,,,,,,,,,92.6574858,None,shear,50,9,sing,blue,90.6419082,None,None,90.6419082,None,,,,,,,,,,,,,,,,,,,,,,,,,,,,,,,,,,,,Sep16Sing1,42,2022_Sep_16_1446,ProdSingRedoBetween,2021.2.3,59.87403703
9,0,9,0,,,,,,,,,,,,,,,,,,,,,,,,,,95.1766366,None,short,13,10,sing,yellow,93.1678923,None,None,93.1678923,None,,,,,,,,,,,,,,,,,,,,,,,,,,,,,,,,,,,,Sep16Sing1,42,2022_Sep_16_1446,ProdSingRedoBetween,2021.2.3,59.87403703
10,0,10,0,,,,,,,,,,,,,,,,,,,,,,,,,,97.6792227,None,character,66,11,sing,red,95.6771923,None,None,95.6771923,None,,,,,,,,,,,,,,,,,,,,,,,,,,,,,,,,,,,,Sep16Sing1,42,2022_Sep_16_1446,ProdSingRedoBetween,2021.2.3,59.87403703
11,0,11,0,,,,,,,,,,,,,,,,,,,,,,,,,,100.1983039,None,personnel,23,12,sing,yellow,98.1830297,None,None,98.1830297,None,,,,,,,,,,,,,,,,,,,,,,,,,,,,,,,,,,,,Sep16Sing1,42,2022_Sep_16_1446,ProdSingRedoBetween,2021.2.3,59.87403703
12,0,12,0,,,,,,,,,,,,,,,,,,,,,,,,,,102.7008752,None,notice,44,13,sing,blue,100.6987884,None,None,100.6987884,None,,,,,,,,,,,,,,,,,,,,,,,,,,,,,,,,,,,,Sep16Sing1,42,2022_Sep_16_1446,ProdSingRedoBetween,2021.2.3,59.87403703
13,0,13,0,,,,,,,,,,,,,,,,,,,,,,,,,,105.203496,None,space,29,14,sing,blue,103.2014384,None,None,103.2014384,None,,,,,,,,,,,,,,,,,,,,,,,,,,,,,,,,,,,,Sep16Sing1,42,2022_Sep_16_1446,ProdSingRedoBetween,2021.2.3,59.87403703
14,0,14,0,,,,,,,,,,,,,,,,,,,,,,,,,,107.7225006,None,treatment,82,15,sing,red,105.7103596,None,None,105.7103596,None,,,,,,,,,,,,,,,,,,,,,,,,,,,,,,,,,,,,Sep16Sing1,42,2022_Sep_16_1446,ProdSingRedoBetween,2021.2.3,59.87403703
15,0,15,0,,,,,,,,,,,,,,,,,,,,,,,,,,110.2250992,None,instrument,51,16,sing,blue,108.2236952,None,None,108.2236952,None,,,,,,,,,,,,,,,,,,,,,,,,,,,,,,,,,,,,Sep16Sing1,42,2022_Sep_16_1446,ProdSingRedoBetween,2021.2.3,59.87403703
16,0,16,0,,,,,,,,,,,,,,,,,,,,,,,,,,112.7441484,None,right,15,17,sing,yellow,110.7339525,None,None,110.7339525,None,,,,,,,,,,,,,,,,,,,,,,,,,,,,,,,,,,,,Sep16Sing1,42,2022_Sep_16_1446,ProdSingRedoBetween,2021.2.3,59.87403703
17,0,17,0,,,,,,,,,,,,,,,,,,,,,,,,,,115.2466725,None,addition,83,18,sing,red,113.2446803,None,None,113.2446803,None,,,,,,,,,,,,,,,,,,,,,,,,,,,,,,,,,,,,Sep16Sing1,42,2022_Sep_16_1446,ProdSingRedoBetween,2021.2.3,59.87403703
18,0,18,0,,,,,,,,,,,,,,,,,,,,,,,,,,117.7492059,None,device,49,19,sing,blue,115.7472236,None,None,115.7472236,None,,,,,,,,,,,,,,,,,,,,,,,,,,,,,,,,,,,,Sep16Sing1,42,2022_Sep_16_1446,ProdSingRedoBetween,2021.2.3,59.87403703
19,0,19,0,,,,,,,,,,,,,,,,,,,,,,,,,,120.2682975,None,bucket,37,20,sing,blue,118.2556906,None,None,118.2556906,None,,,,,,,,,,,,,,,,,,,,,,,,,,,,,,,,,,,,Sep16Sing1,42,2022_Sep_16_1446,ProdSingRedoBetween,2021.2.3,59.87403703
20,0,20,0,,,,,,,,,,,,,,,,,,,,,,,,,,122.7709603,None,council,87,21,sing,red,120.7689282,None,None,120.7689282,None,,,,,,,,,,,,,,,,,,,,,,,,,,,,,,,,,,,,Sep16Sing1,42,2022_Sep_16_1446,ProdSingRedoBetween,2021.2.3,59.87403703
21,0,21,0,,,,,,,,,,,,,,,,,,,,,,,,,,125.2901083,None,beauty,86,22,sing,red,123.276122,None,None,123.276122,None,,,,,,,,,,,,,,,,,,,,,,,,,,,,,,,,,,,,Sep16Sing1,42,2022_Sep_16_1446,ProdSingRedoBetween,2021.2.3,59.87403703
22,0,22,0,,,,,,,,,,,,,,,,,,,,,,,,,,127.8092984,None,sunset,78,23,sing,red,125.7983191,None,None,125.7983191,None,,,,,,,,,,,,,,,,,,,,,,,,,,,,,,,,,,,,Sep16Sing1,42,2022_Sep_16_1446,ProdSingRedoBetween,2021.2.3,59.87403703
23,0,23,0,,,,,,,,,,,,,,,,,,,,,,,,,,130.3118498,None,collection,89,24,sing,red,128.3097669,None,None,128.3097669,None,,,,,,,,,,,,,,,,,,,,,,,,,,,,,,,,,,,,Sep16Sing1,42,2022_Sep_16_1446,ProdSingRedoBetween,2021.2.3,59.87403703
24,0,24,0,,,,,,,,,,,,,,,,,,,,,,,,,,132.8309335,None,swift,8,25,sing,yellow,130.8159916,None,None,130.8159916,None,,,,,,,,,,,,,,,,,,,,,,,,,,,,,,,,,,,,Sep16Sing1,42,2022_Sep_16_1446,ProdSingRedoBetween,2021.2.3,59.87403703
25,0,25,0,,,,,,,,,,,,,,,,,,,,,,,,,,135.3335728,None,court,80,26,sing,red,133.331306,None,None,133.331306,None,,,,,,,,,,,,,,,,,,,,,,,,,,,,,,,,,,,,Sep16Sing1,42,2022_Sep_16_1446,ProdSingRedoBetween,2021.2.3,59.87403703
26,0,26,0,,,,,,,,,,,,,,,,,,,,,,,,,,137.8359559,None,society,32,27,sing,blue,135.8339642,None,None,135.8339642,None,,,,,,,,,,,,,,,,,,,,,,,,,,,,,,,,,,,,Sep16Sing1,42,2022_Sep_16_1446,ProdSingRedoBetween,2021.2.3,59.87403703
27,0,27,0,,,,,,,,,,,,,,,,,,,,,,,,,,140.3551694,None,column,6,28,sing,yellow,138.3444728,None,None,138.3444728,None,,,,,,,,,,,,,,,,,,,,,,,,,,,,,,,,,,,,Sep16Sing1,42,2022_Sep_16_1446,ProdSingRedoBetween,2021.2.3,59.87403703
28,0,28,0,,,,,,,,,,,,,,,,,,,,,,,,,,142.8576429,None,primary,7,29,sing,yellow,140.8554207,None,None,140.8554207,None,,,,,,,,,,,,,,,,,,,,,,,,,,,,,,,,,,,,Sep16Sing1,42,2022_Sep_16_1446,ProdSingRedoBetween,2021.2.3,59.87403703
29,0,29,0,,,,,,,,,,,,,,,,,,,,,,,,,,145.3598306,None,atmosphere,76,30,sing,red,143.3582341,None,None,143.3582341,None,,,,,,,,,,,,,,,,,,,,,,,,,,,,,,,,,,,,Sep16Sing1,42,2022_Sep_16_1446,ProdSingRedoBetween,2021.2.3,59.87403703
30,0,30,0,,,,,,,,,,,,,,,,,,,,,,,,,,147.8793509,None,cousin,12,31,sing,yellow,145.8654011,None,None,145.8654011,None,,,,,,,,,,,,,,,,,,,,,,,,,,,,,,,,,,,,Sep16Sing1,42,2022_Sep_16_1446,ProdSingRedoBetween,2021.2.3,59.87403703
31,0,31,0,,,,,,,,,,,,,,,,,,,,,,,,,,150.3817779,None,group,77,32,sing,red,148.3811731,None,None,148.3811731,None,,,,,,,,,,,,,,,,,,,,,,,,,,,,,,,,,,,,Sep16Sing1,42,2022_Sep_16_1446,ProdSingRedoBetween,2021.2.3,59.87403703
32,0,32,0,,,,,,,,,,,,,,,,,,,,,,,,,,152.8843731,None,industry,71,33,sing,red,150.8837618,None,None,150.8837618,None,,,,,,,,,,,,,,,,,,,,,,,,,,,,,,,,,,,,Sep16Sing1,42,2022_Sep_16_1446,ProdSingRedoBetween,2021.2.3,59.87403703
33,0,33,0,,,,,,,,,,,,,,,,,,,,,,,,,,155.4035465,None,committee,67,34,sing,red,153.3979279,None,None,153.3979279,None,,,,,,,,,,,,,,,,,,,,,,,,,,,,,,,,,,,,Sep16Sing1,42,2022_Sep_16_1446,ProdSingRedoBetween,2021.2.3,59.87403703
34,0,34,0,,,,,,,,,,,,,,,,,,,,,,,,,,157.9228771,None,incident,17,35,sing,yellow,155.9104194,None,None,155.9104194,None,,,,,,,,,,,,,,,,,,,,,,,,,,,,,,,,,,,,Sep16Sing1,42,2022_Sep_16_1446,ProdSingRedoBetween,2021.2.3,59.87403703
35,0,35,0,,,,,,,,,,,,,,,,,,,,,,,,,,160.4419774,None,crowd,60,36,sing,red,158.4266537,None,None,158.4266537,None,,,,,,,,,,,,,,,,,,,,,,,,,,,,,,,,,,,,Sep16Sing1,42,2022_Sep_16_1446,ProdSingRedoBetween,2021.2.3,59.87403703
36,0,36,0,,,,,,,,,,,,,,,,,,,,,,,,,,162.9444488,None,front,0,37,sing,yellow,160.9444613,None,None,160.9444613,None,,,,,,,,,,,,,,,,,,,,,,,,,,,,,,,,,,,,Sep16Sing1,42,2022_Sep_16_1446,ProdSingRedoBetween,2021.2.3,59.87403703
37,0,37,0,,,,,,,,,,,,,,,,,,,,,,,,,,165.4468757,None,mayor,88,38,sing,red,163.4466748,None,None,163.4466748,None,,,,,,,,,,,,,,,,,,,,,,,,,,,,,,,,,,,,Sep16Sing1,42,2022_Sep_16_1446,ProdSingRedoBetween,2021.2.3,59.87403703
38,0,38,0,,,,,,,,,,,,,,,,,,,,,,,,,,167.9494301,None,meeting,43,39,sing,blue,165.9500106,None,None,165.9500106,None,,,,,,,,,,,,,,,,,,,,,,,,,,,,,,,,,,,,Sep16Sing1,42,2022_Sep_16_1446,ProdSingRedoBetween,2021.2.3,59.87403703
39,0,39,0,,,,,,,,,,,,,,,,,,,,,,,,,,170.4689462,None,throw,73,40,sing,red,168.4536381,None,None,168.4536381,None,,,,,,,,,,,,,,,,,,,,,,,,,,,,,,,,,,,,Sep16Sing1,42,2022_Sep_16_1446,ProdSingRedoBetween,2021.2.3,59.87403703
40,0,40,0,,,,,,,,,,,,,,,,,,,,,,,,,,172.9711046,None,weather,72,41,sing,red,170.9688213,None,None,170.9688213,None,,,,,,,,,,,,,,,,,,,,,,,,,,,,,,,,,,,,Sep16Sing1,42,2022_Sep_16_1446,ProdSingRedoBetween,2021.2.3,59.87403703
41,0,41,0,,,,,,,,,,,,,,,,,,,,,,,,,,175.4736244,None,degree,2,42,sing,yellow,173.4722029,None,None,173.4722029,None,,,,,,,,,,,,,,,,,,,,,,,,,,,,,,,,,,,,Sep16Sing1,42,2022_Sep_16_1446,ProdSingRedoBetween,2021.2.3,59.87403703
42,0,42,0,,,,,,,,,,,,,,,,,,,,,,,,,,177.9761053,None,trial,1,43,sing,yellow,175.9771341,None,None,175.9771341,None,,,,,,,,,,,,,,,,,,,,,,,,,,,,,,,,,,,,Sep16Sing1,42,2022_Sep_16_1446,ProdSingRedoBetween,2021.2.3,59.87403703
43,0,43,0,,,,,,,,,,,,,,,,,,,,,,,,,,180.478612,None,alert,36,44,sing,blue,178.4786316,None,None,178.4786316,None,,,,,,,,,,,,,,,,,,,,,,,,,,,,,,,,,,,,Sep16Sing1,42,2022_Sep_16_1446,ProdSingRedoBetween,2021.2.3,59.87403703
44,0,44,0,,,,,,,,,,,,,,,,,,,,,,,,,,182.997851,None,answer,25,45,sing,yellow,180.9825655,None,None,180.9825655,None,,,,,,,,,,,,,,,,,,,,,,,,,,,,,,,,,,,,Sep16Sing1,42,2022_Sep_16_1446,ProdSingRedoBetween,2021.2.3,59.87403703
45,0,45,0,,,,,,,,,,,,,,,,,,,,,,,,,,185.5003708,None,rapid,70,46,sing,red,183.4983065,None,None,183.4983065,None,,,,,,,,,,,,,,,,,,,,,,,,,,,,,,,,,,,,Sep16Sing1,42,2022_Sep_16_1446,ProdSingRedoBetween,2021.2.3,59.87403703
46,0,46,0,,,,,,,,,,,,,,,,,,,,,,,,,,188.0192016,None,whole,30,47,sing,blue,186.0074038,None,None,186.0074038,None,,,,,,,,,,,,,,,,,,,,,,,,,,,,,,,,,,,,Sep16Sing1,42,2022_Sep_16_1446,ProdSingRedoBetween,2021.2.3,59.87403703
47,0,47,0,,,,,,,,,,,,,,,,,,,,,,,,,,190.5387463,None,fashion,28,48,sing,yellow,188.5268442,None,None,188.5268442,None,,,,,,,,,,,,,,,,,,,,,,,,,,,,,,,,,,,,Sep16Sing1,42,2022_Sep_16_1446,ProdSingRedoBetween,2021.2.3,59.87403703
48,0,48,0,,,,,,,,,,,,,,,,,,,,,,,,,,193.0412422,None,trash,16,49,sing,yellow,191.0419935,None,None,191.0419935,None,,,,,,,,,,,,,,,,,,,,,,,,,,,,,,,,,,,,Sep16Sing1,42,2022_Sep_16_1446,ProdSingRedoBetween,2021.2.3,59.87403703
49,0,49,0,,,,,,,,,,,,,,,,,,,,,,,,,,195.5436371,None,suspect,68,50,sing,red,193.5415195,None,None,193.5415195,None,,,,,,,,,,,,,,,,,,,,,,,,,,,,,,,,,,,,Sep16Sing1,42,2022_Sep_16_1446,ProdSingRedoBetween,2021.2.3,59.87403703
50,0,50,0,,,,,,,,,,,,,,,,,,,,,,,,,,198.0461001,None,comedy,63,51,sing,red,196.0448113,None,None,196.0448113,None,,,,,,,,,,,,,,,,,,,,,,,,,,,,,,,,,,,,Sep16Sing1,42,2022_Sep_16_1446,ProdSingRedoBetween,2021.2.3,59.87403703
51,0,51,0,,,,,,,,,,,,,,,,,,,,,,,,,,200.5649867,None,owner,65,52,sing,red,198.5539936,None,None,198.5539936,None,,,,,,,,,,,,,,,,,,,,,,,,,,,,,,,,,,,,Sep16Sing1,42,2022_Sep_16_1446,ProdSingRedoBetween,2021.2.3,59.87403703
52,0,52,0,,,,,,,,,,,,,,,,,,,,,,,,,,203.0678424,None,chief,18,53,sing,yellow,201.0654934,None,None,201.0654934,None,,,,,,,,,,,,,,,,,,,,,,,,,,,,,,,,,,,,Sep16Sing1,42,2022_Sep_16_1446,ProdSingRedoBetween,2021.2.3,59.87403703
53,0,53,0,,,,,,,,,,,,,,,,,,,,,,,,,,205.5703284,None,match,81,54,sing,red,203.5680205,None,None,203.5680205,None,,,,,,,,,,,,,,,,,,,,,,,,,,,,,,,,,,,,Sep16Sing1,42,2022_Sep_16_1446,ProdSingRedoBetween,2021.2.3,59.87403703
54,0,54,0,,,,,,,,,,,,,,,,,,,,,,,,,,208.0729117,None,discovery,21,55,sing,yellow,206.0709185,None,None,206.0709185,None,,,,,,,,,,,,,,,,,,,,,,,,,,,,,,,,,,,,Sep16Sing1,42,2022_Sep_16_1446,ProdSingRedoBetween,2021.2.3,59.87403703
55,0,55,0,,,,,,,,,,,,,,,,,,,,,,,,,,210.5753382,None,master,40,56,sing,blue,208.5750504,None,None,208.5750504,None,,,,,,,,,,,,,,,,,,,,,,,,,,,,,,,,,,,,Sep16Sing1,42,2022_Sep_16_1446,ProdSingRedoBetween,2021.2.3,59.87403703
56,0,56,0,,,,,,,,,,,,,,,,,,,,,,,,,,213.0944325,None,close,59,57,sing,yellow,211.0852203,None,None,211.0852203,None,,,,,,,,,,,,,,,,,,,,,,,,,,,,,,,,,,,,Sep16Sing1,42,2022_Sep_16_1446,ProdSingRedoBetween,2021.2.3,59.87403703
57,0,57,0,,,,,,,,,,,,,,,,,,,,,,,,,,215.5969918,None,split,61,58,sing,red,213.5952635,None,None,213.5952635,None,,,,,,,,,,,,,,,,,,,,,,,,,,,,,,,,,,,,Sep16Sing1,42,2022_Sep_16_1446,ProdSingRedoBetween,2021.2.3,59.87403703
58,0,58,0,,,,,,,,,,,,,,,,,,,,,,,,,,218.0992977,None,concern,10,59,sing,yellow,216.0983633,None,None,216.0983633,None,,,,,,,,,,,,,,,,,,,,,,,,,,,,,,,,,,,,Sep16Sing1,42,2022_Sep_16_1446,ProdSingRedoBetween,2021.2.3,59.87403703
59,0,59,0,,,,,,,,,,,,,,,,,,,,,,,,,,220.6019977,None,course,46,60,sing,blue,218.60006,None,None,218.60006,None,,,,,,,,,,,,,,,,,,,,,,,,,,,,,,,,,,,,Sep16Sing1,42,2022_Sep_16_1446,ProdSingRedoBetween,2021.2.3,59.87403703
60,0,60,0,,,,,,,,,,,,,,,,,,,,,,,,,,223.1209197,None,question,53,61,sing,blue,221.1146938,None,None,221.1146938,None,,,,,,,,,,,,,,,,,,,,,,,,,,,,,,,,,,,,Sep16Sing1,42,2022_Sep_16_1446,ProdSingRedoBetween,2021.2.3,59.87403703
61,0,61,0,,,,,,,,,,,,,,,,,,,,,,,,,,225.6404977,None,judge,45,62,sing,blue,223.6341421,None,None,223.6341421,None,,,,,,,,,,,,,,,,,,,,,,,,,,,,,,,,,,,,Sep16Sing1,42,2022_Sep_16_1446,ProdSingRedoBetween,2021.2.3,59.87403703
62,0,62,0,,,,,,,,,,,,,,,,,,,,,,,,,,228.1428622,None,military,56,63,sing,blue,226.1408878,None,None,226.1408878,None,,,,,,,,,,,,,,,,,,,,,,,,,,,,,,,,,,,,Sep16Sing1,42,2022_Sep_16_1446,ProdSingRedoBetween,2021.2.3,59.87403703
63,0,63,0,,,,,,,,,,,,,,,,,,,,,,,,,,230.6454209,None,background,41,64,sing,blue,228.6450464,None,None,228.6450464,None,,,,,,,,,,,,,,,,,,,,,,,,,,,,,,,,,,,,Sep16Sing1,42,2022_Sep_16_1446,ProdSingRedoBetween,2021.2.3,59.87403703
64,0,64,0,,,,,,,,,,,,,,,,,,,,,,,,,,233.1477754,None,equipment,55,65,sing,blue,231.1459674,None,None,231.1459674,None,,,,,,,,,,,,,,,,,,,,,,,,,,,,,,,,,,,,Sep16Sing1,42,2022_Sep_16_1446,ProdSingRedoBetween,2021.2.3,59.87403703
65,0,65,0,,,,,,,,,,,,,,,,,,,,,,,,,,235.6504037,None,escape,58,66,sing,blue,233.6484008,None,None,233.6484008,None,,,,,,,,,,,,,,,,,,,,,,,,,,,,,,,,,,,,Sep16Sing1,42,2022_Sep_16_1446,ProdSingRedoBetween,2021.2.3,59.87403703
66,0,66,0,,,,,,,,,,,,,,,,,,,,,,,,,,238.152917,None,hearing,35,67,sing,blue,236.152728,None,None,236.152728,None,,,,,,,,,,,,,,,,,,,,,,,,,,,,,,,,,,,,Sep16Sing1,42,2022_Sep_16_1446,ProdSingRedoBetween,2021.2.3,59.87403703
67,0,67,0,,,,,,,,,,,,,,,,,,,,,,,,,,240.6553676,None,exchange,19,68,sing,yellow,238.6553531,None,None,238.6553531,None,,,,,,,,,,,,,,,,,,,,,,,,,,,,,,,,,,,,Sep16Sing1,42,2022_Sep_16_1446,ProdSingRedoBetween,2021.2.3,59.87403703
68,0,68,0,,,,,,,,,,,,,,,,,,,,,,,,,,243.1745623,None,tragedy,54,69,sing,blue,241.1606229,None,None,241.1606229,None,,,,,,,,,,,,,,,,,,,,,,,,,,,,,,,,,,,,Sep16Sing1,42,2022_Sep_16_1446,ProdSingRedoBetween,2021.2.3,59.87403703
69,0,69,0,,,,,,,,,,,,,,,,,,,,,,,,,,245.6771361,None,goose,84,70,sing,red,243.6751095,None,None,243.6751095,None,,,,,,,,,,,,,,,,,,,,,,,,,,,,,,,,,,,,Sep16Sing1,42,2022_Sep_16_1446,ProdSingRedoBetween,2021.2.3,59.87403703
70,0,70,0,,,,,,,,,,,,,,,,,,,,,,,,,,248.1795966,None,break,24,71,sing,yellow,246.1802436,None,None,246.1802436,None,,,,,,,,,,,,,,,,,,,,,,,,,,,,,,,,,,,,Sep16Sing1,42,2022_Sep_16_1446,ProdSingRedoBetween,2021.2.3,59.87403703
71,0,71,0,,,,,,,,,,,,,,,,,,,,,,,,,,250.6821077,None,education,26,72,sing,yellow,248.680054,None,None,248.680054,None,,,,,,,,,,,,,,,,,,,,,,,,,,,,,,,,,,,,Sep16Sing1,42,2022_Sep_16_1446,ProdSingRedoBetween,2021.2.3,59.87403703
72,0,72,0,,,,,,,,,,,,,,,,,,,,,,,,,,253.2012736,None,brilliant,52,73,sing,blue,251.1879542,None,None,251.1879542,None,,,,,,,,,,,,,,,,,,,,,,,,,,,,,,,,,,,,Sep16Sing1,42,2022_Sep_16_1446,ProdSingRedoBetween,2021.2.3,59.87403703
73,0,73,0,,,,,,,,,,,,,,,,,,,,,,,,,,255.7037559,None,permit,48,74,sing,blue,253.7019744,None,None,253.7019744,None,,,,,,,,,,,,,,,,,,,,,,,,,,,,,,,,,,,,Sep16Sing1,42,2022_Sep_16_1446,ProdSingRedoBetween,2021.2.3,59.87403703
74,0,74,0,,,,,,,,,,,,,,,,,,,,,,,,,,258.2230006,None,conference,27,75,sing,yellow,256.2083243,None,None,256.2083243,None,,,,,,,,,,,,,,,,,,,,,,,,,,,,,,,,,,,,Sep16Sing1,42,2022_Sep_16_1446,ProdSingRedoBetween,2021.2.3,59.87403703
75,0,75,0,,,,,,,,,,,,,,,,,,,,,,,,,,260.725452,None,capital,3,76,sing,yellow,258.7231891,None,None,258.7231891,None,,,,,,,,,,,,,,,,,,,,,,,,,,,,,,,,,,,,Sep16Sing1,42,2022_Sep_16_1446,ProdSingRedoBetween,2021.2.3,59.87403703
76,0,76,0,,,,,,,,,,,,,,,,,,,,,,,,,,263.2279099,None,sight,20,77,sing,yellow,261.2265445,None,None,261.2265445,None,,,,,,,,,,,,,,,,,,,,,,,,,,,,,,,,,,,,Sep16Sing1,42,2022_Sep_16_1446,ProdSingRedoBetween,2021.2.3,59.87403703
77,0,77,0,,,,,,,,,,,,,,,,,,,,,,,,,,265.7469057,None,damage,42,78,sing,blue,263.7338647,None,None,263.7338647,None,,,,,,,,,,,,,,,,,,,,,,,,,,,,,,,,,,,,Sep16Sing1,42,2022_Sep_16_1446,ProdSingRedoBetween,2021.2.3,59.87403703
78,0,78,0,,,,,,,,,,,,,,,,,,,,,,,,,,268.2660599,None,drama,69,79,sing,red,266.2536498,None,None,266.2536498,None,,,,,,,,,,,,,,,,,,,,,,,,,,,,,,,,,,,,Sep16Sing1,42,2022_Sep_16_1446,ProdSingRedoBetween,2021.2.3,59.87403703
79,0,79,0,,,,,,,,,,,,,,,,,,,,,,,,,,270.7688407,None,grade,57,80,sing,blue,268.7665478,None,None,268.7665478,None,,,,,,,,,,,,,,,,,,,,,,,,,,,,,,,,,,,,Sep16Sing1,42,2022_Sep_16_1446,ProdSingRedoBetween,2021.2.3,59.87403703
80,0,80,0,,,,,,,,,,,,,,,,,,,,,,,,,,273.2881195,None,point,33,81,sing,blue,271.2758405,None,None,271.2758405,None,,,,,,,,,,,,,,,,,,,,,,,,,,,,,,,,,,,,Sep16Sing1,42,2022_Sep_16_1446,ProdSingRedoBetween,2021.2.3,59.87403703
81,0,81,0,,,,,,,,,,,,,,,,,,,,,,,,,,275.7905142,None,youth,31,82,sing,blue,273.7896146,None,None,273.7896146,None,,,,,,,,,,,,,,,,,,,,,,,,,,,,,,,,,,,,Sep16Sing1,42,2022_Sep_16_1446,ProdSingRedoBetween,2021.2.3,59.87403703
82,0,82,0,,,,,,,,,,,,,,,,,,,,,,,,,,278.2929961,None,country,85,83,sing,red,276.2910144,None,None,276.2910144,None,,,,,,,,,,,,,,,,,,,,,,,,,,,,,,,,,,,,Sep16Sing1,42,2022_Sep_16_1446,ProdSingRedoBetween,2021.2.3,59.87403703
83,0,83,0,,,,,,,,,,,,,,,,,,,,,,,,,,280.8123315,None,evidence,47,84,sing,blue,278.7980817,None,None,278.7980817,None,,,,,,,,,,,,,,,,,,,,,,,,,,,,,,,,,,,,Sep16Sing1,42,2022_Sep_16_1446,ProdSingRedoBetween,2021.2.3,59.87403703
84,0,84,0,,,,,,,,,,,,,,,,,,,,,,,,,,283.3148194,None,agency,9,85,sing,yellow,281.3126603,None,None,281.3126603,None,,,,,,,,,,,,,,,,,,,,,,,,,,,,,,,,,,,,Sep16Sing1,42,2022_Sep_16_1446,ProdSingRedoBetween,2021.2.3,59.87403703
85,0,85,0,,,,,,,,,,,,,,,,,,,,,,,,,,285.8339811,None,science,75,86,sing,red,283.818464,None,None,283.818464,None,,,,,,,,,,,,,,,,,,,,,,,,,,,,,,,,,,,,Sep16Sing1,42,2022_Sep_16_1446,ProdSingRedoBetween,2021.2.3,59.87403703
86,0,86,0,,,,,,,,,,,,,,,,,,,,,,,,,,288.3364043,None,dozen,39,87,sing,blue,286.3372066,None,None,286.3372066,None,,,,,,,,,,,,,,,,,,,,,,,,,,,,,,,,,,,,Sep16Sing1,42,2022_Sep_16_1446,ProdSingRedoBetween,2021.2.3,59.87403703
87,0,87,0,,,,,,,,,,,,,,,,,,,,,,,,,,290.8385674,None,surface,4,88,sing,yellow,288.8370298,None,None,288.8370298,None,,,,,,,,,,,,,,,,,,,,,,,,,,,,,,,,,,,,Sep16Sing1,42,2022_Sep_16_1446,ProdSingRedoBetween,2021.2.3,59.87403703
88,0,88,0,,,,,,,,,,,,,,,,,,,,,,,,,,293.3413992,None,cross,5,89,sing,yellow,291.3394184,None,None,291.3394184,None,,,,,,,,,,,,,,,,,,,,,,,,,,,,,,,,,,,,Sep16Sing1,42,2022_Sep_16_1446,ProdSingRedoBetween,2021.2.3,59.87403703
89,0,89,0,,,,,,,,,,,,,,,,,,,,,,,,,,295.8435583,None,prime,34,90,sing,blue,293.8419179,None,None,293.8419179,None,,,,,,,,,,,,,,,,,,,,,,,,,,,,,,,,,,,,Sep16Sing1,42,2022_Sep_16_1446,ProdSingRedoBetween,2021.2.3,59.87403703
,,,,,,,,,,,,,,,,,,,,,,,,,,,,,,,,,,,,,,,,,,296.344727,None,k,59.335053,296.344727,None,,,,,,,,,,,,,,,,,,,,,,,,,,,,,Sep16Sing1,42,2022_Sep_16_1446,ProdSingRedoBetween,2021.2.3,59.87403703
,,,,0,0,0,0,,,,,,,,,,,,,,,,,,,,,,363.911923,None,,,,,,,,,,,,,,,,,,candidate,152,1,sing,new,null,356.208745,None,356.208745,None,6,4.7989828,356.208745,None,4.7989828,361.029729,None,361.5446789,None,361.5446789,None,r,2.3430655,361.5446789,None,2.3430655,,,Sep16Sing1,42,2022_Sep_16_1446,ProdSingRedoBetween,2021.2.3,59.87403703
,,,,1,0,1,0,,,,,,,,,,,,,,,,,,,,,,369.3339566,None,,,,,,,,,,,,,,,,,,front,0,2,sing,old,yellow,364.4211508,None,364.4211508,None,4,2.7385722,364.4211508,None,2.7385722,367.1843253,None,367.6992104,None,367.6992104,None,f,1.6047693,367.6992104,None,1.6047693,,,Sep16Sing1,42,2022_Sep_16_1446,ProdSingRedoBetween,2021.2.3,59.87403703
,,,,2,0,2,0,,,,,,,,,,,,,,,,,,,,,,374.8060857,None,,,,,,,,,,,,,,,,,,household,141,3,sing,new,null,369.8414657,None,369.8414657,None,2,2.3903079,369.8414657,None,2.3903079,372.2548518,None,372.7601641,None,372.7601641,None,n,2.0155923,372.7601641,None,2.0155923,,,Sep16Sing1,42,2022_Sep_16_1446,ProdSingRedoBetween,2021.2.3,59.87403703
,,,,3,0,3,0,,,,,,,,,,,,,,,,,,,,,,381.8798282,None,,,,,,,,,,,,,,,,,,match,81,4,sing,old,red,375.3064886,None,375.3064886,None,5,4.4293036,375.3064886,None,4.4293036,379.7628092,None,380.2800704,None,380.2800704,None,f,1.5757035,380.2800704,None,1.5757035,,,Sep16Sing1,42,2022_Sep_16_1446,ProdSingRedoBetween,2021.2.3,59.87403703
,,,,4,0,4,0,,,,,,,,,,,,,,,,,,,,,,386.0338074,None,,,,,,,,,,,,,,,,,,brilliant,52,5,sing,old,blue,382.3890438,None,382.3890438,None,4,2.2747491,382.3890438,None,2.2747491,384.6840055,None,385.1833586,None,385.1833586,None,f,0.8243979,385.1833586,None,0.8243979,,,Sep16Sing1,42,2022_Sep_16_1446,ProdSingRedoBetween,2021.2.3,59.87403703
,,,,5,0,5,0,,,,,,,,,,,,,,,,,,,,,,389.6374661,None,,,,,,,,,,,,,,,,,,dozen,39,6,sing,old,blue,386.5370255,None,386.5370255,None,6,2.0067613,386.5370255,None,2.0067613,388.5795007,None,389.0873057,None,389.0873057,None,r,0.528481,389.0873057,None,0.528481,,,Sep16Sing1,42,2022_Sep_16_1446,ProdSingRedoBetween,2021.2.3,59.87403703
,,,,6,0,6,0,,,,,,,,,,,,,,,,,,,,,,393.6583688,None,,,,,,,,,,,,,,,,,,frank,143,7,sing,new,null,390.1495442,None,390.1495442,None,1,1.8261967,390.1495442,None,1.8261967,392.0098861,None,392.5257079,None,392.5257079,None,n,1.1140225,392.5257079,None,1.1140225,,,Sep16Sing1,42,2022_Sep_16_1446,ProdSingRedoBetween,2021.2.3,59.87403703
,,,,7,0,7,0,,,,,,,,,,,,,,,,,,,,,,399.4655231,None,,,,,,,,,,,,,,,,,,fellow,38,8,sing,old,blue,394.1679199,None,394.1679199,None,6,4.3998787,394.1679199,None,4.3998787,398.5993,None,399.1193228,None,399.1193228,None,r,0.3207641,399.1193228,None,0.3207641,,,Sep16Sing1,42,2022_Sep_16_1446,ProdSingRedoBetween,2021.2.3,59.87403703
,,,,8,0,8,0,,,,,,,,,,,,,,,,,,,,,,403.9018871,None,,,,,,,,,,,,,,,,,,resistance,166,9,sing,new,null,399.9656825,None,399.9656825,None,3,2.7621259,399.9656825,None,2.7621259,402.753699,None,403.2694745,None,403.2694745,None,f,0.6023265,403.2694745,None,0.6023265,,,Sep16Sing1,42,2022_Sep_16_1446,ProdSingRedoBetween,2021.2.3,59.87403703
,,,,9,0,9,0,,,,,,,,,,,,,,,,,,,,,,407.4552666,None,,,,,,,,,,,,,,,,,,sweet,99,10,sing,new,null,404.4130808,None,404.4130808,None,6,2.0187267,404.4130808,None,2.0187267,406.457266,None,406.9719141,None,406.9719141,None,r,0.4598736,406.9719141,None,0.4598736,,,Sep16Sing1,42,2022_Sep_16_1446,ProdSingRedoBetween,2021.2.3,59.87403703
,,,,10,0,10,0,,,,,,,,,,,,,,,,,,,,,,410.6085968,None,,,,,,,,,,,,,,,,,,passage,138,11,sing,new,null,407.9660474,None,407.9660474,None,4,1.6976587,407.9660474,None,1.6976587,409.6927462,None,410.2107041,None,410.2107041,None,f,0.3731372,410.2107041,None,0.3731372,,,Sep16Sing1,42,2022_Sep_16_1446,ProdSingRedoBetween,2021.2.3,59.87403703
,,,,11,0,11,0,,,,,,,,,,,,,,,,,,,,,,413.9119011,None,,,,,,,,,,,,,,,,,,native,163,12,sing,new,null,411.113982,None,411.113982,None,6,1.6457585,411.113982,None,1.6457585,412.7786658,None,413.283214,None,413.283214,None,r,0.6045783,413.283214,None,0.6045783,,,Sep16Sing1,42,2022_Sep_16_1446,ProdSingRedoBetween,2021.2.3,59.87403703
,,,,12,0,12,0,,,,,,,,,,,,,,,,,,,,,,416.5153862,None,,,,,,,,,,,,,,,,,,people,110,13,sing,new,null,414.4228016,None,414.4228016,None,6,1.0569444,414.4228016,None,1.0569444,415.5012215,None,416.0174099,None,416.0174099,None,r,0.4783852,416.0174099,None,0.4783852,,,Sep16Sing1,42,2022_Sep_16_1446,ProdSingRedoBetween,2021.2.3,59.87403703
,,,,13,0,13,0,,,,,,,,,,,,,,,,,,,,,,418.8349717,None,,,,,,,,,,,,,,,,,,crowd,60,14,sing,old,red,417.0180168,None,417.0180168,None,6,0.9257101,417.0180168,None,0.9257101,417.9745662,None,418.4832585,None,418.4832585,None,r,0.3244611,418.4832585,None,0.3244611,,,Sep16Sing1,42,2022_Sep_16_1446,ProdSingRedoBetween,2021.2.3,59.87403703
,,,,14,0,14,0,,,,,,,,,,,,,,,,,,,,,,421.2426732,None,,,,,,,,,,,,,,,,,,direction,179,15,sing,new,null,419.3506233,None,419.3506233,None,6,0.9371629,419.3506233,None,0.9371629,420.3197535,None,420.82543,None,420.82543,None,r,0.3905068,420.82543,None,0.3905068,,,Sep16Sing1,42,2022_Sep_16_1446,ProdSingRedoBetween,2021.2.3,59.87403703
,,,,15,0,15,0,,,,,,,,,,,,,,,,,,,,,,425.0897173,None,,,,,,,,,,,,,,,,,,answer,25,16,sing,old,yellow,421.7574082,None,421.7574082,None,3,2.0825087,421.7574082,None,2.0825087,423.8613276,None,424.3751045,None,424.3751045,None,f,0.6886104,424.3751045,None,0.6886104,,,Sep16Sing1,42,2022_Sep_16_1446,ProdSingRedoBetween,2021.2.3,59.87403703
,,,,16,0,16,0,,,,,,,,,,,,,,,,,,,,,,428.0925164,None,,,,,,,,,,,,,,,,,,salary,101,17,sing,new,null,425.5932697,None,425.5932697,None,4,1.6066846,425.5932697,None,1.6066846,427.2320493,None,427.7425232,None,427.7425232,None,f,0.3292833,427.7425232,None,0.3292833,,,Sep16Sing1,42,2022_Sep_16_1446,ProdSingRedoBetween,2021.2.3,59.87403703
,,,,17,0,17,0,,,,,,,,,,,,,,,,,,,,,,432.4137612,None,,,,,,,,,,,,,,,,,,level,167,18,sing,new,null,428.5985132,None,428.5985132,None,5,1.809298,428.5985132,None,1.809298,430.4302827,None,430.9498271,None,430.9498271,None,n,1.4339252,430.9498271,None,1.4339252,,,Sep16Sing1,42,2022_Sep_16_1446,ProdSingRedoBetween,2021.2.3,59.87403703
,,,,18,0,18,0,,,,,,,,,,,,,,,,,,,,,,437.9190448,None,,,,,,,,,,,,,,,,,,court,80,19,sing,old,red,432.916679,None,432.916679,None,6,4.0591615,432.916679,None,4.0591615,437.0060053,None,437.5211123,None,437.5211123,None,r,0.3826763,437.5211123,None,0.3826763,,,Sep16Sing1,42,2022_Sep_16_1446,ProdSingRedoBetween,2021.2.3,59.87403703
,,,,19,0,19,0,,,,,,,,,,,,,,,,,,,,,,440.6077388,None,,,,,,,,,,,,,,,,,,primary,7,20,sing,old,yellow,438.4241934,None,438.4241934,None,6,1.1355504,438.4241934,None,1.1355504,439.5902226,None,440.1102264,None,440.1102264,None,r,0.4656431,440.1102264,None,0.4656431,,,Sep16Sing1,42,2022_Sep_16_1446,ProdSingRedoBetween,2021.2.3,59.87403703
,,,,20,0,20,0,,,,,,,,,,,,,,,,,,,,,,443.4954813,None,,,,,,,,,,,,,,,,,,crisis,125,21,sing,new,null,441.1233332,None,441.1233332,None,6,1.2045032,441.1233332,None,1.2045032,442.3600974,None,442.8766152,None,442.8766152,None,r,0.5872496,442.8766152,None,0.5872496,,,Sep16Sing1,42,2022_Sep_16_1446,ProdSingRedoBetween,2021.2.3,59.87403703
,,,,21,0,21,0,,,,,,,,,,,,,,,,,,,,,,446.4774874,None,,,,,,,,,,,,,,,,,,second,145,22,sing,new,null,444.0172001,None,444.0172001,None,4,1.5985754,444.0172001,None,1.5985754,445.6453216,None,446.1638687,None,446.1638687,None,f,0.2839821,446.1638687,None,0.2839821,,,Sep16Sing1,42,2022_Sep_16_1446,ProdSingRedoBetween,2021.2.3,59.87403703
,,,,22,0,22,0,,,,,,,,,,,,,,,,,,,,,,449.1134923,None,,,,,,,,,,,,,,,,,,health,177,23,sing,new,null,446.9812518,None,446.9812518,None,3,1.1865032,446.9812518,None,1.1865032,448.1962977,None,448.696649,None,448.696649,None,n,0.3990935,448.696649,None,0.3990935,,,Sep16Sing1,42,2022_Sep_16_1446,ProdSingRedoBetween,2021.2.3,59.87403703
,,,,23,0,23,0,,,,,,,,,,,,,,,,,,,,,,451.9696788,None,,,,,,,,,,,,,,,,,,exchange,19,24,sing,old,yellow,449.6243575,None,449.6243575,None,4,1.4393519,449.6243575,None,1.4393519,451.0834105,None,451.6071843,None,451.6071843,None,f,0.3445536,451.6071843,None,0.3445536,,,Sep16Sing1,42,2022_Sep_16_1446,ProdSingRedoBetween,2021.2.3,59.87403703
,,,,24,0,24,0,,,,,,,,,,,,,,,,,,,,,,455.7704344,None,,,,,,,,,,,,,,,,,,personnel,23,25,sing,old,yellow,452.4837448,None,452.4837448,None,1,2.3399659,452.4837448,None,2.3399659,454.853663,None,455.3550399,None,455.3550399,None,n,0.3966937,455.3550399,None,0.3966937,,,Sep16Sing1,42,2022_Sep_16_1446,ProdSingRedoBetween,2021.2.3,59.87403703
,,,,25,0,25,0,,,,,,,,,,,,,,,,,,,,,,458.3729923,None,,,,,,,,,,,,,,,,,,military,56,26,sing,old,blue,456.281063,None,456.281063,None,6,1.2547002,456.281063,None,1.2547002,457.5553199,None,458.0600567,None,458.0600567,None,r,0.291743,458.0600567,None,0.291743,,,Sep16Sing1,42,2022_Sep_16_1446,ProdSingRedoBetween,2021.2.3,59.87403703
,,,,26,0,26,0,,,,,,,,,,,,,,,,,,,,,,460.5918217,None,,,,,,,,,,,,,,,,,,material,139,27,sing,new,null,458.8832066,None,458.8832066,None,6,0.8847438,458.8832066,None,0.8847438,459.7919148,None,460.2964066,None,460.2964066,None,r,0.2714326,460.2964066,None,0.2714326,,,Sep16Sing1,42,2022_Sep_16_1446,ProdSingRedoBetween,2021.2.3,59.87403703
,,,,27,0,27,0,,,,,,,,,,,,,,,,,,,,,,462.5781312,None,,,,,,,,,,,,,,,,,,course,46,28,sing,old,blue,461.1035969,None,461.1035969,None,6,0.6242122,461.1035969,None,0.6242122,461.7500786,None,462.2618625,None,462.2618625,None,r,0.2979969,462.2618625,None,0.2979969,,,Sep16Sing1,42,2022_Sep_16_1446,ProdSingRedoBetween,2021.2.3,59.87403703
,,,,28,0,28,0,,,,,,,,,,,,,,,,,,,,,,464.6459232,None,,,,,,,,,,,,,,,,,,childhood,97,29,sing,new,null,463.0776697,None,463.0776697,None,6,0.7781991,463.0776697,None,0.7781991,463.8815901,None,464.3958764,None,464.3958764,None,r,0.2199477,464.3958764,None,0.2199477,,,Sep16Sing1,42,2022_Sep_16_1446,ProdSingRedoBetween,2021.2.3,59.87403703
,,,,29,0,29,0,,,,,,,,,,,,,,,,,,,,,,469.267164,None,,,,,,,,,,,,,,,,,,bucket,37,30,sing,old,blue,465.1465234,None,465.1465234,None,4,2.9493223,465.1465234,None,2.9493223,468.1179363,None,468.6382458,None,468.6382458,None,f,0.6096333,468.6382458,None,0.6096333,,,Sep16Sing1,42,2022_Sep_16_1446,ProdSingRedoBetween,2021.2.3,59.87403703
,,,,30,0,30,0,,,,,,,,,,,,,,,,,,,,,,472.503751,None,,,,,,,,,,,,,,,,,,split,61,31,sing,old,red,469.772119,None,469.772119,None,6,1.795774,469.772119,None,1.795774,471.5924725,None,472.1035241,None,472.1035241,None,r,0.3764012,472.1035241,None,0.3764012,,,Sep16Sing1,42,2022_Sep_16_1446,ProdSingRedoBetween,2021.2.3,59.87403703
,,,,31,0,31,0,,,,,,,,,,,,,,,,,,,,,,476.1908404,None,,,,,,,,,,,,,,,,,,voice,92,32,sing,new,null,473.0074037,None,473.0074037,None,4,2.3124421,473.0074037,None,2.3124421,475.3464938,None,475.8571139,None,475.8571139,None,f,0.3027075,475.8571139,None,0.3027075,,,Sep16Sing1,42,2022_Sep_16_1446,ProdSingRedoBetween,2021.2.3,59.87403703
,,,,32,0,32,0,,,,,,,,,,,,,,,,,,,,,,478.6266639,None,,,,,,,,,,,,,,,,,,principal,91,33,sing,new,null,476.6990709,None,476.6990709,None,6,1.1007673,476.6990709,None,1.1007673,477.8280351,None,478.3466132,None,478.3466132,None,r,0.2612176,478.3466132,None,0.2612176,,,Sep16Sing1,42,2022_Sep_16_1446,ProdSingRedoBetween,2021.2.3,59.87403703
,,,,33,0,33,0,,,,,,,,,,,,,,,,,,,,,,481.3851096,None,,,,,,,,,,,,,,,,,,murder,124,34,sing,new,null,479.1287069,None,479.1287069,None,1,1.3831791,479.1287069,None,1.3831791,480.5295574,None,481.0437594,None,481.0437594,None,n,0.3161383,481.0437594,None,0.3161383,,,Sep16Sing1,42,2022_Sep_16_1446,ProdSingRedoBetween,2021.2.3,59.87403703
,,,,34,0,34,0,,,,,,,,,,,,,,,,,,,,,,483.9319132,None,,,,,,,,,,,,,,,,,,drove,95,35,sing,new,null,481.9024622,None,481.9024622,None,1,1.1533968,481.9024622,None,1.1533968,483.0831515,None,483.5998581,None,483.5998581,None,n,0.303957,483.5998581,None,0.303957,,,Sep16Sing1,42,2022_Sep_16_1446,ProdSingRedoBetween,2021.2.3,59.87403703
,,,,35,0,35,0,,,,,,,,,,,,,,,,,,,,,,486.5178062,None,,,,,,,,,,,,,,,,,,goose,84,36,sing,old,red,484.4399105,None,484.4399105,None,6,1.1919496,484.4399105,None,1.1919496,485.6544749,None,486.1674465,None,486.1674465,None,r,0.3204065,486.1674465,None,0.3204065,,,Sep16Sing1,42,2022_Sep_16_1446,ProdSingRedoBetween,2021.2.3,59.87403703
,,,,36,0,36,0,,,,,,,,,,,,,,,,,,,,,,488.85721,None,,,,,,,,,,,,,,,,,,swift,8,37,sing,old,yellow,487.0212705,None,487.0212705,None,6,0.9625973,487.0212705,None,0.9625973,488.0036394,None,488.5067883,None,488.5067883,None,r,0.3171221,488.5067883,None,0.3171221,,,Sep16Sing1,42,2022_Sep_16_1446,ProdSingRedoBetween,2021.2.3,59.87403703
,,,,37,0,37,0,,,,,,,,,,,,,,,,,,,,,,491.0055166,None,,,,,,,,,,,,,,,,,,accident,178,38,sing,new,null,489.3765749,None,489.3765749,None,6,0.7992962,489.3765749,None,0.7992962,490.2062964,None,490.711754,None,490.711754,None,r,0.2639741,490.711754,None,0.2639741,,,Sep16Sing1,42,2022_Sep_16_1446,ProdSingRedoBetween,2021.2.3,59.87403703
,,,,38,0,38,0,,,,,,,,,,,,,,,,,,,,,,493.8918513,None,,,,,,,,,,,,,,,,,,title,142,39,sing,new,null,491.5145958,None,491.5145958,None,4,1.4612685,491.5145958,None,1.4612685,492.9961556,None,493.5083271,None,493.5083271,None,f,0.3554283,493.5083271,None,0.3554283,,,Sep16Sing1,42,2022_Sep_16_1446,ProdSingRedoBetween,2021.2.3,59.87403703
,,,,39,0,39,0,,,,,,,,,,,,,,,,,,,,,,496.8694676,None,,,,,,,,,,,,,,,,,,chief,18,40,sing,old,yellow,494.4016029,None,494.4016029,None,4,1.6542121,494.4016029,None,1.6542121,496.0794134,None,496.5962275,None,496.5962275,None,f,0.2437434,496.5962275,None,0.2437434,,,Sep16Sing1,42,2022_Sep_16_1446,ProdSingRedoBetween,2021.2.3,59.87403703
,,,,40,0,40,0,,,,,,,,,,,,,,,,,,,,,,501.1156257,None,,,,,,,,,,,,,,,,,,degree,2,41,sing,old,yellow,497.3804372,None,497.3804372,None,6,2.9155225,497.3804372,None,2.9155225,500.3151673,None,500.8154686,None,500.8154686,None,r,0.2723345,500.8154686,None,0.2723345,,,Sep16Sing1,42,2022_Sep_16_1446,ProdSingRedoBetween,2021.2.3,59.87403703
,,,,41,0,41,0,,,,,,,,,,,,,,,,,,,,,,503.9185094,None,,,,,,,,,,,,,,,,,,weather,72,42,sing,old,red,501.6240282,None,501.6240282,None,4,1.4157705,501.6240282,None,1.4157705,503.0702686,None,503.5889529,None,503.5889529,None,f,0.3068777,503.5889529,None,0.3068777,,,Sep16Sing1,42,2022_Sep_16_1446,ProdSingRedoBetween,2021.2.3,59.87403703
,,,,42,0,42,0,,,,,,,,,,,,,,,,,,,,,,506.6042612,None,,,,,,,,,,,,,,,,,,right,15,43,sing,old,yellow,504.4270759,None,504.4270759,None,2,1.0847944,504.4270759,None,1.0847944,505.5399473,None,506.0544123,None,506.0544123,None,n,0.5295091,506.0544123,None,0.5295091,,,Sep16Sing1,42,2022_Sep_16_1446,ProdSingRedoBetween,2021.2.3,59.87403703
,,,,43,0,43,0,,,,,,,,,,,,,,,,,,,,,,508.8754435,None,,,,,,,,,,,,,,,,,,background,41,44,sing,old,blue,507.1157316,None,507.1157316,None,6,0.8521559,507.1157316,None,0.8521559,507.9951694,None,508.5104839,None,508.5104839,None,r,0.3452827,508.5104839,None,0.3452827,,,Sep16Sing1,42,2022_Sep_16_1446,ProdSingRedoBetween,2021.2.3,59.87403703
,,,,44,0,44,0,,,,,,,,,,,,,,,,,,,,,,510.8420146,None,,,,,,,,,,,,,,,,,,stand,144,45,sing,new,null,509.3909072,None,509.3909072,None,6,0.5849399,509.3909072,None,0.5849399,509.9931111,None,510.5104869,None,510.5104869,None,r,0.3132324,510.5104869,None,0.3132324,,,Sep16Sing1,42,2022_Sep_16_1446,ProdSingRedoBetween,2021.2.3,59.87403703
,,,,45,0,45,0,,,,,,,,,,,,,,,,,,,,,,513.1307201,None,,,,,,,,,,,,,,,,,,sunset,78,46,sing,old,red,511.3495275,None,511.3495275,None,4,0.9782692,511.3495275,None,0.9782692,512.3466633,None,512.8629141,None,512.8629141,None,f,0.2488146,512.8629141,None,0.2488146,,,Sep16Sing1,42,2022_Sep_16_1446,ProdSingRedoBetween,2021.2.3,59.87403703
,,,,46,0,46,0,,,,,,,,,,,,,,,,,,,,,,515.3464506,None,,,,,,,,,,,,,,,,,,agency,9,47,sing,old,yellow,513.6449935,None,513.6449935,None,6,0.9308373,513.6449935,None,0.9308373,514.5986769,None,515.1172412,None,515.1172412,None,r,0.2108001,515.1172412,None,0.2108001,,,Sep16Sing1,42,2022_Sep_16_1446,ProdSingRedoBetween,2021.2.3,59.87403703
,,,,47,0,47,0,,,,,,,,,,,,,,,,,,,,,,517.5486999,None,,,,,,,,,,,,,,,,,,question,53,48,sing,old,blue,515.8523628,None,515.8523628,None,6,0.7875233,515.8523628,None,0.7875233,516.6661899,None,517.173244,None,517.173244,None,r,0.3545097,517.173244,None,0.3545097,,,Sep16Sing1,42,2022_Sep_16_1446,ProdSingRedoBetween,2021.2.3,59.87403703
,,,,48,0,48,0,,,,,,,,,,,,,,,,,,,,,,519.6526752,None,,,,,,,,,,,,,,,,,,harmony,112,49,sing,new,null,518.0628693,None,518.0628693,None,6,0.8570568,518.0628693,None,0.8570568,518.9511788,None,519.4583321,None,519.4583321,None,r,0.1735448,519.4583321,None,0.1735448,,,Sep16Sing1,42,2022_Sep_16_1446,ProdSingRedoBetween,2021.2.3,59.87403703
,,,,49,0,49,0,,,,,,,,,,,,,,,,,,,,,,521.4203463,None,,,,,,,,,,,,,,,,,,center,135,50,sing,new,null,520.1681781,None,520.1681781,None,6,0.6397029,520.1681781,None,0.6397029,520.8414435,None,521.3583776,None,521.3583776,None,r,0.0335102,521.3583776,None,0.0335102,,,Sep16Sing1,42,2022_Sep_16_1446,ProdSingRedoBetween,2021.2.3,59.87403703
,,,,50,0,50,0,,,,,,,,,,,,,,,,,,,,,,523.5715406,None,,,,,,,,,,,,,,,,,,graduate,149,51,sing,new,null,521.9325012,None,521.9325012,None,2,0.9553899,521.9325012,None,0.9553899,522.9109451,None,523.4227892,None,523.4227892,None,n,0.1210026,523.4227892,None,0.1210026,,,Sep16Sing1,42,2022_Sep_16_1446,ProdSingRedoBetween,2021.2.3,59.87403703
,,,,51,0,51,0,,,,,,,,,,,,,,,,,,,,,,525.3732527,None,,,,,,,,,,,,,,,,,,defeat,102,52,sing,new,null,524.0791288,None,524.0791288,None,1,0.6248253,524.0791288,None,0.6248253,524.7245587,None,525.2483394,None,525.2483394,None,n,0.103572,525.2483394,None,0.103572,,,Sep16Sing1,42,2022_Sep_16_1446,ProdSingRedoBetween,2021.2.3,59.87403703
,,,,52,0,52,0,,,,,,,,,,,,,,,,,,,,,,527.4587347,None,,,,,,,,,,,,,,,,,,plane,133,53,sing,new,null,525.8839284,None,525.8839284,None,1,0.9559897,525.8839284,None,0.9559897,526.8601657,None,527.375439,None,527.375439,None,n,0.0563406,527.375439,None,0.0563406,,,Sep16Sing1,42,2022_Sep_16_1446,ProdSingRedoBetween,2021.2.3,59.87403703
,,,,53,0,53,0,,,,,,,,,,,,,,,,,,,,,,530.2624325,None,,,,,,,,,,,,,,,,,,scene,104,54,sing,new,null,527.9703802,None,527.9703802,None,3,1.5813989,527.9703802,None,1.5813989,529.5806175,None,530.0948316,None,530.0948316,None,f,0.1450988,530.0948316,None,0.1450988,,,Sep16Sing1,42,2022_Sep_16_1446,ProdSingRedoBetween,2021.2.3,59.87403703
,,,,54,0,54,0,,,,,,,,,,,,,,,,,,,,,,533.1144256,None,,,,,,,,,,,,,,,,,,country,85,55,sing,old,red,530.7753556,None,530.7753556,None,5,1.2084992,530.7753556,None,1.2084992,532.0336522,None,532.530592,None,532.530592,None,f,0.5652161,532.530592,None,0.5652161,,,Sep16Sing1,42,2022_Sep_16_1446,ProdSingRedoBetween,2021.2.3,59.87403703
,,,,55,0,55,0,,,,,,,,,,,,,,,,,,,,,,536.0837427,None,,,,,,,,,,,,,,,,,,heavy,168,56,sing,new,null,533.6237943,None,533.6237943,None,1,1.1840848,533.6237943,None,1.1840848,534.8360905,None,535.3550051,None,535.3550051,None,n,0.700859,535.3550051,None,0.700859,,,Sep16Sing1,42,2022_Sep_16_1446,ProdSingRedoBetween,2021.2.3,59.87403703
,,,,56,0,56,0,,,,,,,,,,,,,,,,,,,,,,538.6546338,None,,,,,,,,,,,,,,,,,,rapid,70,57,sing,old,red,536.5923207,None,536.5923207,None,2,1.2235289,536.5923207,None,1.2235289,537.8369426,None,538.3363116,None,538.3363116,None,n,0.2954669,538.3363116,None,0.2954669,,,Sep16Sing1,42,2022_Sep_16_1446,ProdSingRedoBetween,2021.2.3,59.87403703
,,,,57,0,57,0,,,,,,,,,,,,,,,,,,,,,,541.5255808,None,,,,,,,,,,,,,,,,,,fashion,28,58,sing,old,yellow,539.1568904,None,539.1568904,None,6,1.5471773,539.1568904,None,1.5471773,540.7334755,None,541.2434123,None,541.2434123,None,r,0.252544,541.2434123,None,0.252544,,,Sep16Sing1,42,2022_Sep_16_1446,ProdSingRedoBetween,2021.2.3,59.87403703
,,,,58,0,58,0,,,,,,,,,,,,,,,,,,,,,,544.2811978,None,,,,,,,,,,,,,,,,,,damage,42,59,sing,old,blue,542.0458764,None,542.0458764,None,4,1.3220225,542.0458764,None,1.3220225,543.3945474,None,543.9086003,None,543.9086003,None,f,0.3473053,543.9086003,None,0.3473053,,,Sep16Sing1,42,2022_Sep_16_1446,ProdSingRedoBetween,2021.2.3,59.87403703
,,,,59,0,59,0,,,,,,,,,,,,,,,,,,,,,,546.7315076,None,,,,,,,,,,,,,,,,,,strength,154,60,sing,new,null,544.7968519,None,544.7968519,None,3,1.0512209,544.7968519,None,1.0512209,545.8844482,None,546.3954872,None,546.3954872,None,n,0.3084547,546.3954872,None,0.3084547,,,Sep16Sing1,42,2022_Sep_16_1446,ProdSingRedoBetween,2021.2.3,59.87403703
,,,,60,0,60,0,,,,,,,,,,,,,,,,,,,,,,549.9644885,None,,,,,,,,,,,,,,,,,,straight,94,61,sing,new,null,547.2494242,None,547.2494242,None,1,1.8784424,547.2494242,None,1.8784424,549.1480845,None,549.6534549,None,549.6534549,None,n,0.2903878,549.6534549,None,0.2903878,,,Sep16Sing1,42,2022_Sep_16_1446,ProdSingRedoBetween,2021.2.3,59.87403703
,,,,61,0,61,0,,,,,,,,,,,,,,,,,,,,,,552.9010422,None,,,,,,,,,,,,,,,,,,hearing,35,62,sing,old,blue,550.4737195,None,550.4737195,None,5,1.5820672,550.4737195,None,1.5820672,552.0839721,None,552.5839019,None,552.5839019,None,f,0.2880307,552.5839019,None,0.2880307,,,Sep16Sing1,42,2022_Sep_16_1446,ProdSingRedoBetween,2021.2.3,59.87403703
,,,,62,0,62,0,,,,,,,,,,,,,,,,,,,,,,555.4866663,None,,,,,,,,,,,,,,,,,,guard,116,63,sing,new,null,553.4027992,None,553.4027992,None,1,1.2931066,553.4027992,None,1.2931066,554.7235911,None,555.2398779,None,555.2398779,None,n,0.2240135,555.2398779,None,0.2240135,,,Sep16Sing1,42,2022_Sep_16_1446,ProdSingRedoBetween,2021.2.3,59.87403703
,,,,63,0,63,0,,,,,,,,,,,,,,,,,,,,,,558.0392798,None,,,,,,,,,,,,,,,,,,victory,114,64,sing,new,null,556.0014534,None,556.0014534,None,4,1.2064143,556.0014534,None,1.2064143,557.2396405,None,557.7443319,None,557.7443319,None,f,0.2795541,557.7443319,None,0.2795541,,,Sep16Sing1,42,2022_Sep_16_1446,ProdSingRedoBetween,2021.2.3,59.87403703
,,,,64,0,64,0,,,,,,,,,,,,,,,,,,,,,,564.0619084,None,,,,,,,,,,,,,,,,,,interview,113,65,sing,new,null,558.5547714,None,558.5547714,None,6,4.7090899,558.5547714,None,4.7090899,563.2977236,None,563.8115281,None,563.8115281,None,r,0.2203631,563.8115281,None,0.2203631,,,Sep16Sing1,42,2022_Sep_16_1446,ProdSingRedoBetween,2021.2.3,59.87403703
,,,,65,0,65,0,,,,,,,,,,,,,,,,,,,,,,566.166555,None,,,,,,,,,,,,,,,,,,prime,34,66,sing,old,blue,564.5717375,None,564.5717375,None,6,0.8123227,564.5717375,None,0.8123227,565.4192904,None,565.9305553,None,565.9305553,None,r,0.2054235,565.9305553,None,0.2054235,,,Sep16Sing1,42,2022_Sep_16_1446,ProdSingRedoBetween,2021.2.3,59.87403703
,,,,66,0,66,0,,,,,,,,,,,,,,,,,,,,,,568.0658895,None,,,,,,,,,,,,,,,,,,collection,89,67,sing,old,red,566.6833906,None,566.6833906,None,6,0.5964937,566.6833906,None,0.5964937,567.3018147,None,567.8203193,None,567.8203193,None,r,0.2276398,567.8203193,None,0.2276398,,,Sep16Sing1,42,2022_Sep_16_1446,ProdSingRedoBetween,2021.2.3,59.87403703
,,,,67,0,67,0,,,,,,,,,,,,,,,,,,,,,,571.558733,None,,,,,,,,,,,,,,,,,,character,66,68,sing,old,red,568.574253,None,568.574253,None,4,1.5298448,568.574253,None,1.5298448,570.1427119,None,570.6546532,None,570.6546532,None,f,0.8811574,570.6546532,None,0.8811574,,,Sep16Sing1,42,2022_Sep_16_1446,ProdSingRedoBetween,2021.2.3,59.87403703
,,,,68,0,68,0,,,,,,,,,,,,,,,,,,,,,,575.5233658,None,,,,,,,,,,,,,,,,,,motion,175,69,sing,new,null,572.0701193,None,572.0701193,None,1,2.6256642,572.0701193,None,2.6256642,574.73104,None,575.2398416,None,575.2398416,None,n,0.2640279,575.2398416,None,0.2640279,,,Sep16Sing1,42,2022_Sep_16_1446,ProdSingRedoBetween,2021.2.3,59.87403703
,,,,69,0,69,0,,,,,,,,,,,,,,,,,,,,,,579.0769108,None,,,,,,,,,,,,,,,,,,atmosphere,76,70,sing,old,red,576.0239806,None,576.0239806,None,6,1.9518504,576.0239806,None,1.9518504,577.9936192,None,578.4981525,None,578.4981525,None,r,0.5498804,578.4981525,None,0.5498804,,,Sep16Sing1,42,2022_Sep_16_1446,ProdSingRedoBetween,2021.2.3,59.87403703
,,,,70,0,70,0,,,,,,,,,,,,,,,,,,,,,,581.6628557,None,,,,,,,,,,,,,,,,,,enemy,93,71,sing,new,null,579.5891223,None,579.5891223,None,1,1.2427844,579.5891223,None,1.2427844,580.8628255,None,581.3627036,None,581.3627036,None,n,0.2691783,581.3627036,None,0.2691783,,,Sep16Sing1,42,2022_Sep_16_1446,ProdSingRedoBetween,2021.2.3,59.87403703
,,,,71,0,71,0,,,,,,,,,,,,,,,,,,,,,,584.5821822,None,,,,,,,,,,,,,,,,,,surface,4,72,sing,old,yellow,582.1782134,None,582.1782134,None,6,1.5736296,582.1782134,None,1.5736296,583.7842961,None,584.3012868,None,584.3012868,None,r,0.2586003,584.3012868,None,0.2586003,,,Sep16Sing1,42,2022_Sep_16_1446,ProdSingRedoBetween,2021.2.3,59.87403703
,,,,72,0,72,0,,,,,,,,,,,,,,,,,,,,,,587.1869537,None,,,,,,,,,,,,,,,,,,broke,160,73,sing,new,null,585.0856902,None,585.0856902,None,2,1.2503266,585.0856902,None,1.2503266,586.3525254,None,586.8710788,None,586.8710788,None,n,0.2967882,586.8710788,None,0.2967882,,,Sep16Sing1,42,2022_Sep_16_1446,ProdSingRedoBetween,2021.2.3,59.87403703
,,,,73,0,73,0,,,,,,,,,,,,,,,,,,,,,,590.2213329,None,,,,,,,,,,,,,,,,,,industry,71,74,sing,old,red,587.7171097,None,587.7171097,None,6,1.6427227,587.7171097,None,1.6427227,589.3899123,None,589.9089246,None,589.9089246,None,r,0.2913548,589.9089246,None,0.2913548,,,Sep16Sing1,42,2022_Sep_16_1446,ProdSingRedoBetween,2021.2.3,59.87403703
,,,,74,0,74,0,,,,,,,,,,,,,,,,,,,,,,592.8573835,None,,,,,,,,,,,,,,,,,,expansion,137,75,sing,new,null,590.7320617,None,590.7320617,None,2,1.2917004,590.7320617,None,1.2917004,592.0419996,None,592.5572422,None,592.5572422,None,n,0.2826501,592.5572422,None,0.2826501,,,Sep16Sing1,42,2022_Sep_16_1446,ProdSingRedoBetween,2021.2.3,59.87403703
,,,,75,0,75,0,,,,,,,,,,,,,,,,,,,,,,595.5600783,None,,,,,,,,,,,,,,,,,,group,77,76,sing,old,red,593.3629368,None,593.3629368,None,1,1.3813196,593.3629368,None,1.3813196,594.7729032,None,595.2817223,None,595.2817223,None,n,0.2541541,595.2817223,None,0.2541541,,,Sep16Sing1,42,2022_Sep_16_1446,ProdSingRedoBetween,2021.2.3,59.87403703
,,,,76,0,76,0,,,,,,,,,,,,,,,,,,,,,,598.6321465,None,,,,,,,,,,,,,,,,,,surprise,136,77,sing,new,null,596.0712462,None,596.0712462,None,6,1.7046266,596.0712462,None,1.7046266,597.7971163,None,598.3012119,None,598.3012119,None,r,0.3065655,598.3012119,None,0.3065655,,,Sep16Sing1,42,2022_Sep_16_1446,ProdSingRedoBetween,2021.2.3,59.87403703
,,,,77,0,77,0,,,,,,,,,,,,,,,,,,,,,,601.4492914,None,,,,,,,,,,,,,,,,,,range,150,78,sing,new,null,599.1473816,None,599.1473816,None,2,1.5486954,599.1473816,None,1.5486954,600.7247631,None,601.2336258,None,601.2336258,None,n,0.1902936,601.2336258,None,0.1902936,,,Sep16Sing1,42,2022_Sep_16_1446,ProdSingRedoBetween,2021.2.3,59.87403703
,,,,78,0,78,0,,,,,,,,,,,,,,,,,,,,,,603.9185076,None,,,,,,,,,,,,,,,,,,concern,10,79,sing,old,yellow,601.9584517,None,601.9584517,None,1,1.1534635,601.9584517,None,1.1534635,603.1352334,None,603.6392947,None,603.6392947,None,n,0.2486059,603.6392947,None,0.2486059,,,Sep16Sing1,42,2022_Sep_16_1446,ProdSingRedoBetween,2021.2.3,59.87403703
,,,,79,0,79,0,,,,,,,,,,,,,,,,,,,,,,606.1206715,None,,,,,,,,,,,,,,,,,,short,13,80,sing,old,yellow,604.4224899,None,604.4224899,None,1,0.9934605,604.4224899,None,0.9934605,605.4406439,None,605.9538427,None,605.9538427,None,n,0.1420643,605.9538427,None,0.1420643,,,Sep16Sing1,42,2022_Sep_16_1446,ProdSingRedoBetween,2021.2.3,59.87403703
,,,,80,0,80,0,,,,,,,,,,,,,,,,,,,,,,609.1403059,None,,,,,,,,,,,,,,,,,,hunger,106,81,sing,new,null,606.6283446,None,606.6283446,None,6,1.2834713,606.6283446,None,1.2834713,607.9391199,None,608.4442682,None,608.4442682,None,r,0.6676946,608.4442682,None,0.6676946,,,Sep16Sing1,42,2022_Sep_16_1446,ProdSingRedoBetween,2021.2.3,59.87403703
,,,,81,0,81,0,,,,,,,,,,,,,,,,,,,,,,611.7596724,None,,,,,,,,,,,,,,,,,,smooth,14,82,sing,old,yellow,609.6500653,None,609.6500653,None,6,1.2538246,609.6500653,None,1.2538246,610.9287592,None,611.4453402,None,611.4453402,None,r,0.2985555,611.4453402,None,0.2985555,,,Sep16Sing1,42,2022_Sep_16_1446,ProdSingRedoBetween,2021.2.3,59.87403703
,,,,82,0,82,0,,,,,,,,,,,,,,,,,,,,,,614.1137083,None,,,,,,,,,,,,,,,,,,escape,58,83,sing,old,blue,612.2600974,None,612.2600974,None,6,1.2037729,612.2600974,None,1.2037729,613.4952272,None,614.0003586,None,614.0003586,None,r,0.0877262,614.0003586,None,0.0877262,,,Sep16Sing1,42,2022_Sep_16_1446,ProdSingRedoBetween,2021.2.3,59.87403703
,,,,83,0,83,0,,,,,,,,,,,,,,,,,,,,,,616.4143392,None,,,,,,,,,,,,,,,,,,cross,5,84,sing,old,yellow,614.6363975,None,614.6363975,None,6,1.0274741,614.6363975,None,1.0274741,615.6824855,None,616.1999232,None,616.1999232,None,r,0.1839715,616.1999232,None,0.1839715,,,Sep16Sing1,42,2022_Sep_16_1446,ProdSingRedoBetween,2021.2.3,59.87403703
,,,,84,0,84,0,,,,,,,,,,,,,,,,,,,,,,619.4018657,None,,,,,,,,,,,,,,,,,,property,130,85,sing,new,null,616.9187141,None,616.9187141,None,4,1.6492129,616.9187141,None,1.6492129,618.5905563,None,619.1004455,None,619.1004455,None,f,0.2755102,619.1004455,None,0.2755102,,,Sep16Sing1,42,2022_Sep_16_1446,ProdSingRedoBetween,2021.2.3,59.87403703
,,,,85,0,85,0,,,,,,,,,,,,,,,,,,,,,,621.8196942,None,,,,,,,,,,,,,,,,,,testimony,156,86,sing,new,null,619.9061685,None,619.9061685,None,1,1.0538432,619.9061685,None,1.0538432,620.9887801,None,621.5027612,None,621.5027612,None,n,0.297128,621.5027612,None,0.297128,,,Sep16Sing1,42,2022_Sep_16_1446,ProdSingRedoBetween,2021.2.3,59.87403703
,,,,86,0,86,0,,,,,,,,,,,,,,,,,,,,,,624.6725419,None,,,,,,,,,,,,,,,,,,drama,69,87,sing,old,red,622.3287051,None,622.3287051,None,3,1.5512771,622.3287051,None,1.5512771,623.9149564,None,624.4224324,None,624.4224324,None,f,0.2255574,624.4224324,None,0.2255574,,,Sep16Sing1,42,2022_Sep_16_1446,ProdSingRedoBetween,2021.2.3,59.87403703
,,,,87,0,87,0,,,,,,,,,,,,,,,,,,,,,,627.3251737,None,,,,,,,,,,,,,,,,,,finance,171,88,sing,new,null,625.1764954,None,625.1764954,None,6,1.3113943,625.1764954,None,1.3113943,626.5105744,None,627.0246864,None,627.0246864,None,r,0.2792112,627.0246864,None,0.2792112,,,Sep16Sing1,42,2022_Sep_16_1446,ProdSingRedoBetween,2021.2.3,59.87403703
,,,,88,0,88,0,,,,,,,,,,,,,,,,,,,,,,630.1613533,None,,,,,,,,,,,,,,,,,,notice,44,89,sing,old,blue,627.8373681,None,627.8373681,None,2,1.4984503,627.8373681,None,1.4984503,629.3605577,None,629.8625307,None,629.8625307,None,n,0.2813565,629.8625307,None,0.2813565,,,Sep16Sing1,42,2022_Sep_16_1446,ProdSingRedoBetween,2021.2.3,59.87403703
,,,,89,0,89,0,,,,,,,,,,,,,,,,,,,,,,632.4969827,None,,,,,,,,,,,,,,,,,,theme,127,90,sing,new,null,630.6645931,None,630.6645931,None,6,1.0233097,630.6645931,None,1.0233097,631.7130088,None,632.2135903,None,632.2135903,None,r,0.2582561,632.2135903,None,0.2582561,,,Sep16Sing1,42,2022_Sep_16_1446,ProdSingRedoBetween,2021.2.3,59.87403703
,,,,90,0,90,0,,,,,,,,,,,,,,,,,,,,,,635.1827939,None,,,,,,,,,,,,,,,,,,budget,115,91,sing,new,null,633.0052363,None,633.0052363,None,4,1.2986774,633.0052363,None,1.2986774,634.3319713,None,634.835045,None,634.835045,None,f,0.3329345,634.835045,None,0.3329345,,,Sep16Sing1,42,2022_Sep_16_1446,ProdSingRedoBetween,2021.2.3,59.87403703
,,,,91,0,91,0,,,,,,,,,,,,,,,,,,,,,,639.1203219,None,,,,,,,,,,,,,,,,,,close,59,92,sing,old,yellow,635.6923478,None,635.6923478,None,5,2.187538,635.6923478,None,2.187538,637.9036816,None,638.4052,None,638.4052,None,f,0.6986144,638.4052,None,0.6986144,,,Sep16Sing1,42,2022_Sep_16_1446,ProdSingRedoBetween,2021.2.3,59.87403703
,,,,92,0,92,0,,,,,,,,,,,,,,,,,,,,,,641.5893757,None,,,,,,,,,,,,,,,,,,shear,50,93,sing,old,blue,639.6309931,None,639.6309931,None,1,0.8968661,639.6309931,None,0.8968661,640.5561705,None,641.0576227,None,641.0576227,None,n,0.5022318,641.0576227,None,0.5022318,,,Sep16Sing1,42,2022_Sep_16_1446,ProdSingRedoBetween,2021.2.3,59.87403703
,,,,93,0,93,0,,,,,,,,,,,,,,,,,,,,,,644.1920207,None,,,,,,,,,,,,,,,,,,break,24,94,sing,old,yellow,642.1003577,None,642.1003577,None,3,1.2035727,642.1003577,None,1.2035727,643.326644,None,643.8435031,None,643.8435031,None,f,0.324429,643.8435031,None,0.324429,,,Sep16Sing1,42,2022_Sep_16_1446,ProdSingRedoBetween,2021.2.3,59.87403703
,,,,94,0,94,0,,,,,,,,,,,,,,,,,,,,,,647.6012687,None,,,,,,,,,,,,,,,,,,clean,121,95,sing,new,null,644.6941094,None,644.6941094,None,3,2.0417399,644.6941094,None,2.0417399,646.7654022,None,647.2867477,None,647.2867477,None,f,0.2812688,647.2867477,None,0.2812688,,,Sep16Sing1,42,2022_Sep_16_1446,ProdSingRedoBetween,2021.2.3,59.87403703
,,,,95,0,95,0,,,,,,,,,,,,,,,,,,,,,,652.2835539,None,,,,,,,,,,,,,,,,,,generation,165,96,sing,new,null,648.1178787,None,648.1178787,None,6,3.5539613,648.1178787,None,3.5539613,651.7002124,None,652.199845,None,652.199845,None,r,0.0559646,652.199845,None,0.0559646,,,Sep16Sing1,42,2022_Sep_16_1446,ProdSingRedoBetween,2021.2.3,59.87403703
,,,,96,0,96,0,,,,,,,,,,,,,,,,,,,,,,654.138063,None,,,,,,,,,,,,,,,,,,addition,83,97,sing,old,red,652.7882738,None,652.7882738,None,6,0.6438306,652.7882738,None,0.6438306,653.4581748,None,653.9693789,None,653.9693789,None,r,0.14261,653.9693789,None,0.14261,,,Sep16Sing1,42,2022_Sep_16_1446,ProdSingRedoBetween,2021.2.3,59.87403703
,,,,97,0,97,0,,,,,,,,,,,,,,,,,,,,,,656.1039249,None,,,,,,,,,,,,,,,,,,society,32,98,sing,old,blue,654.6539946,None,654.6539946,None,6,0.689909,654.6539946,None,0.689909,655.3752964,None,655.892988,None,655.892988,None,r,0.1950366,655.892988,None,0.1950366,,,Sep16Sing1,42,2022_Sep_16_1446,ProdSingRedoBetween,2021.2.3,59.87403703
,,,,98,0,98,0,,,,,,,,,,,,,,,,,,,,,,658.2771594,None,,,,,,,,,,,,,,,,,,narrow,134,99,sing,new,null,656.6049231,None,656.6049231,None,1,0.9390364,656.6049231,None,0.9390364,657.576345,None,658.0937168,None,658.0937168,None,n,0.1543811,658.0937168,None,0.1543811,,,Sep16Sing1,42,2022_Sep_16_1446,ProdSingRedoBetween,2021.2.3,59.87403703
,,,,99,0,99,0,,,,,,,,,,,,,,,,,,,,,,660.4416014,None,,,,,,,,,,,,,,,,,,education,26,100,sing,old,yellow,658.7903553,None,658.7903553,None,6,0.8894608,658.7903553,None,0.8894608,659.7084775,None,660.2136219,None,660.2136219,None,r,0.2102924,660.2136219,None,0.2102924,,,Sep16Sing1,42,2022_Sep_16_1446,ProdSingRedoBetween,2021.2.3,59.87403703
,,,,100,0,100,0,,,,,,,,,,,,,,,,,,,,,,662.5437135,None,,,,,,,,,,,,,,,,,,youth,31,101,sing,old,blue,660.9427356,None,660.9427356,None,1,0.8891414,660.9427356,None,0.8891414,661.8627806,None,662.3837138,None,662.3837138,None,n,0.1361874,662.3837138,None,0.1361874,,,Sep16Sing1,42,2022_Sep_16_1446,ProdSingRedoBetween,2021.2.3,59.87403703
,,,,101,0,101,0,,,,,,,,,,,,,,,,,,,,,,664.9294193,None,,,,,,,,,,,,,,,,,,platform,79,102,sing,old,red,663.0731481,None,663.0731481,None,6,1.046768,663.0731481,None,1.046768,664.1464026,None,664.6459015,None,664.6459015,None,r,0.2660545,664.6459015,None,0.2660545,,,Sep16Sing1,42,2022_Sep_16_1446,ProdSingRedoBetween,2021.2.3,59.87403703
,,,,102,0,102,0,,,,,,,,,,,,,,,,,,,,,,667.7989432,None,,,,,,,,,,,,,,,,,,edition,155,103,sing,new,null,665.4438685,None,665.4438685,None,6,1.6439754,665.4438685,None,1.6439754,667.1164169,None,667.6194682,None,667.6194682,None,r,0.1564077,667.6194682,None,0.1564077,,,Sep16Sing1,42,2022_Sep_16_1446,ProdSingRedoBetween,2021.2.3,59.87403703
,,,,103,0,103,0,,,,,,,,,,,,,,,,,,,,,,669.9010477,None,,,,,,,,,,,,,,,,,,conference,27,104,sing,old,yellow,668.3086499,None,668.3086499,None,6,0.827278,668.3086499,None,0.827278,669.1679853,None,669.677646,None,669.677646,None,r,0.1942854,669.677646,None,0.1942854,,,Sep16Sing1,42,2022_Sep_16_1446,ProdSingRedoBetween,2021.2.3,59.87403703
,,,,104,0,104,0,,,,,,,,,,,,,,,,,,,,,,671.8697157,None,,,,,,,,,,,,,,,,,,south,174,105,sing,new,null,670.411331,None,670.411331,None,1,0.7245242,670.411331,None,0.7245242,671.1535375,None,671.6559864,None,671.6559864,None,n,0.1839665,671.6559864,None,0.1839665,,,Sep16Sing1,42,2022_Sep_16_1446,ProdSingRedoBetween,2021.2.3,59.87403703
,,,,105,0,105,0,,,,,,,,,,,,,,,,,,,,,,674.905984,None,,,,,,,,,,,,,,,,,,meeting,43,106,sing,old,blue,672.372026,None,672.372026,None,5,1.6757865,672.372026,None,1.6757865,674.072642,None,674.5725856,None,674.5725856,None,f,0.3152785,674.5725856,None,0.3152785,,,Sep16Sing1,42,2022_Sep_16_1446,ProdSingRedoBetween,2021.2.3,59.87403703
,,,,106,0,106,0,,,,,,,,,,,,,,,,,,,,,,677.959143,None,,,,,,,,,,,,,,,,,,literature,161,107,sing,new,null,675.4122025,None,675.4122025,None,4,1.659875,675.4122025,None,1.659875,677.0913695,None,677.5922116,None,677.5922116,None,f,0.3358577,677.5922116,None,0.3358577,,,Sep16Sing1,42,2022_Sep_16_1446,ProdSingRedoBetween,2021.2.3,59.87403703
,,,,107,0,107,0,,,,,,,,,,,,,,,,,,,,,,681.7297833,None,,,,,,,,,,,,,,,,,,majority,158,108,sing,new,null,678.4645124,None,678.4645124,None,3,2.3433429,678.4645124,None,2.3433429,680.8301261,None,681.3428805,None,681.3428805,None,n,0.3690448,681.3428805,None,0.3690448,,,Sep16Sing1,42,2022_Sep_16_1446,ProdSingRedoBetween,2021.2.3,59.87403703
,,,,108,0,108,0,,,,,,,,,,,,,,,,,,,,,,686.6343007,None,,,,,,,,,,,,,,,,,,suspect,68,109,sing,old,red,682.2380619,None,682.2380619,None,3,3.6658392,682.2380619,None,3.6658392,685.9351749,None,686.4524241,None,686.4524241,None,f,0.15559,686.4524241,None,0.15559,,,Sep16Sing1,42,2022_Sep_16_1446,ProdSingRedoBetween,2021.2.3,59.87403703
,,,,109,0,109,0,,,,,,,,,,,,,,,,,,,,,,688.5528451,None,,,,,,,,,,,,,,,,,,provision,109,110,sing,new,null,687.1479291,None,687.1479291,None,1,0.7799699,687.1479291,None,0.7799699,687.9579949,None,688.4774227,None,688.4774227,None,n,0.0506136,688.4774227,None,0.0506136,,,Sep16Sing1,42,2022_Sep_16_1446,ProdSingRedoBetween,2021.2.3,59.87403703
,,,,110,0,110,0,,,,,,,,,,,,,,,,,,,,,,691.0388539,None,,,,,,,,,,,,,,,,,,design,90,111,sing,new,null,689.0542025,None,689.0542025,None,6,1.3777288,689.0542025,None,1.3777288,690.4565036,None,690.9595523,None,690.9595523,None,r,0.0564028,690.9595523,None,0.0564028,,,Sep16Sing1,42,2022_Sep_16_1446,ProdSingRedoBetween,2021.2.3,59.87403703
,,,,111,0,111,0,,,,,,,,,,,,,,,,,,,,,,693.0908682,None,,,,,,,,,,,,,,,,,,display,105,112,sing,new,null,691.5412356,None,691.5412356,None,1,0.8186857,691.5412356,None,0.8186857,692.3910103,None,692.8909498,None,692.8909498,None,n,0.1729529,692.8909498,None,0.1729529,,,Sep16Sing1,42,2022_Sep_16_1446,ProdSingRedoBetween,2021.2.3,59.87403703
,,,,112,0,112,0,,,,,,,,,,,,,,,,,,,,,,695.0781022,None,,,,,,,,,,,,,,,,,,throw,73,113,sing,old,red,693.6008541,None,693.6008541,None,1,0.8072072,693.6008541,None,0.8072072,694.4268086,None,694.9320941,None,694.9320941,None,n,0.1238808,694.9320941,None,0.1238808,,,Sep16Sing1,42,2022_Sep_16_1446,ProdSingRedoBetween,2021.2.3,59.87403703
,,,,113,0,113,0,,,,,,,,,,,,,,,,,,,,,,698.4296292,None,,,,,,,,,,,,,,,,,,trend,119,114,sing,new,null,695.5996135,None,695.5996135,None,3,1.76025,695.5996135,None,1.76025,697.3794598,None,697.8788088,None,697.8788088,None,f,0.5291541,697.8788088,None,0.5291541,,,Sep16Sing1,42,2022_Sep_16_1446,ProdSingRedoBetween,2021.2.3,59.87403703
,,,,114,0,114,0,,,,,,,,,,,,,,,,,,,,,,701.2824587,None,,,,,,,,,,,,,,,,,,series,111,115,sing,new,null,698.9312165,None,698.9312165,None,6,1.4367283,698.9312165,None,1.4367283,700.4007186,None,700.9155466,None,700.9155466,None,r,0.3405132,700.9155466,None,0.3405132,,,Sep16Sing1,42,2022_Sep_16_1446,ProdSingRedoBetween,2021.2.3,59.87403703
,,,,115,0,115,0,,,,,,,,,,,,,,,,,,,,,,703.3526977,None,,,,,,,,,,,,,,,,,,rough,100,116,sing,new,null,701.7918522,None,701.7918522,None,1,0.8562735,701.7918522,None,0.8562735,702.6735954,None,703.1864521,None,703.1864521,None,n,0.1335795,703.1864521,None,0.1335795,,,Sep16Sing1,42,2022_Sep_16_1446,ProdSingRedoBetween,2021.2.3,59.87403703
,,,,116,0,116,0,,,,,,,,,,,,,,,,,,,,,,707.2884884,None,,,,,,,,,,,,,,,,,,public,128,117,sing,new,null,703.8706392,None,703.8706392,None,1,2.5373125,703.8706392,None,2.5373125,706.4393346,None,706.9548945,None,706.9548945,None,n,0.3170998,706.9548945,None,0.3170998,,,Sep16Sing1,42,2022_Sep_16_1446,ProdSingRedoBetween,2021.2.3,59.87403703
,,,,117,0,117,0,,,,,,,,,,,,,,,,,,,,,,710.0746902,None,,,,,,,,,,,,,,,,,,sleep,148,118,sing,new,null,707.8031982,None,707.8031982,None,3,1.4047468,707.8031982,None,1.4047468,709.2267581,None,709.743027,None,709.743027,None,f,0.3050036,709.743027,None,0.3050036,,,Sep16Sing1,42,2022_Sep_16_1446,ProdSingRedoBetween,2021.2.3,59.87403703
,,,,118,0,118,0,,,,,,,,,,,,,,,,,,,,,,712.7606129,None,,,,,,,,,,,,,,,,,,cousin,12,119,sing,old,yellow,710.5859384,None,710.5859384,None,6,1.3658864,710.5859384,None,1.3658864,711.9775973,None,712.4831781,None,712.4831781,None,r,0.2607723,712.4831781,None,0.2607723,,,Sep16Sing1,42,2022_Sep_16_1446,ProdSingRedoBetween,2021.2.3,59.87403703
,,,,119,0,119,0,,,,,,,,,,,,,,,,,,,,,,714.9125851,None,,,,,,,,,,,,,,,,,,committee,67,120,sing,old,red,713.2676318,None,713.2676318,None,6,0.8282359,713.2676318,None,0.8282359,714.1132037,None,714.6158986,None,714.6158986,None,r,0.2801093,714.6158986,None,0.2801093,,,Sep16Sing1,42,2022_Sep_16_1446,ProdSingRedoBetween,2021.2.3,59.87403703
,,,,120,0,120,0,,,,,,,,,,,,,,,,,,,,,,716.697842,None,,,,,,,,,,,,,,,,,,community,22,121,sing,old,yellow,715.4161007,None,715.4161007,None,6,0.6558226,715.4161007,None,0.6558226,716.0983001,None,716.5997403,None,716.5997403,None,r,0.0722565,716.5997403,None,0.0722565,,,Sep16Sing1,42,2022_Sep_16_1446,ProdSingRedoBetween,2021.2.3,59.87403703
,,,,121,0,121,0,,,,,,,,,,,,,,,,,,,,,,718.6049247,None,,,,,,,,,,,,,,,,,,region,147,122,sing,new,null,717.1983519,None,717.1983519,None,6,0.681614,717.1983519,None,0.681614,717.9015257,None,718.4221683,None,718.4221683,None,r,0.153839,718.4221683,None,0.153839,,,Sep16Sing1,42,2022_Sep_16_1446,ProdSingRedoBetween,2021.2.3,59.87403703
,,,,122,0,122,0,,,,,,,,,,,,,,,,,,,,,,721.6890152,None,,,,,,,,,,,,,,,,,,dance,172,123,sing,new,null,719.1171629,None,719.1171629,None,3,1.434718,719.1171629,None,1.434718,720.5683254,None,721.0734735,None,721.0734735,None,f,0.5905072,721.0734735,None,0.5905072,,,Sep16Sing1,42,2022_Sep_16_1446,ProdSingRedoBetween,2021.2.3,59.87403703
,,,,123,0,123,0,,,,,,,,,,,,,,,,,,,,,,724.6558299,None,,,,,,,,,,,,,,,,,,science,75,124,sing,old,red,722.2081841,None,722.2081841,None,6,1.6077578,722.2081841,None,1.6077578,723.839728,None,724.3462646,None,724.3462646,None,r,0.2936372,724.3462646,None,0.2936372,,,Sep16Sing1,42,2022_Sep_16_1446,ProdSingRedoBetween,2021.2.3,59.87403703
,,,,124,0,124,0,,,,,,,,,,,,,,,,,,,,,,727.7953262,None,,,,,,,,,,,,,,,,,,grade,57,125,sing,old,blue,725.1658694,None,725.1658694,None,3,1.4900738,725.1658694,None,1.4900738,726.6791006,None,727.1919112,None,727.1919112,None,f,0.5840798,727.1919112,None,0.5840798,,,Sep16Sing1,42,2022_Sep_16_1446,ProdSingRedoBetween,2021.2.3,59.87403703
,,,,125,0,125,0,,,,,,,,,,,,,,,,,,,,,,730.0449858,None,,,,,,,,,,,,,,,,,,season,118,126,sing,new,null,728.3093221,None,728.3093221,None,1,0.8906289,728.3093221,None,0.8906289,729.2324023,None,729.7443772,None,729.7443772,None,n,0.271619,729.7443772,None,0.271619,,,Sep16Sing1,42,2022_Sep_16_1446,ProdSingRedoBetween,2021.2.3,59.87403703
,,,,126,0,126,0,,,,,,,,,,,,,,,,,,,,,,732.6304118,None,,,,,,,,,,,,,,,,,,poetry,62,127,sing,old,red,730.5585031,None,730.5585031,None,6,1.2494603,730.5585031,None,1.2494603,731.834259,None,732.3468883,None,732.3468883,None,r,0.2611535,732.3468883,None,0.2611535,,,Sep16Sing1,42,2022_Sep_16_1446,ProdSingRedoBetween,2021.2.3,59.87403703
,,,,127,0,127,0,,,,,,,,,,,,,,,,,,,,,,735.0328266,None,,,,,,,,,,,,,,,,,,skill,120,128,sing,new,null,733.1436163,None,733.1436163,None,1,1.0403273,733.1436163,None,1.0403273,734.2165138,None,734.7223418,None,734.7223418,None,n,0.2856985,734.7223418,None,0.2856985,,,Sep16Sing1,42,2022_Sep_16_1446,ProdSingRedoBetween,2021.2.3,59.87403703
,,,,128,0,128,0,,,,,,,,,,,,,,,,,,,,,,737.4916325,None,,,,,,,,,,,,,,,,,,point,33,129,sing,old,blue,735.546615,None,735.546615,None,1,1.0932413,735.546615,None,1.0932413,736.6691261,None,737.1684275,None,737.1684275,None,n,0.2877106,737.1684275,None,0.2877106,,,Sep16Sing1,42,2022_Sep_16_1446,ProdSingRedoBetween,2021.2.3,59.87403703
,,,,129,0,129,0,,,,,,,,,,,,,,,,,,,,,,740.7051552,None,,,,,,,,,,,,,,,,,,capital,3,130,sing,old,yellow,738.005478,None,738.005478,None,3,1.8424649,738.005478,None,1.8424649,739.8720645,None,740.3716551,None,740.3716551,None,f,0.3162691,740.3716551,None,0.3162691,,,Sep16Sing1,42,2022_Sep_16_1446,ProdSingRedoBetween,2021.2.3,59.87403703
,,,,130,0,130,0,,,,,,,,,,,,,,,,,,,,,,743.2576414,None,,,,,,,,,,,,,,,,,,research,162,131,sing,new,null,741.2139273,None,741.2139273,None,3,1.3060021,741.2139273,None,1.3060021,742.5414356,None,743.0454217,None,743.0454217,None,f,0.1866639,743.0454217,None,0.1866639,,,Sep16Sing1,42,2022_Sep_16_1446,ProdSingRedoBetween,2021.2.3,59.87403703
,,,,131,0,131,0,,,,,,,,,,,,,,,,,,,,,,745.8124955,None,,,,,,,,,,,,,,,,,,error,126,132,sing,new,null,743.7641277,None,743.7641277,None,1,1.4038246,743.7641277,None,1.4038246,745.1927525,None,745.6961239,None,745.6961239,None,n,0.0878608,745.6961239,None,0.0878608,,,Sep16Sing1,42,2022_Sep_16_1446,ProdSingRedoBetween,2021.2.3,59.87403703
,,,,132,0,132,0,,,,,,,,,,,,,,,,,,,,,,748.049637,None,,,,,,,,,,,,,,,,,,evidence,47,133,sing,old,blue,746.3387535,None,746.3387535,None,1,0.9651813,746.3387535,None,0.9651813,747.3284799,None,747.8353736,None,747.8353736,None,n,0.1805859,747.8353736,None,0.1805859,,,Sep16Sing1,42,2022_Sep_16_1446,ProdSingRedoBetween,2021.2.3,59.87403703
,,,,133,0,133,0,,,,,,,,,,,,,,,,,,,,,,750.7485283,None,,,,,,,,,,,,,,,,,,entrance,74,134,sing,old,red,748.5774761,None,748.5774761,None,3,1.478497,748.5774761,None,1.478497,750.0821228,None,750.5836857,None,750.5836857,None,f,0.1362941,750.5836857,None,0.1362941,,,Sep16Sing1,42,2022_Sep_16_1446,ProdSingRedoBetween,2021.2.3,59.87403703
,,,,134,0,134,0,,,,,,,,,,,,,,,,,,,,,,752.9507359,None,,,,,,,,,,,,,,,,,,comedy,63,135,sing,old,red,751.2608962,None,751.2608962,None,6,1.0191554,751.2608962,None,1.0191554,752.3035701,None,752.8234041,None,752.8234041,None,f,0.0965295,752.8234041,None,0.0965295,,,Sep16Sing1,42,2022_Sep_16_1446,ProdSingRedoBetween,2021.2.3,59.87403703
,,,,135,0,135,0,,,,,,,,,,,,,,,,,,,,,,755.4866477,None,,,,,,,,,,,,,,,,,,beauty,86,136,sing,old,red,753.4583683,None,753.4583683,None,6,1.2216782,753.4583683,None,1.2216782,754.7115981,None,755.2206682,None,755.2206682,None,r,0.2353474,755.2206682,None,0.2353474,,,Sep16Sing1,42,2022_Sep_16_1446,ProdSingRedoBetween,2021.2.3,59.87403703
,,,,136,0,136,0,,,,,,,,,,,,,,,,,,,,,,758.2727785,None,,,,,,,,,,,,,,,,,,account,159,137,sing,new,null,755.9943907,None,755.9943907,None,4,1.5815551,755.9943907,None,1.5815551,757.6057506,None,758.108215,None,758.108215,None,f,0.1478457,758.108215,None,0.1478457,,,Sep16Sing1,42,2022_Sep_16_1446,ProdSingRedoBetween,2021.2.3,59.87403703
,,,,137,0,137,0,,,,,,,,,,,,,,,,,,,,,,760.641502,None,,,,,,,,,,,,,,,,,,place,131,138,sing,new,null,758.7782505,None,758.7782505,None,3,1.0458294,758.7782505,None,1.0458294,759.8417984,None,760.3432303,None,760.3432303,None,f,0.2806839,760.3432303,None,0.2806839,,,Sep16Sing1,42,2022_Sep_16_1446,ProdSingRedoBetween,2021.2.3,59.87403703
,,,,138,0,138,0,,,,,,,,,,,,,,,,,,,,,,763.7949149,None,,,,,,,,,,,,,,,,,,interior,157,139,sing,new,null,761.1486528,None,761.1486528,None,4,1.8433523,761.1486528,None,1.8433523,763.0124717,None,763.5280041,None,763.5280041,None,f,0.2480119,763.5280041,None,0.2480119,,,Sep16Sing1,42,2022_Sep_16_1446,ProdSingRedoBetween,2021.2.3,59.87403703
,,,,139,0,139,0,,,,,,,,,,,,,,,,,,,,,,767.5002081,None,,,,,,,,,,,,,,,,,,tragedy,54,140,sing,old,blue,764.3060655,None,764.3060655,None,5,1.7100101,764.3060655,None,1.7100101,766.0488558,None,766.5644972,None,766.5644972,None,r,0.9074245,766.5644972,None,0.9074245,,,Sep16Sing1,42,2022_Sep_16_1446,ProdSingRedoBetween,2021.2.3,59.87403703
,,,,140,0,140,0,,,,,,,,,,,,,,,,,,,,,,769.8008996,None,,,,,,,,,,,,,,,,,,discovery,21,141,sing,old,yellow,768.0161321,None,768.0161321,None,6,1.0078528,768.0161321,None,1.0078528,769.057004,None,769.5786253,None,769.5786253,None,r,0.2053139,769.5786253,None,0.2053139,,,Sep16Sing1,42,2022_Sep_16_1446,ProdSingRedoBetween,2021.2.3,59.87403703
,,,,141,0,141,0,,,,,,,,,,,,,,,,,,,,,,771.9696208,None,,,,,,,,,,,,,,,,,,council,87,142,sing,old,red,770.3043857,None,770.3043857,None,6,0.8235778,770.3043857,None,0.8235778,771.152123,None,771.6528377,None,771.6528377,None,r,0.2911495,771.6528377,None,0.2911495,,,Sep16Sing1,42,2022_Sep_16_1446,ProdSingRedoBetween,2021.2.3,59.87403703
,,,,142,0,142,0,,,,,,,,,,,,,,,,,,,,,,775.039396,None,,,,,,,,,,,,,,,,,,signal,173,143,sing,new,null,772.4816693,None,772.4816693,None,6,1.7663624,772.4816693,None,1.7663624,774.2770063,None,774.7922895,None,774.7922895,None,r,0.2235422,774.7922895,None,0.2235422,,,Sep16Sing1,42,2022_Sep_16_1446,ProdSingRedoBetween,2021.2.3,59.87403703
,,,,143,0,143,0,,,,,,,,,,,,,,,,,,,,,,777.3432368,None,,,,,,,,,,,,,,,,,,stranger,98,144,sing,new,null,775.550545,None,775.550545,None,1,1.1374334,775.550545,None,1.1374334,776.7134284,None,777.226708,None,777.226708,None,n,0.0853021,777.226708,None,0.0853021,,,Sep16Sing1,42,2022_Sep_16_1446,ProdSingRedoBetween,2021.2.3,59.87403703
,,,,144,0,144,0,,,,,,,,,,,,,,,,,,,,,,779.5605875,None,,,,,,,,,,,,,,,,,,column,6,145,sing,old,yellow,777.8482206,None,777.8482206,None,1,0.7598003,777.8482206,None,0.7598003,778.6293415,None,779.1437319,None,779.1437319,None,n,0.4002346,779.1437319,None,0.4002346,,,Sep16Sing1,42,2022_Sep_16_1446,ProdSingRedoBetween,2021.2.3,59.87403703
,,,,145,0,145,0,,,,,,,,,,,,,,,,,,,,,,781.6165946,None,,,,,,,,,,,,,,,,,,threat,117,146,sing,new,null,780.0686948,None,780.0686948,None,1,0.7953036,780.0686948,None,0.7953036,780.8953232,None,781.403044,None,781.403044,None,n,0.189157,781.403044,None,0.189157,,,Sep16Sing1,42,2022_Sep_16_1446,ProdSingRedoBetween,2021.2.3,59.87403703
,,,,146,0,146,0,,,,,,,,,,,,,,,,,,,,,,784.1652712,None,,,,,,,,,,,,,,,,,,alert,36,147,sing,old,blue,782.144652,None,782.144652,None,4,1.1913255,782.144652,None,1.1913255,783.3642322,None,783.869315,None,783.869315,None,f,0.2746456,783.869315,None,0.2746456,,,Sep16Sing1,42,2022_Sep_16_1446,ProdSingRedoBetween,2021.2.3,59.87403703
,,,,147,0,147,0,,,,,,,,,,,,,,,,,,,,,,786.6516008,None,,,,,,,,,,,,,,,,,,treatment,82,148,sing,old,red,784.6761395,None,784.6761395,None,6,0.9076827,784.6761395,None,0.9076827,785.6014016,None,786.1006931,None,786.1006931,None,f,0.5232919,786.1006931,None,0.5232919,,,Sep16Sing1,42,2022_Sep_16_1446,ProdSingRedoBetween,2021.2.3,59.87403703
,,,,148,0,148,0,,,,,,,,,,,,,,,,,,,,,,789.9544109,None,,,,,,,,,,,,,,,,,,payment,176,149,sing,new,null,787.1543754,None,787.1543754,None,3,2.0695922,787.1543754,None,2.0695922,789.2563664,None,789.7735123,None,789.7735123,None,f,0.1624875,789.7735123,None,0.1624875,,,Sep16Sing1,42,2022_Sep_16_1446,ProdSingRedoBetween,2021.2.3,59.87403703
,,,,149,0,149,0,,,,,,,,,,,,,,,,,,,,,,792.3249753,None,,,,,,,,,,,,,,,,,,instrument,51,150,sing,old,blue,790.4652328,None,790.4652328,None,6,1.2067177,790.4652328,None,1.2067177,791.6900397,None,792.191784,None,792.191784,None,r,0.1042152,792.191784,None,0.1042152,,,Sep16Sing1,42,2022_Sep_16_1446,ProdSingRedoBetween,2021.2.3,59.87403703
,,,,150,0,150,0,,,,,,,,,,,,,,,,,,,,,,794.6924925,None,,,,,,,,,,,,,,,,,,space,29,151,sing,old,blue,792.8400229,None,792.8400229,None,6,1.279946,792.8400229,None,1.279946,794.1438302,None,794.6605503,None,794.6605503,None,r,0.0115068,794.6605503,None,0.0115068,,,Sep16Sing1,42,2022_Sep_16_1446,ProdSingRedoBetween,2021.2.3,59.87403703
,,,,151,0,151,0,,,,,,,,,,,,,,,,,,,,,,797.6468575,None,,,,,,,,,,,,,,,,,,partner,96,152,sing,new,null,795.1973323,None,795.1973323,None,4,1.7386614,795.1973323,None,1.7386614,796.9643767,None,797.4809399,None,797.4809399,None,f,0.1350719,797.4809399,None,0.1350719,,,Sep16Sing1,42,2022_Sep_16_1446,ProdSingRedoBetween,2021.2.3,59.87403703
,,,,152,0,152,0,,,,,,,,,,,,,,,,,,,,,,800.0506393,None,,,,,,,,,,,,,,,,,,trial,1,153,sing,old,yellow,798.1474694,None,798.1474694,None,6,1.0445062,798.1474694,None,1.0445062,799.2164885,None,799.7309274,None,799.7309274,None,r,0.3011321,799.7309274,None,0.3011321,,,Sep16Sing1,42,2022_Sep_16_1446,ProdSingRedoBetween,2021.2.3,59.87403703
,,,,153,0,153,0,,,,,,,,,,,,,,,,,,,,,,802.2832284,None,,,,,,,,,,,,,,,,,,equipment,55,154,sing,old,blue,800.5673775,None,800.5673775,None,6,0.9286335,800.5673775,None,0.9286335,801.5239807,None,802.0337954,None,802.0337954,None,r,0.2220878,802.0337954,None,0.2220878,,,Sep16Sing1,42,2022_Sep_16_1446,ProdSingRedoBetween,2021.2.3,59.87403703
,,,,154,0,154,0,,,,,,,,,,,,,,,,,,,,,,804.8860194,None,,,,,,,,,,,,,,,,,,department,151,155,sing,new,null,802.7935904,None,802.7935904,None,1,1.3903657,802.7935904,None,1.3903657,804.2039467,None,804.7192552,None,804.7192552,None,n,0.1367844,804.7192552,None,0.1367844,,,Sep16Sing1,42,2022_Sep_16_1446,ProdSingRedoBetween,2021.2.3,59.87403703
,,,,155,0,155,0,,,,,,,,,,,,,,,,,,,,,,806.7550423,None,,,,,,,,,,,,,,,,,,curve,64,156,sing,old,red,805.3948304,None,805.3948304,None,1,0.6612599,805.3948304,None,0.6612599,806.0920755,None,806.6045096,None,806.6045096,None,n,0.1234882,806.6045096,None,0.1234882,,,Sep16Sing1,42,2022_Sep_16_1446,ProdSingRedoBetween,2021.2.3,59.87403703
,,,,156,0,156,0,,,,,,,,,,,,,,,,,,,,,,811.7592355,None,,,,,,,,,,,,,,,,,,permit,48,157,sing,old,blue,807.2564197,None,807.2564197,None,4,3.7914832,807.2564197,None,3.7914832,811.0763527,None,811.5769308,None,811.5769308,None,f,0.1669297,811.5769308,None,0.1669297,,,Sep16Sing1,42,2022_Sep_16_1446,ProdSingRedoBetween,2021.2.3,59.87403703
,,,,157,0,157,0,,,,,,,,,,,,,,,,,,,,,,814.2472829,None,,,,,,,,,,,,,,,,,,trash,16,158,sing,old,yellow,812.2744212,None,812.2744212,None,6,1.1496516,812.2744212,None,1.1496516,813.4457942,None,813.9514258,None,813.9514258,None,r,0.2726277,813.9514258,None,0.2726277,,,Sep16Sing1,42,2022_Sep_16_1446,ProdSingRedoBetween,2021.2.3,59.87403703
,,,,158,0,158,0,,,,,,,,,,,,,,,,,,,,,,816.7479483,None,,,,,,,,,,,,,,,,,,emergency,140,159,sing,new,null,814.764688,None,814.764688,None,6,1.1952956,814.764688,None,1.1952956,815.9814546,None,816.4903982,None,816.4903982,None,r,0.2295437,816.4903982,None,0.2295437,,,Sep16Sing1,42,2022_Sep_16_1446,ProdSingRedoBetween,2021.2.3,59.87403703
,,,,159,0,159,0,,,,,,,,,,,,,,,,,,,,,,819.7898493,None,,,,,,,,,,,,,,,,,,sight,20,160,sing,old,yellow,817.2483859,None,817.2483859,None,4,1.7035283,817.2483859,None,1.7035283,818.9867762,None,819.5020998,None,819.5020998,None,f,0.2579658,819.5020998,None,0.2579658,,,Sep16Sing1,42,2022_Sep_16_1446,ProdSingRedoBetween,2021.2.3,59.87403703
,,,,160,0,160,0,,,,,,,,,,,,,,,,,,,,,,822.1419655,None,,,,,,,,,,,,,,,,,,mankind,107,161,sing,new,null,820.30534,None,820.30534,None,1,1.0705602,820.30534,None,1.0705602,821.4024104,None,821.9030627,None,821.9030627,None,n,0.2169341,821.9030627,None,0.2169341,,,Sep16Sing1,42,2022_Sep_16_1446,ProdSingRedoBetween,2021.2.3,59.87403703
,,,,161,0,161,0,,,,,,,,,,,,,,,,,,,,,,824.0885657,None,,,,,,,,,,,,,,,,,,production,153,162,sing,new,null,822.6632858,None,822.6632858,None,1,0.6966595,822.6632858,None,0.6966595,823.3887681,None,823.8928407,None,823.8928407,None,n,0.1791669,823.8928407,None,0.1791669,,,Sep16Sing1,42,2022_Sep_16_1446,ProdSingRedoBetween,2021.2.3,59.87403703
,,,,162,0,162,0,,,,,,,,,,,,,,,,,,,,,,826.0069353,None,,,,,,,,,,,,,,,,,,carry,11,163,sing,old,yellow,824.5957931,None,824.5957931,None,1,0.8042474,824.5957931,None,0.8042474,825.4253893,None,825.94053,None,825.94053,None,n,0.0515234,825.94053,None,0.0515234,,,Sep16Sing1,42,2022_Sep_16_1446,ProdSingRedoBetween,2021.2.3,59.87403703
,,,,163,0,163,0,,,,,,,,,,,,,,,,,,,,,,828.4954387,None,,,,,,,,,,,,,,,,,,owner,65,164,sing,old,red,826.5138177,None,826.5138177,None,3,1.270169,826.5138177,None,1.270169,827.8105347,None,828.3302091,None,828.3302091,None,f,0.1421045,828.3302091,None,0.1421045,,,Sep16Sing1,42,2022_Sep_16_1446,ProdSingRedoBetween,2021.2.3,59.87403703
,,,,164,0,164,0,,,,,,,,,,,,,,,,,,,,,,831.328843,None,,,,,,,,,,,,,,,,,,incident,17,165,sing,old,yellow,829.0122848,None,829.0122848,None,1,1.6037864,829.0122848,None,1.6037864,830.646255,None,831.1454992,None,831.1454992,None,n,0.1664655,831.1454992,None,0.1664655,,,Sep16Sing1,42,2022_Sep_16_1446,ProdSingRedoBetween,2021.2.3,59.87403703
,,,,165,0,165,0,,,,,,,,,,,,,,,,,,,,,,833.81485,None,,,,,,,,,,,,,,,,,,figure,132,166,sing,new,null,831.8344826,None,831.8344826,None,3,1.2135846,831.8344826,None,1.2135846,833.0708943,None,833.5814023,None,833.5814023,None,f,0.2186077,833.5814023,None,0.2186077,,,Sep16Sing1,42,2022_Sep_16_1446,ProdSingRedoBetween,2021.2.3,59.87403703
,,,,166,0,166,0,,,,,,,,,,,,,,,,,,,,,,835.8836575,None,,,,,,,,,,,,,,,,,,weight,129,167,sing,new,null,834.3244103,None,834.3244103,None,1,0.8356709,834.3244103,None,0.8356709,835.1841396,None,835.6919124,None,835.6919124,None,n,0.1720595,835.6919124,None,0.1720595,,,Sep16Sing1,42,2022_Sep_16_1446,ProdSingRedoBetween,2021.2.3,59.87403703
,,,,167,0,167,0,,,,,,,,,,,,,,,,,,,,,,839.2533664,None,,,,,,,,,,,,,,,,,,mayor,88,168,sing,old,red,836.393301,None,836.393301,None,1,0.7425433,836.393301,None,0.7425433,837.1526895,None,837.6518837,None,837.6518837,None,r,1.5720072,837.6518837,None,1.5720072,,,Sep16Sing1,42,2022_Sep_16_1446,ProdSingRedoBetween,2021.2.3,59.87403703
,,,,168,0,168,0,,,,,,,,,,,,,,,,,,,,,,842.5748906,None,,,,,,,,,,,,,,,,,,period,164,169,sing,new,null,839.753983,None,839.753983,None,3,2.0460225,839.753983,None,2.0460225,841.8242391,None,842.324217,None,842.324217,None,f,0.2200227,842.324217,None,0.2200227,,,Sep16Sing1,42,2022_Sep_16_1446,ProdSingRedoBetween,2021.2.3,59.87403703
,,,,169,0,169,0,,,,,,,,,,,,,,,,,,,,,,845.1095963,None,,,,,,,,,,,,,,,,,,birth,170,170,sing,new,null,843.0811288,None,843.0811288,None,3,1.1828369,843.0811288,None,1.1828369,844.2925245,None,844.7965734,None,844.7965734,None,f,0.2914426,844.7965734,None,0.2914426,,,Sep16Sing1,42,2022_Sep_16_1446,ProdSingRedoBetween,2021.2.3,59.87403703
,,,,170,0,170,0,,,,,,,,,,,,,,,,,,,,,,847.3451315,None,,,,,,,,,,,,,,,,,,device,49,171,sing,old,blue,845.6179506,None,845.6179506,None,3,0.958095,845.6179506,None,0.958095,846.5990774,None,847.1116694,None,847.1116694,None,f,0.2082999,847.1116694,None,0.2082999,,,Sep16Sing1,42,2022_Sep_16_1446,ProdSingRedoBetween,2021.2.3,59.87403703
,,,,171,0,171,0,,,,,,,,,,,,,,,,,,,,,,849.8321986,None,,,,,,,,,,,,,,,,,,judge,45,172,sing,old,blue,847.8581618,None,847.8581618,None,4,1.3099509,847.8581618,None,1.3099509,849.2026068,None,849.7142211,None,849.7142211,None,f,0.1018806,849.7142211,None,0.1018806,,,Sep16Sing1,42,2022_Sep_16_1446,ProdSingRedoBetween,2021.2.3,59.87403703
,,,,172,0,172,0,,,,,,,,,,,,,,,,,,,,,,851.8829957,None,,,,,,,,,,,,,,,,,,thick,146,173,sing,new,null,850.3387755,None,850.3387755,None,1,0.813483,850.3387755,None,0.813483,851.1932829,None,851.6995592,None,851.6995592,None,n,0.1644922,851.6995592,None,0.1644922,,,Sep16Sing1,42,2022_Sep_16_1446,ProdSingRedoBetween,2021.2.3,59.87403703
,,,,173,0,173,0,,,,,,,,,,,,,,,,,,,,,,854.6190771,None,,,,,,,,,,,,,,,,,,symbol,108,174,sing,new,null,852.3913995,None,852.3913995,None,4,1.4646236,852.3913995,None,1.4646236,853.8865641,None,854.3867393,None,854.3867393,None,f,0.2052379,854.3867393,None,0.2052379,,,Sep16Sing1,42,2022_Sep_16_1446,ProdSingRedoBetween,2021.2.3,59.87403703
,,,,174,0,174,0,,,,,,,,,,,,,,,,,,,,,,857.1717552,None,,,,,,,,,,,,,,,,,,story,103,175,sing,new,null,855.1232428,None,855.1232428,None,5,1.4206778,855.1232428,None,1.4206778,856.5742109,None,857.0884604,None,857.0884604,None,f,0.0634335,857.0884604,None,0.0634335,,,Sep16Sing1,42,2022_Sep_16_1446,ProdSingRedoBetween,2021.2.3,59.87403703
,,,,175,0,175,0,,,,,,,,,,,,,,,,,,,,,,860.2747116,None,,,,,,,,,,,,,,,,,,subject,169,176,sing,new,null,857.6777453,None,857.6777453,None,6,1.8422578,857.6777453,None,1.8422578,859.542988,None,860.057945,None,860.057945,None,r,0.1899906,860.057945,None,0.1899906,,,Sep16Sing1,42,2022_Sep_16_1446,ProdSingRedoBetween,2021.2.3,59.87403703
,,,,176,0,176,0,,,,,,,,,,,,,,,,,,,,,,862.7102356,None,,,,,,,,,,,,,,,,,,master,40,177,sing,old,blue,860.7784506,None,860.7784506,None,1,1.1175617,860.7784506,None,1.1175617,861.9276009,None,862.4296581,None,862.4296581,None,n,0.2584293,862.4296581,None,0.2584293,,,Sep16Sing1,42,2022_Sep_16_1446,ProdSingRedoBetween,2021.2.3,59.87403703
,,,,177,0,177,0,,,,,,,,,,,,,,,,,,,,,,864.8459581,None,,,,,,,,,,,,,,,,,,whole,30,178,sing,old,blue,863.23035,None,863.23035,None,1,0.8816707,863.23035,None,0.8816707,864.1298335,None,864.6345817,None,864.6345817,None,n,0.1894515,864.6345817,None,0.1894515,,,Sep16Sing1,42,2022_Sep_16_1446,ProdSingRedoBetween,2021.2.3,59.87403703
,,,,178,0,178,0,,,,,,,,,,,,,,,,,,,,,,867.0323688,None,,,,,,,,,,,,,,,,,,opening,122,179,sing,new,null,865.3569278,None,865.3569278,None,1,0.96299,865.3569278,None,0.96299,866.3501069,None,866.8654473,None,866.8654473,None,n,0.1426288,866.8654473,None,0.1426288,,,Sep16Sing1,42,2022_Sep_16_1446,ProdSingRedoBetween,2021.2.3,59.87403703
,,,,179,0,179,0,,,,,,,,,,,,,,,,,,,,,,869.3334273,None,,,,,,,,,,,,,,,,,,pattern,123,180,sing,new,null,867.5347758,None,867.5347758,None,4,1.033249,867.5347758,None,1.033249,868.6016469,None,869.1175268,None,869.1175268,None,f,0.1864043,869.1175268,None,0.1864043,,,Sep16Sing1,42,2022_Sep_16_1446,ProdSingRedoBetween,2021.2.3,59.87403703
,,,,,,,,,,,,,,,,,,,,,,,,,,,,,,,,,,,,,,,,,,,,,,,,,,,,,,,,,,,,,,,,,,,,,,,,,,869.8349371,None,,,,,,
