StudyLoop.thisRepN,StudyLoop.thisTrialN,StudyLoop.thisN,StudyLoop.thisIndex,TestLoop.thisRepN,TestLoop.thisTrialN,TestLoop.thisN,TestLoop.thisIndex,textCondition.started,textCondition.stopped,keyCondition.keys,keyCondition.rt,keyCondition.started,keyCondition.stopped,Condition,textWelcome.started,textWelcome.stopped,keyWelcome.keys,keyWelcome.rt,keyWelcome.started,keyWelcome.stopped,textAloud.started,textAloud.stopped,textSilent.started,textSilent.stopped,textSing.started,textSing.stopped,conditional_text.started,conditional_text.stopped,textBlank500.started,textBlank500.stopped,study_word,study_num,study_order,study_type,word_color,textStudy.started,textStudy.stopped,keyStudy.keys,keyStudy.started,keyStudy.stopped,textTestInstructions.started,textTestInstructions.stopped,key_resp_3.keys,key_resp_3.rt,key_resp_3.started,key_resp_3.stopped,test_word,test_num,test_order,test_condition,old_new_test,test_word_original_color,textConf.started,textConf.stopped,textConfScale.started,textConfScale.stopped,keyConf.keys,keyConf.rt,keyConf.started,keyConf.stopped,confidence response time,textTestBlank.started,textTestBlank.stopped,textRKN.started,textRKN.stopped,textRKNScale.started,textRKNScale.stopped,keyRKN.keys,keyRKN.rt,keyRKN.started,keyRKN.stopped,rkn response time,textEnd.started,textEnd.stopped,participant,session,date,expName,psychopyVersion,frameRate,
,,,,,,,,34.21292380010709,None,c,11.671318399952725,34.21292380010709,None,,,,,,,,,,,,,,,,,,,,,,,,,,,,,,,,,,,,,,,,,,,,,,,,,,,,,,,,,,,,,,Sing 60,001,2022_Oct_11_1422,ProdSingRedoBetween,2021.2.3,59.92448316333763,
,,,,,,,,,,,,,,SingTest,45.95747740007937,None,space,5836.380544699961,45.95747740007937,None,,,,,,,,,,,,,,,,,,,,,,,,,,,,,,,,,,,,,,,,,,,,,,,,,,,,,,,Sing 60,001,2022_Oct_11_1422,ProdSingRedoBetween,2021.2.3,59.92448316333763,
0,0,0,0,,,,,,,,,,,,,,,,,,45.95747740007937,None,45.95747740007937,None,45.95747740007937,None,45.95747740007937,None,5884.870699400082,None,series,27,1,sing,yellow,5882.868626300013,None,None,5882.868626300013,None,,,,,,,,,,,,,,,,,,,,,,,,,,,,,,,,,,,Sing 60,001,2022_Oct_11_1422,ProdSingRedoBetween,2021.2.3,59.92448316333763,
1,0,1,0,,,,,,,,,,,,,,,,,,,,,,,,,,5887.373315100092,None,pressure,19,2,sing,yellow,5885.373468900099,None,None,5885.373468900099,None,,,,,,,,,,,,,,,,,,,,,,,,,,,,,,,,,,,Sing 60,001,2022_Oct_11_1422,ProdSingRedoBetween,2021.2.3,59.92448316333763,
2,0,2,0,,,,,,,,,,,,,,,,,,,,,,,,,,5889.8758857001085,None,order,81,3,sing,red,5887.873452000087,None,None,5887.873452000087,None,,,,,,,,,,,,,,,,,,,,,,,,,,,,,,,,,,,Sing 60,001,2022_Oct_11_1422,ProdSingRedoBetween,2021.2.3,59.92448316333763,
3,0,3,0,,,,,,,,,,,,,,,,,,,,,,,,,,5892.378193699988,None,swift,85,4,sing,red,5890.37599560013,None,None,5890.37599560013,None,,,,,,,,,,,,,,,,,,,,,,,,,,,,,,,,,,,Sing 60,001,2022_Oct_11_1422,ProdSingRedoBetween,2021.2.3,59.92448316333763,
4,0,4,0,,,,,,,,,,,,,,,,,,,,,,,,,,5894.897491800133,None,individual,43,5,sing,blue,5892.888276500162,None,None,5892.888276500162,None,,,,,,,,,,,,,,,,,,,,,,,,,,,,,,,,,,,Sing 60,001,2022_Oct_11_1422,ProdSingRedoBetween,2021.2.3,59.92448316333763,
5,0,5,0,,,,,,,,,,,,,,,,,,,,,,,,,,5897.416422400158,None,industry,64,6,sing,red,5895.402560100192,None,None,5895.402560100192,None,,,,,,,,,,,,,,,,,,,,,,,,,,,,,,,,,,,Sing 60,001,2022_Oct_11_1422,ProdSingRedoBetween,2021.2.3,59.92448316333763,
6,0,6,0,,,,,,,,,,,,,,,,,,,,,,,,,,5899.919043900212,None,season,34,7,sing,blue,5897.916946000187,None,None,5897.916946000187,None,,,,,,,,,,,,,,,,,,,,,,,,,,,,,,,,,,,Sing 60,001,2022_Oct_11_1422,ProdSingRedoBetween,2021.2.3,59.92448316333763,
7,0,7,0,,,,,,,,,,,,,,,,,,,,,,,,,,5902.421235500136,None,rural,67,8,sing,red,5900.419431700138,None,None,5900.419431700138,None,,,,,,,,,,,,,,,,,,,,,,,,,,,,,,,,,,,Sing 60,001,2022_Oct_11_1422,ProdSingRedoBetween,2021.2.3,59.92448316333763,
8,0,8,0,,,,,,,,,,,,,,,,,,,,,,,,,,5904.940753100207,None,addition,14,9,sing,yellow,5902.925679700216,None,None,5902.925679700216,None,,,,,,,,,,,,,,,,,,,,,,,,,,,,,,,,,,,Sing 60,001,2022_Oct_11_1422,ProdSingRedoBetween,2021.2.3,59.92448316333763,
9,0,9,0,,,,,,,,,,,,,,,,,,,,,,,,,,5907.459921900183,None,center,66,10,sing,red,5905.448355600005,None,None,5905.448355600005,None,,,,,,,,,,,,,,,,,,,,,,,,,,,,,,,,,,,Sing 60,001,2022_Oct_11_1422,ProdSingRedoBetween,2021.2.3,59.92448316333763,
10,0,10,0,,,,,,,,,,,,,,,,,,,,,,,,,,5909.962535100058,None,symbol,54,11,sing,blue,5907.96065100003,None,None,5907.96065100003,None,,,,,,,,,,,,,,,,,,,,,,,,,,,,,,,,,,,Sing 60,001,2022_Oct_11_1422,ProdSingRedoBetween,2021.2.3,59.92448316333763,
11,0,11,0,,,,,,,,,,,,,,,,,,,,,,,,,,5912.481632600073,None,stand,8,12,sing,yellow,5910.4662609000225,None,None,5910.4662609000225,None,,,,,,,,,,,,,,,,,,,,,,,,,,,,,,,,,,,Sing 60,001,2022_Oct_11_1422,ProdSingRedoBetween,2021.2.3,59.92448316333763,
12,0,12,0,,,,,,,,,,,,,,,,,,,,,,,,,,5915.000756800175,None,quarter,78,13,sing,red,5912.985449000029,None,None,5912.985449000029,None,,,,,,,,,,,,,,,,,,,,,,,,,,,,,,,,,,,Sing 60,001,2022_Oct_11_1422,ProdSingRedoBetween,2021.2.3,59.92448316333763,
13,0,13,0,,,,,,,,,,,,,,,,,,,,,,,,,,5917.520146300085,None,empty,18,14,sing,yellow,5915.506235600216,None,None,5915.506235600216,None,,,,,,,,,,,,,,,,,,,,,,,,,,,,,,,,,,,Sing 60,001,2022_Oct_11_1422,ProdSingRedoBetween,2021.2.3,59.92448316333763,
14,0,14,0,,,,,,,,,,,,,,,,,,,,,,,,,,5920.02257310017,None,fellow,21,15,sing,yellow,5918.02286360017,None,None,5918.02286360017,None,,,,,,,,,,,,,,,,,,,,,,,,,,,,,,,,,,,Sing 60,001,2022_Oct_11_1422,ProdSingRedoBetween,2021.2.3,59.92448316333763,
15,0,15,0,,,,,,,,,,,,,,,,,,,,,,,,,,5922.541583100101,None,quick,11,16,sing,yellow,5920.53019560012,None,None,5920.53019560012,None,,,,,,,,,,,,,,,,,,,,,,,,,,,,,,,,,,,Sing 60,001,2022_Oct_11_1422,ProdSingRedoBetween,2021.2.3,59.92448316333763,
16,0,16,0,,,,,,,,,,,,,,,,,,,,,,,,,,5925.060830900213,None,quiet,87,17,sing,red,5923.046353300102,None,None,5923.046353300102,None,,,,,,,,,,,,,,,,,,,,,,,,,,,,,,,,,,,Sing 60,001,2022_Oct_11_1422,ProdSingRedoBetween,2021.2.3,59.92448316333763,
17,0,17,0,,,,,,,,,,,,,,,,,,,,,,,,,,5927.563284700038,None,theme,89,18,sing,red,5925.562326800078,None,None,5925.562326800078,None,,,,,,,,,,,,,,,,,,,,,,,,,,,,,,,,,,,Sing 60,001,2022_Oct_11_1422,ProdSingRedoBetween,2021.2.3,59.92448316333763,
18,0,18,0,,,,,,,,,,,,,,,,,,,,,,,,,,5930.06581590022,None,weight,36,19,sing,blue,5928.0657085001,None,None,5928.0657085001,None,,,,,,,,,,,,,,,,,,,,,,,,,,,,,,,,,,,Sing 60,001,2022_Oct_11_1422,ProdSingRedoBetween,2021.2.3,59.92448316333763,
19,0,19,0,,,,,,,,,,,,,,,,,,,,,,,,,,5932.568416600116,None,match,56,20,sing,blue,5930.568185700104,None,None,5930.568185700104,None,,,,,,,,,,,,,,,,,,,,,,,,,,,,,,,,,,,Sing 60,001,2022_Oct_11_1422,ProdSingRedoBetween,2021.2.3,59.92448316333763,
20,0,20,0,,,,,,,,,,,,,,,,,,,,,,,,,,5935.087613700191,None,edition,47,21,sing,blue,5933.072223100113,None,None,5933.072223100113,None,,,,,,,,,,,,,,,,,,,,,,,,,,,,,,,,,,,Sing 60,001,2022_Oct_11_1422,ProdSingRedoBetween,2021.2.3,59.92448316333763,
21,0,21,0,,,,,,,,,,,,,,,,,,,,,,,,,,5937.606508000055,None,display,13,22,sing,yellow,5935.591415400151,None,None,5935.591415400151,None,,,,,,,,,,,,,,,,,,,,,,,,,,,,,,,,,,,Sing 60,001,2022_Oct_11_1422,ProdSingRedoBetween,2021.2.3,59.92448316333763,
22,0,22,0,,,,,,,,,,,,,,,,,,,,,,,,,,5940.10919330013,None,tennis,74,23,sing,red,5938.107452900149,None,None,5938.107452900149,None,,,,,,,,,,,,,,,,,,,,,,,,,,,,,,,,,,,Sing 60,001,2022_Oct_11_1422,ProdSingRedoBetween,2021.2.3,59.92448316333763,
23,0,23,0,,,,,,,,,,,,,,,,,,,,,,,,,,5942.611772200093,None,weather,7,24,sing,yellow,5940.612745200051,None,None,5940.612745200051,None,,,,,,,,,,,,,,,,,,,,,,,,,,,,,,,,,,,Sing 60,001,2022_Oct_11_1422,ProdSingRedoBetween,2021.2.3,59.92448316333763,
24,0,24,0,,,,,,,,,,,,,,,,,,,,,,,,,,5945.131000900175,None,subject,71,25,sing,red,5943.117796000093,None,None,5943.117796000093,None,,,,,,,,,,,,,,,,,,,,,,,,,,,,,,,,,,,Sing 60,001,2022_Oct_11_1422,ProdSingRedoBetween,2021.2.3,59.92448316333763,
25,0,25,0,,,,,,,,,,,,,,,,,,,,,,,,,,5947.649930000072,None,substance,40,26,sing,blue,5945.635971300071,None,None,5945.635971300071,None,,,,,,,,,,,,,,,,,,,,,,,,,,,,,,,,,,,Sing 60,001,2022_Oct_11_1422,ProdSingRedoBetween,2021.2.3,59.92448316333763,
26,0,26,0,,,,,,,,,,,,,,,,,,,,,,,,,,5950.15253750002,None,error,70,27,sing,red,5948.152677800041,None,None,5948.152677800041,None,,,,,,,,,,,,,,,,,,,,,,,,,,,,,,,,,,,Sing 60,001,2022_Oct_11_1422,ProdSingRedoBetween,2021.2.3,59.92448316333763,
27,0,27,0,,,,,,,,,,,,,,,,,,,,,,,,,,5952.655149300117,None,minute,23,28,sing,yellow,5950.653132600011,None,None,5950.653132600011,None,,,,,,,,,,,,,,,,,,,,,,,,,,,,,,,,,,,Sing 60,001,2022_Oct_11_1422,ProdSingRedoBetween,2021.2.3,59.92448316333763,
28,0,28,0,,,,,,,,,,,,,,,,,,,,,,,,,,5955.174168300116,None,youth,16,29,sing,yellow,5953.162684000097,None,None,5953.162684000097,None,,,,,,,,,,,,,,,,,,,,,,,,,,,,,,,,,,,Sing 60,001,2022_Oct_11_1422,ProdSingRedoBetween,2021.2.3,59.92448316333763,
29,0,29,0,,,,,,,,,,,,,,,,,,,,,,,,,,5957.676738600014,None,under,69,30,sing,red,5955.674517300213,None,None,5955.674517300213,None,,,,,,,,,,,,,,,,,,,,,,,,,,,,,,,,,,,Sing 60,001,2022_Oct_11_1422,ProdSingRedoBetween,2021.2.3,59.92448316333763,
30,0,30,0,,,,,,,,,,,,,,,,,,,,,,,,,,5960.195926200133,None,expansion,38,31,sing,blue,5958.181482200045,None,None,5958.181482200045,None,,,,,,,,,,,,,,,,,,,,,,,,,,,,,,,,,,,Sing 60,001,2022_Oct_11_1422,ProdSingRedoBetween,2021.2.3,59.92448316333763,
31,0,31,0,,,,,,,,,,,,,,,,,,,,,,,,,,5962.698372100014,None,travel,3,32,sing,yellow,5960.696366300108,None,None,5960.696366300108,None,,,,,,,,,,,,,,,,,,,,,,,,,,,,,,,,,,,Sing 60,001,2022_Oct_11_1422,ProdSingRedoBetween,2021.2.3,59.92448316333763,
32,0,32,0,,,,,,,,,,,,,,,,,,,,,,,,,,5965.200827000197,None,drama,44,33,sing,blue,5963.2002214000095,None,None,5963.2002214000095,None,,,,,,,,,,,,,,,,,,,,,,,,,,,,,,,,,,,Sing 60,001,2022_Oct_11_1422,ProdSingRedoBetween,2021.2.3,59.92448316333763,
33,0,33,0,,,,,,,,,,,,,,,,,,,,,,,,,,5967.720002999995,None,pattern,28,34,sing,yellow,5965.7060397001915,None,None,5965.7060397001915,None,,,,,,,,,,,,,,,,,,,,,,,,,,,,,,,,,,,Sing 60,001,2022_Oct_11_1422,ProdSingRedoBetween,2021.2.3,59.92448316333763,
34,0,34,0,,,,,,,,,,,,,,,,,,,,,,,,,,5970.222619700013,None,committee,24,35,sing,yellow,5968.220587300137,None,None,5968.220587300137,None,,,,,,,,,,,,,,,,,,,,,,,,,,,,,,,,,,,Sing 60,001,2022_Oct_11_1422,ProdSingRedoBetween,2021.2.3,59.92448316333763,
35,0,35,0,,,,,,,,,,,,,,,,,,,,,,,,,,5972.7416984001175,None,provision,17,36,sing,yellow,5970.729401800083,None,None,5970.729401800083,None,,,,,,,,,,,,,,,,,,,,,,,,,,,,,,,,,,,Sing 60,001,2022_Oct_11_1422,ProdSingRedoBetween,2021.2.3,59.92448316333763,
36,0,36,0,,,,,,,,,,,,,,,,,,,,,,,,,,5975.260908400174,None,region,86,37,sing,red,5973.245612700004,None,None,5973.245612700004,None,,,,,,,,,,,,,,,,,,,,,,,,,,,,,,,,,,,Sing 60,001,2022_Oct_11_1422,ProdSingRedoBetween,2021.2.3,59.92448316333763,
37,0,37,0,,,,,,,,,,,,,,,,,,,,,,,,,,5977.780078200158,None,shock,63,38,sing,red,5975.7700103002135,None,None,5975.7700103002135,None,,,,,,,,,,,,,,,,,,,,,,,,,,,,,,,,,,,Sing 60,001,2022_Oct_11_1422,ProdSingRedoBetween,2021.2.3,59.92448316333763,
38,0,38,0,,,,,,,,,,,,,,,,,,,,,,,,,,5980.282587300055,None,charter,26,39,sing,yellow,5978.28201140021,None,None,5978.28201140021,None,,,,,,,,,,,,,,,,,,,,,,,,,,,,,,,,,,,Sing 60,001,2022_Oct_11_1422,ProdSingRedoBetween,2021.2.3,59.92448316333763,
39,0,39,0,,,,,,,,,,,,,,,,,,,,,,,,,,5982.801855500089,None,sunset,37,40,sing,blue,5980.790222300217,None,None,5980.790222300217,None,,,,,,,,,,,,,,,,,,,,,,,,,,,,,,,,,,,Sing 60,001,2022_Oct_11_1422,ProdSingRedoBetween,2021.2.3,59.92448316333763,
40,0,40,0,,,,,,,,,,,,,,,,,,,,,,,,,,5985.3040690000635,None,music,45,41,sing,blue,5983.302216300042,None,None,5983.302216300042,None,,,,,,,,,,,,,,,,,,,,,,,,,,,,,,,,,,,Sing 60,001,2022_Oct_11_1422,ProdSingRedoBetween,2021.2.3,59.92448316333763,
41,0,41,0,,,,,,,,,,,,,,,,,,,,,,,,,,5987.806777700083,None,store,10,42,sing,yellow,5985.805575300008,None,None,5985.805575300008,None,,,,,,,,,,,,,,,,,,,,,,,,,,,,,,,,,,,Sing 60,001,2022_Oct_11_1422,ProdSingRedoBetween,2021.2.3,59.92448316333763,
42,0,42,0,,,,,,,,,,,,,,,,,,,,,,,,,,5990.325924000004,None,strength,2,43,sing,yellow,5988.316807500087,None,None,5988.316807500087,None,,,,,,,,,,,,,,,,,,,,,,,,,,,,,,,,,,,Sing 60,001,2022_Oct_11_1422,ProdSingRedoBetween,2021.2.3,59.92448316333763,
43,0,43,0,,,,,,,,,,,,,,,,,,,,,,,,,,5992.828578100074,None,colonel,15,44,sing,yellow,5990.826444300124,None,None,5990.826444300124,None,,,,,,,,,,,,,,,,,,,,,,,,,,,,,,,,,,,Sing 60,001,2022_Oct_11_1422,ProdSingRedoBetween,2021.2.3,59.92448316333763,
44,0,44,0,,,,,,,,,,,,,,,,,,,,,,,,,,5995.330937900115,None,plane,4,45,sing,yellow,5993.328956200043,None,None,5993.328956200043,None,,,,,,,,,,,,,,,,,,,,,,,,,,,,,,,,,,,Sing 60,001,2022_Oct_11_1422,ProdSingRedoBetween,2021.2.3,59.92448316333763,
45,0,45,0,,,,,,,,,,,,,,,,,,,,,,,,,,5997.850157900015,None,course,30,46,sing,blue,5995.838094100123,None,None,5995.838094100123,None,,,,,,,,,,,,,,,,,,,,,,,,,,,,,,,,,,,Sing 60,001,2022_Oct_11_1422,ProdSingRedoBetween,2021.2.3,59.92448316333763,
46,0,46,0,,,,,,,,,,,,,,,,,,,,,,,,,,6000.352499900153,None,novel,77,47,sing,red,5998.350409400184,None,None,5998.350409400184,None,,,,,,,,,,,,,,,,,,,,,,,,,,,,,,,,,,,Sing 60,001,2022_Oct_11_1422,ProdSingRedoBetween,2021.2.3,59.92448316333763,
47,0,47,0,,,,,,,,,,,,,,,,,,,,,,,,,,6002.855249300133,None,whole,72,48,sing,red,6000.854097200092,None,None,6000.854097200092,None,,,,,,,,,,,,,,,,,,,,,,,,,,,,,,,,,,,Sing 60,001,2022_Oct_11_1422,ProdSingRedoBetween,2021.2.3,59.92448316333763,
48,0,48,0,,,,,,,,,,,,,,,,,,,,,,,,,,6005.37423870014,None,mayor,60,49,sing,red,6003.360691900132,None,None,6003.360691900132,None,,,,,,,,,,,,,,,,,,,,,,,,,,,,,,,,,,,Sing 60,001,2022_Oct_11_1422,ProdSingRedoBetween,2021.2.3,59.92448316333763,
49,0,49,0,,,,,,,,,,,,,,,,,,,,,,,,,,6007.8768170000985,None,emergency,55,50,sing,blue,6005.874762100168,None,None,6005.874762100168,None,,,,,,,,,,,,,,,,,,,,,,,,,,,,,,,,,,,Sing 60,001,2022_Oct_11_1422,ProdSingRedoBetween,2021.2.3,59.92448316333763,
50,0,50,0,,,,,,,,,,,,,,,,,,,,,,,,,,6010.379196300171,None,agency,1,51,sing,yellow,6008.377875900129,None,None,6008.377875900129,None,,,,,,,,,,,,,,,,,,,,,,,,,,,,,,,,,,,Sing 60,001,2022_Oct_11_1422,ProdSingRedoBetween,2021.2.3,59.92448316333763,
51,0,51,0,,,,,,,,,,,,,,,,,,,,,,,,,,6012.881738000084,None,revolution,39,52,sing,blue,6010.880274000112,None,None,6010.880274000112,None,,,,,,,,,,,,,,,,,,,,,,,,,,,,,,,,,,,Sing 60,001,2022_Oct_11_1422,ProdSingRedoBetween,2021.2.3,59.92448316333763,
52,0,52,0,,,,,,,,,,,,,,,,,,,,,,,,,,6015.385569900041,None,candidate,79,53,sing,red,6013.382897400064,None,None,6013.382897400064,None,,,,,,,,,,,,,,,,,,,,,,,,,,,,,,,,,,,Sing 60,001,2022_Oct_11_1422,ProdSingRedoBetween,2021.2.3,59.92448316333763,
53,0,53,0,,,,,,,,,,,,,,,,,,,,,,,,,,6017.886728700018,None,religion,5,54,sing,yellow,6015.88500710018,None,None,6015.88500710018,None,,,,,,,,,,,,,,,,,,,,,,,,,,,,,,,,,,,Sing 60,001,2022_Oct_11_1422,ProdSingRedoBetween,2021.2.3,59.92448316333763,
54,0,54,0,,,,,,,,,,,,,,,,,,,,,,,,,,6020.38921230007,None,foundation,50,55,sing,blue,6018.388082400197,None,None,6018.388082400197,None,,,,,,,,,,,,,,,,,,,,,,,,,,,,,,,,,,,Sing 60,001,2022_Oct_11_1422,ProdSingRedoBetween,2021.2.3,59.92448316333763,
55,0,55,0,,,,,,,,,,,,,,,,,,,,,,,,,,6022.891701300163,None,nature,80,56,sing,red,6020.889789600158,None,None,6020.889789600158,None,,,,,,,,,,,,,,,,,,,,,,,,,,,,,,,,,,,Sing 60,001,2022_Oct_11_1422,ProdSingRedoBetween,2021.2.3,59.92448316333763,
56,0,56,0,,,,,,,,,,,,,,,,,,,,,,,,,,6025.410857900046,None,motion,76,57,sing,red,6023.395430000033,None,None,6023.395430000033,None,,,,,,,,,,,,,,,,,,,,,,,,,,,,,,,,,,,Sing 60,001,2022_Oct_11_1422,ProdSingRedoBetween,2021.2.3,59.92448316333763,
57,0,57,0,,,,,,,,,,,,,,,,,,,,,,,,,,6027.930123800179,None,detective,0,58,sing,yellow,6025.91622790019,None,None,6025.91622790019,None,,,,,,,,,,,,,,,,,,,,,,,,,,,,,,,,,,,Sing 60,001,2022_Oct_11_1422,ProdSingRedoBetween,2021.2.3,59.92448316333763,
58,0,58,0,,,,,,,,,,,,,,,,,,,,,,,,,,6030.432565000141,None,burden,35,59,sing,blue,6028.430577000137,None,None,6028.430577000137,None,,,,,,,,,,,,,,,,,,,,,,,,,,,,,,,,,,,Sing 60,001,2022_Oct_11_1422,ProdSingRedoBetween,2021.2.3,59.92448316333763,
59,0,59,0,,,,,,,,,,,,,,,,,,,,,,,,,,6032.9351346001495,None,finish,49,60,sing,blue,6030.933133200044,None,None,6030.933133200044,None,,,,,,,,,,,,,,,,,,,,,,,,,,,,,,,,,,,Sing 60,001,2022_Oct_11_1422,ProdSingRedoBetween,2021.2.3,59.92448316333763,
60,0,60,0,,,,,,,,,,,,,,,,,,,,,,,,,,6035.454226700123,None,produce,53,61,sing,blue,6033.440220799996,None,None,6033.440220799996,None,,,,,,,,,,,,,,,,,,,,,,,,,,,,,,,,,,,Sing 60,001,2022_Oct_11_1422,ProdSingRedoBetween,2021.2.3,59.92448316333763,
61,0,61,0,,,,,,,,,,,,,,,,,,,,,,,,,,6037.956768600037,None,thick,33,62,sing,blue,6035.954572100192,None,None,6035.954572100192,None,,,,,,,,,,,,,,,,,,,,,,,,,,,,,,,,,,,Sing 60,001,2022_Oct_11_1422,ProdSingRedoBetween,2021.2.3,59.92448316333763,
62,0,62,0,,,,,,,,,,,,,,,,,,,,,,,,,,6040.476134400116,None,fashion,52,63,sing,blue,6038.460545400158,None,None,6038.460545400158,None,,,,,,,,,,,,,,,,,,,,,,,,,,,,,,,,,,,Sing 60,001,2022_Oct_11_1422,ProdSingRedoBetween,2021.2.3,59.92448316333763,
63,0,63,0,,,,,,,,,,,,,,,,,,,,,,,,,,6042.995074600214,None,welcome,82,64,sing,red,6040.9846729000565,None,None,6040.9846729000565,None,,,,,,,,,,,,,,,,,,,,,,,,,,,,,,,,,,,Sing 60,001,2022_Oct_11_1422,ProdSingRedoBetween,2021.2.3,59.92448316333763,
64,0,64,0,,,,,,,,,,,,,,,,,,,,,,,,,,6045.514535000082,None,write,62,65,sing,red,6043.499950100202,None,None,6043.499950100202,None,,,,,,,,,,,,,,,,,,,,,,,,,,,,,,,,,,,Sing 60,001,2022_Oct_11_1422,ProdSingRedoBetween,2021.2.3,59.92448316333763,
65,0,65,0,,,,,,,,,,,,,,,,,,,,,,,,,,6048.016706400085,None,degree,42,66,sing,blue,6046.017624000087,None,None,6046.017624000087,None,,,,,,,,,,,,,,,,,,,,,,,,,,,,,,,,,,,Sing 60,001,2022_Oct_11_1422,ProdSingRedoBetween,2021.2.3,59.92448316333763,
66,0,66,0,,,,,,,,,,,,,,,,,,,,,,,,,,6050.535953500075,None,union,59,67,sing,yellow,6048.522151800105,None,None,6048.522151800105,None,,,,,,,,,,,,,,,,,,,,,,,,,,,,,,,,,,,Sing 60,001,2022_Oct_11_1422,ProdSingRedoBetween,2021.2.3,59.92448316333763,
67,0,67,0,,,,,,,,,,,,,,,,,,,,,,,,,,6053.038523500087,None,public,31,68,sing,blue,6051.037487100111,None,None,6051.037487100111,None,,,,,,,,,,,,,,,,,,,,,,,,,,,,,,,,,,,Sing 60,001,2022_Oct_11_1422,ProdSingRedoBetween,2021.2.3,59.92448316333763,
68,0,68,0,,,,,,,,,,,,,,,,,,,,,,,,,,6055.557622699998,None,husband,12,69,sing,yellow,6053.545067700092,None,None,6053.545067700092,None,,,,,,,,,,,,,,,,,,,,,,,,,,,,,,,,,,,Sing 60,001,2022_Oct_11_1422,ProdSingRedoBetween,2021.2.3,59.92448316333763,
69,0,69,0,,,,,,,,,,,,,,,,,,,,,,,,,,6058.0601251001935,None,carry,25,70,sing,yellow,6056.059352900134,None,None,6056.059352900134,None,,,,,,,,,,,,,,,,,,,,,,,,,,,,,,,,,,,Sing 60,001,2022_Oct_11_1422,ProdSingRedoBetween,2021.2.3,59.92448316333763,
70,0,70,0,,,,,,,,,,,,,,,,,,,,,,,,,,6060.56267520017,None,prime,83,71,sing,red,6058.5631456000265,None,None,6058.5631456000265,None,,,,,,,,,,,,,,,,,,,,,,,,,,,,,,,,,,,Sing 60,001,2022_Oct_11_1422,ProdSingRedoBetween,2021.2.3,59.92448316333763,
71,0,71,0,,,,,,,,,,,,,,,,,,,,,,,,,,6063.065212600166,None,column,41,72,sing,blue,6061.064803600078,None,None,6061.064803600078,None,,,,,,,,,,,,,,,,,,,,,,,,,,,,,,,,,,,Sing 60,001,2022_Oct_11_1422,ProdSingRedoBetween,2021.2.3,59.92448316333763,
72,0,72,0,,,,,,,,,,,,,,,,,,,,,,,,,,6065.5843431001995,None,block,48,73,sing,blue,6063.5712883002125,None,None,6063.5712883002125,None,,,,,,,,,,,,,,,,,,,,,,,,,,,,,,,,,,,Sing 60,001,2022_Oct_11_1422,ProdSingRedoBetween,2021.2.3,59.92448316333763,
73,0,73,0,,,,,,,,,,,,,,,,,,,,,,,,,,6068.086786600063,None,tough,84,74,sing,red,6066.084842200158,None,None,6066.084842200158,None,,,,,,,,,,,,,,,,,,,,,,,,,,,,,,,,,,,Sing 60,001,2022_Oct_11_1422,ProdSingRedoBetween,2021.2.3,59.92448316333763,
74,0,74,0,,,,,,,,,,,,,,,,,,,,,,,,,,6070.5893503001425,None,answer,65,75,sing,red,6068.587991900044,None,None,6068.587991900044,None,,,,,,,,,,,,,,,,,,,,,,,,,,,,,,,,,,,Sing 60,001,2022_Oct_11_1422,ProdSingRedoBetween,2021.2.3,59.92448316333763,
75,0,75,0,,,,,,,,,,,,,,,,,,,,,,,,,,6073.108196800109,None,salary,75,76,sing,red,6071.098050500033,None,None,6071.098050500033,None,,,,,,,,,,,,,,,,,,,,,,,,,,,,,,,,,,,Sing 60,001,2022_Oct_11_1422,ProdSingRedoBetween,2021.2.3,59.92448316333763,
76,0,76,0,,,,,,,,,,,,,,,,,,,,,,,,,,6075.611064000055,None,meeting,20,77,sing,yellow,6073.610405800166,None,None,6073.610405800166,None,,,,,,,,,,,,,,,,,,,,,,,,,,,,,,,,,,,Sing 60,001,2022_Oct_11_1422,ProdSingRedoBetween,2021.2.3,59.92448316333763,
77,0,77,0,,,,,,,,,,,,,,,,,,,,,,,,,,6078.130046700127,None,spoke,61,78,sing,red,6076.115250900155,None,None,6076.115250900155,None,,,,,,,,,,,,,,,,,,,,,,,,,,,,,,,,,,,Sing 60,001,2022_Oct_11_1422,ProdSingRedoBetween,2021.2.3,59.92448316333763,
78,0,78,0,,,,,,,,,,,,,,,,,,,,,,,,,,6080.632710700156,None,turkey,58,79,sing,blue,6078.633087299997,None,None,6078.633087299997,None,,,,,,,,,,,,,,,,,,,,,,,,,,,,,,,,,,,Sing 60,001,2022_Oct_11_1422,ProdSingRedoBetween,2021.2.3,59.92448316333763,
79,0,79,0,,,,,,,,,,,,,,,,,,,,,,,,,,6083.151823400054,None,question,32,80,sing,blue,6081.142851700075,None,None,6081.142851700075,None,,,,,,,,,,,,,,,,,,,,,,,,,,,,,,,,,,,Sing 60,001,2022_Oct_11_1422,ProdSingRedoBetween,2021.2.3,59.92448316333763,
80,0,80,0,,,,,,,,,,,,,,,,,,,,,,,,,,6085.654361900175,None,career,73,81,sing,red,6083.6531125002075,None,None,6083.6531125002075,None,,,,,,,,,,,,,,,,,,,,,,,,,,,,,,,,,,,Sing 60,001,2022_Oct_11_1422,ProdSingRedoBetween,2021.2.3,59.92448316333763,
81,0,81,0,,,,,,,,,,,,,,,,,,,,,,,,,,6088.156910900027,None,medicine,57,82,sing,blue,6086.156671400182,None,None,6086.156671400182,None,,,,,,,,,,,,,,,,,,,,,,,,,,,,,,,,,,,Sing 60,001,2022_Oct_11_1422,ProdSingRedoBetween,2021.2.3,59.92448316333763,
82,0,82,0,,,,,,,,,,,,,,,,,,,,,,,,,,6090.676101100165,None,narrow,68,83,sing,red,6088.661843900103,None,None,6088.661843900103,None,,,,,,,,,,,,,,,,,,,,,,,,,,,,,,,,,,,Sing 60,001,2022_Oct_11_1422,ProdSingRedoBetween,2021.2.3,59.92448316333763,
83,0,83,0,,,,,,,,,,,,,,,,,,,,,,,,,,6093.178488600068,None,passage,22,84,sing,yellow,6091.176510400139,None,None,6091.176510400139,None,,,,,,,,,,,,,,,,,,,,,,,,,,,,,,,,,,,Sing 60,001,2022_Oct_11_1422,ProdSingRedoBetween,2021.2.3,59.92448316333763,
84,0,84,0,,,,,,,,,,,,,,,,,,,,,,,,,,6095.681053700158,None,debate,29,85,sing,blue,6093.679774300195,None,None,6093.679774300195,None,,,,,,,,,,,,,,,,,,,,,,,,,,,,,,,,,,,Sing 60,001,2022_Oct_11_1422,ProdSingRedoBetween,2021.2.3,59.92448316333763,
85,0,85,0,,,,,,,,,,,,,,,,,,,,,,,,,,6098.2001390000805,None,breath,46,86,sing,blue,6096.184881900204,None,None,6096.184881900204,None,,,,,,,,,,,,,,,,,,,,,,,,,,,,,,,,,,,Sing 60,001,2022_Oct_11_1422,ProdSingRedoBetween,2021.2.3,59.92448316333763,
86,0,86,0,,,,,,,,,,,,,,,,,,,,,,,,,,6100.719419200206,None,junior,9,87,sing,yellow,6098.705697300145,None,None,6098.705697300145,None,,,,,,,,,,,,,,,,,,,,,,,,,,,,,,,,,,,Sing 60,001,2022_Oct_11_1422,ProdSingRedoBetween,2021.2.3,59.92448316333763,
87,0,87,0,,,,,,,,,,,,,,,,,,,,,,,,,,6103.222019100096,None,phrase,6,88,sing,yellow,6101.219842900056,None,None,6101.219842900056,None,,,,,,,,,,,,,,,,,,,,,,,,,,,,,,,,,,,Sing 60,001,2022_Oct_11_1422,ProdSingRedoBetween,2021.2.3,59.92448316333763,
88,0,88,0,,,,,,,,,,,,,,,,,,,,,,,,,,6105.740964099998,None,history,88,89,sing,red,6103.725604800042,None,None,6103.725604800042,None,,,,,,,,,,,,,,,,,,,,,,,,,,,,,,,,,,,Sing 60,001,2022_Oct_11_1422,ProdSingRedoBetween,2021.2.3,59.92448316333763,
89,0,89,0,,,,,,,,,,,,,,,,,,,,,,,,,,6108.260192200076,None,tragedy,51,90,sing,blue,6106.247246700106,None,None,6106.247246700106,None,,,,,,,,,,,,,,,,,,,,,,,,,,,,,,,,,,,Sing 60,001,2022_Oct_11_1422,ProdSingRedoBetween,2021.2.3,59.92448316333763,
,,,,,,,,,,,,,,,,,,,,,,,,,,,,,,,,,,,,,,,,,6108.760923400056,None,k,136.99256410007365,6108.760923400056,None,,,,,,,,,,,,,,,,,,,,,,,,,,,,,Sing 60,001,2022_Oct_11_1422,ProdSingRedoBetween,2021.2.3,59.92448316333763,
,,,,0,0,0,0,,,,,,,,,,,,,,,,,,,,,,6267.769253200153,None,,,,,,,,,,,,,,,,,husband,12,1,sing,old,yellow,6246.304934100015,None,6246.304934100015,None,6,16.76040789997205,6246.304934100015,None,16.76040789997205,6263.087137200171,None,6263.601135500008,None,6263.601135500008,None,f,4.1521057998761535,6263.601135500008,None,4.1521057998761535,,,Sing 60,001,2022_Oct_11_1422,ProdSingRedoBetween,2021.2.3,59.92448316333763,
,,,,1,0,1,0,,,,,,,,,,,,,,,,,,,,,,6275.677169900155,None,,,,,,,,,,,,,,,,,agency,1,2,sing,old,yellow,6268.276231400203,None,6268.276231400203,None,6,4.893272400135174,6268.276231400203,None,4.893272400135174,6273.1914101000875,None,6273.6970871000085,None,6273.6970871000085,None,r,1.960246100090444,6273.6970871000085,None,1.960246100090444,,,Sing 60,001,2022_Oct_11_1422,ProdSingRedoBetween,2021.2.3,59.92448316333763,
,,,,2,0,2,0,,,,,,,,,,,,,,,,,,,,,,6280.648573999992,None,,,,,,,,,,,,,,,,,detective,0,3,sing,old,yellow,6276.1862445001025,None,6276.1862445001025,None,6,2.327043700031936,6276.1862445001025,None,2.327043700031936,6278.531097900122,None,6279.034682200057,None,6279.034682200057,None,r,1.590693100122735,6279.034682200057,None,1.590693100122735,,,Sing 60,001,2022_Oct_11_1422,ProdSingRedoBetween,2021.2.3,59.92448316333763,
,,,,3,0,3,0,,,,,,,,,,,,,,,,,,,,,,6290.226697400212,None,,,,,,,,,,,,,,,,,stand,8,4,sing,old,yellow,6281.151481900131,None,6281.151481900131,None,1,2.7778467999305576,6281.151481900131,None,2.7778467999305576,6283.952799000079,None,6284.456930200104,None,6284.456930200104,None,f,5.744405699893832,6284.456930200104,None,5.744405699893832,,,Sing 60,001,2022_Oct_11_1422,ProdSingRedoBetween,2021.2.3,59.92448316333763,
,,,,4,0,4,0,,,,,,,,,,,,,,,,,,,,,,6295.713815800147,None,,,,,,,,,,,,,,,,,opening,113,5,sing,new,null,6290.742301200051,None,6290.742301200051,None,2,3.4911050000227988,6290.742301200051,None,3.4911050000227988,6294.264997499995,None,6294.783475000178,None,6294.783475000178,None,f,0.9059321999084204,6294.783475000178,None,0.9059321999084204,,,Sing 60,001,2022_Oct_11_1422,ProdSingRedoBetween,2021.2.3,59.92448316333763,
,,,,5,0,5,0,,,,,,,,,,,,,,,,,,,,,,6302.805904700188,None,,,,,,,,,,,,,,,,,angle,92,6,sing,new,null,6296.220087900059,None,6296.220087900059,None,2,3.6852862001396716,6296.220087900059,None,3.6852862001396716,6299.950275800191,None,6300.452570300084,None,6300.452570300084,None,f,2.3328637999948114,6300.452570300084,None,2.3328637999948114,,,Sing 60,001,2022_Oct_11_1422,ProdSingRedoBetween,2021.2.3,59.92448316333763,
,,,,6,0,6,0,,,,,,,,,,,,,,,,,,,,,,6308.79398409999,None,,,,,,,,,,,,,,,,,count,107,7,sing,new,null,6303.322084800107,None,6303.322084800107,None,5,3.559246800141409,6303.322084800107,None,3.559246800141409,6306.9151448002085,None,6307.42822370003,None,6307.42822370003,None,r,1.34906080015935,6307.42822370003,None,1.34906080015935,,,Sing 60,001,2022_Oct_11_1422,ProdSingRedoBetween,2021.2.3,59.92448316333763,
,,,,7,0,7,0,,,,,,,,,,,,,,,,,,,,,,6317.76918120007,None,,,,,,,,,,,,,,,,,junior,9,8,sing,old,yellow,6309.300951300189,None,6309.300951300189,None,2,4.668276300188154,6309.300951300189,None,4.668276300188154,6314.000466700178,None,6314.515773900086,None,6314.515773900086,None,f,3.2294944000896066,6314.515773900086,None,3.2294944000896066,,,Sing 60,001,2022_Oct_11_1422,ProdSingRedoBetween,2021.2.3,59.92448316333763,
,,,,8,0,8,0,,,,,,,,,,,,,,,,,,,,,,6323.192877400201,None,,,,,,,,,,,,,,,,,hunger,170,9,sing,new,null,6318.275796300033,None,6318.275796300033,None,5,3.197816199855879,6318.275796300033,None,3.197816199855879,6321.496041800128,None,6322.006629000185,None,6322.006629000185,None,r,1.1628326999489218,6322.006629000185,None,1.1628326999489218,,,Sing 60,001,2022_Oct_11_1422,ProdSingRedoBetween,2021.2.3,59.92448316333763,
,,,,9,0,9,0,,,,,,,,,,,,,,,,,,,,,,6327.8958748001605,None,,,,,,,,,,,,,,,,,spoke,61,10,sing,old,red,6323.714084100211,None,6323.714084100211,None,1,2.5672292998060584,6323.714084100211,None,2.5672292998060584,6326.317188300192,None,6326.828270300059,None,6326.828270300059,None,f,1.04497340018861,6326.828270300059,None,1.04497340018861,,,Sing 60,001,2022_Oct_11_1422,ProdSingRedoBetween,2021.2.3,59.92448316333763,
,,,,10,0,10,0,,,,,,,,,,,,,,,,,,,,,,6335.937015600037,None,,,,,,,,,,,,,,,,,incident,119,11,sing,new,null,6328.400547600118,None,6328.400547600118,None,4,4.4807029000949115,6328.400547600118,None,4.4807029000949115,6332.902676500147,None,6333.408658700064,None,6333.408658700064,None,f,2.512669099960476,6333.408658700064,None,2.512669099960476,,,Sing 60,001,2022_Oct_11_1422,ProdSingRedoBetween,2021.2.3,59.92448316333763,
,,,,11,0,11,0,,,,,,,,,,,,,,,,,,,,,,6342.727448699996,None,,,,,,,,,,,,,,,,,citizen,118,12,sing,new,null,6336.449183900142,None,6336.449183900142,None,3,4.088040699949488,6336.449183900142,None,4.088040699949488,6340.559920800151,None,6341.063312100014,None,6341.063312100014,None,f,1.633931600023061,6341.063312100014,None,1.633931600023061,,,Sing 60,001,2022_Oct_11_1422,ProdSingRedoBetween,2021.2.3,59.92448316333763,
,,,,12,0,12,0,,,,,,,,,,,,,,,,,,,,,,6350.18474940001,None,,,,,,,,,,,,,,,,,education,166,13,sing,new,null,6343.230901400093,None,6343.230901400093,None,3,4.730517599964514,6343.230901400093,None,4.730517599964514,6347.989404499996,None,6348.502205700148,None,6348.502205700148,None,r,1.6671144999563694,6348.502205700148,None,1.6671144999563694,,,Sing 60,001,2022_Oct_11_1422,ProdSingRedoBetween,2021.2.3,59.92448316333763,
,,,,13,0,13,0,,,,,,,,,,,,,,,,,,,,,,6356.157405100064,None,,,,,,,,,,,,,,,,,theme,89,14,sing,old,red,6350.692266000202,None,6350.692266000202,None,4,3.572924399981275,6350.692266000202,None,3.572924399981275,6354.288640400162,None,6354.793254500022,None,6354.793254500022,None,r,1.343982300022617,6354.793254500022,None,1.343982300022617,,,Sing 60,001,2022_Oct_11_1422,ProdSingRedoBetween,2021.2.3,59.92448316333763,
,,,,14,0,14,0,,,,,,,,,,,,,,,,,,,,,,6360.9621316001285,None,,,,,,,,,,,,,,,,,edition,47,15,sing,old,blue,6356.665100899991,None,6356.665100899991,None,6,2.6800075001083314,6356.665100899991,None,2.6800075001083314,6359.363745700102,None,6359.878460600041,None,6359.878460600041,None,r,1.0668518000748008,6359.878460600041,None,1.0668518000748008,,,Sing 60,001,2022_Oct_11_1422,ProdSingRedoBetween,2021.2.3,59.92448316333763,
,,,,15,0,15,0,,,,,,,,,,,,,,,,,,,,,,6365.283206399996,None,,,,,,,,,,,,,,,,,clear,134,16,sing,new,null,6361.472330000019,None,6361.472330000019,None,1,1.9688546999823302,6361.472330000019,None,1.9688546999823302,6363.466391600203,None,6363.984604099998,None,6363.984604099998,None,f,1.2805526000447571,6363.984604099998,None,1.2805526000447571,,,Sing 60,001,2022_Oct_11_1422,ProdSingRedoBetween,2021.2.3,59.92448316333763,
,,,,16,0,16,0,,,,,,,,,,,,,,,,,,,,,,6373.174325600034,None,,,,,,,,,,,,,,,,,employment,133,17,sing,new,null,6365.787727100076,None,6365.787727100076,None,5,4.525469199987128,6365.787727100076,None,4.525469199987128,6370.339372500079,None,6370.842953500105,None,6370.842953500105,None,r,2.310310399858281,6370.842953500105,None,2.310310399858281,,,Sing 60,001,2022_Oct_11_1422,ProdSingRedoBetween,2021.2.3,59.92448316333763,
,,,,17,0,17,0,,,,,,,,,,,,,,,,,,,,,,6377.012997500133,None,,,,,,,,,,,,,,,,,couch,140,18,sing,new,null,6373.687697400106,None,6373.687697400106,None,1,1.9053513000253588,6373.687697400106,None,1.9053513000253588,6375.611167900031,None,6376.117086200044,None,6376.117086200044,None,f,0.8680765000171959,6376.117086200044,None,0.8680765000171959,,,Sing 60,001,2022_Oct_11_1422,ProdSingRedoBetween,2021.2.3,59.92448316333763,
,,,,18,0,18,0,,,,,,,,,,,,,,,,,,,,,,6381.165738400072,None,,,,,,,,,,,,,,,,,dozen,130,19,sing,new,null,6377.514881500043,None,6377.514881500043,None,1,2.1502284000162035,6377.514881500043,None,2.1502284000162035,6379.681084300159,None,6380.18158380012,None,6380.18158380012,None,f,0.9555964998435229,6380.18158380012,None,0.9555964998435229,,,Sing 60,001,2022_Oct_11_1422,ProdSingRedoBetween,2021.2.3,59.92448316333763,
,,,,19,0,19,0,,,,,,,,,,,,,,,,,,,,,,6386.02057110006,None,,,,,,,,,,,,,,,,,empty,18,20,sing,old,yellow,6381.668003100203,None,6381.668003100203,None,6,2.4372064999770373,6381.668003100203,None,2.4372064999770373,6384.137224300066,None,6384.657638400095,None,6384.657638400095,None,r,1.343564199982211,6384.657638400095,None,1.343564199982211,,,Sing 60,001,2022_Oct_11_1422,ProdSingRedoBetween,2021.2.3,59.92448316333763,
,,,,20,0,20,0,,,,,,,,,,,,,,,,,,,,,,6389.173434600001,None,,,,,,,,,,,,,,,,,emergency,55,21,sing,old,blue,6386.535439700121,None,6386.535439700121,None,6,1.5376621999312192,6386.535439700121,None,1.5376621999312192,6388.090725400019,None,6388.603909500176,None,6388.603909500176,None,r,0.5411296000238508,6388.603909500176,None,0.5411296000238508,,,Sing 60,001,2022_Oct_11_1422,ProdSingRedoBetween,2021.2.3,59.92448316333763,
,,,,21,0,21,0,,,,,,,,,,,,,,,,,,,,,,6394.579060700024,None,,,,,,,,,,,,,,,,,debate,29,22,sing,old,blue,6389.677629800048,None,6389.677629800048,None,2,3.219567999942228,6389.677629800048,None,3.219567999942228,6392.93603620003,None,6393.444758700207,None,6393.444758700207,None,f,1.108388900058344,6393.444758700207,None,1.108388900058344,,,Sing 60,001,2022_Oct_11_1422,ProdSingRedoBetween,2021.2.3,59.92448316333763,
,,,,22,0,22,0,,,,,,,,,,,,,,,,,,,,,,6400.968505800003,None,,,,,,,,,,,,,,,,,resistance,106,23,sing,new,null,6395.091049900046,None,6395.091049900046,None,2,3.598009000066668,6395.091049900046,None,3.598009000066668,6398.7164830002,None,6399.217255800031,None,6399.217255800031,None,f,1.7278908998705447,6399.217255800031,None,1.7278908998705447,,,Sing 60,001,2022_Oct_11_1422,ProdSingRedoBetween,2021.2.3,59.92448316333763,
,,,,23,0,23,0,,,,,,,,,,,,,,,,,,,,,,6407.108374800067,None,,,,,,,,,,,,,,,,,salary,75,24,sing,old,red,6401.471072000219,None,6401.471072000219,None,6,1.858078199904412,6401.471072000219,None,1.858078199904412,6403.355985100148,None,6403.863057800103,None,6403.863057800103,None,r,3.2179785000626,6403.863057800103,None,3.2179785000626,,,Sing 60,001,2022_Oct_11_1422,ProdSingRedoBetween,2021.2.3,59.92448316333763,
,,,,24,0,24,0,,,,,,,,,,,,,,,,,,,,,,6410.5116020001005,None,,,,,,,,,,,,,,,,,region,86,25,sing,old,red,6407.614576100139,None,6407.614576100139,None,6,1.8984852000139654,6407.614576100139,None,1.8984852000139654,6409.544577100081,None,6410.044748600107,None,6410.044748600107,None,r,0.4363484000787139,6410.044748600107,None,0.4363484000787139,,,Sing 60,001,2022_Oct_11_1422,ProdSingRedoBetween,2021.2.3,59.92448316333763,
,,,,25,0,25,0,,,,,,,,,,,,,,,,,,,,,,6413.516154100187,None,,,,,,,,,,,,,,,,,substance,40,26,sing,old,blue,6411.0214286001865,None,6411.0214286001865,None,6,1.6036790001671761,6411.0214286001865,None,1.6036790001671761,6412.64848510013,None,6413.147823400097,None,6413.147823400097,None,r,0.34135100012645125,6413.147823400097,None,0.34135100012645125,,,Sing 60,001,2022_Oct_11_1422,ProdSingRedoBetween,2021.2.3,59.92448316333763,
,,,,26,0,26,0,,,,,,,,,,,,,,,,,,,,,,6420.271375400014,None,,,,,,,,,,,,,,,,,worker,114,27,sing,new,null,6414.019305000082,None,6414.019305000082,None,1,3.9177099000662565,6414.019305000082,None,3.9177099000662565,6417.953733700095,None,6418.453072600067,None,6418.453072600067,None,f,1.788028199924156,6418.453072600067,None,1.788028199924156,,,Sing 60,001,2022_Oct_11_1422,ProdSingRedoBetween,2021.2.3,59.92448316333763,
,,,,27,0,27,0,,,,,,,,,,,,,,,,,,,,,,6430.314759600209,None,,,,,,,,,,,,,,,,,tennis,74,28,sing,old,red,6420.782953600166,None,6420.782953600166,None,2,4.77815130003728,6420.782953600166,None,4.77815130003728,6425.585657700198,None,6426.09400170017,None,6426.09400170017,None,f,4.203058599960059,6426.09400170017,None,4.203058599960059,,,Sing 60,001,2022_Oct_11_1422,ProdSingRedoBetween,2021.2.3,59.92448316333763,
,,,,28,0,28,0,,,,,,,,,,,,,,,,,,,,,,6438.478355600033,None,,,,,,,,,,,,,,,,,speech,100,29,sing,new,null,6430.82588460017,None,6430.82588460017,None,2,5.975059799849987,6430.82588460017,None,5.975059799849987,6436.821278400021,None,6437.327021100093,None,6437.327021100093,None,f,1.122149300063029,6437.327021100093,None,1.122149300063029,,,Sing 60,001,2022_Oct_11_1422,ProdSingRedoBetween,2021.2.3,59.92448316333763,
,,,,29,0,29,0,,,,,,,,,,,,,,,,,,,,,,6444.362082600128,None,,,,,,,,,,,,,,,,,plane,4,30,sing,old,yellow,6438.995239900192,None,6438.995239900192,None,1,2.165701000019908,6438.995239900192,None,2.165701000019908,6441.18161040009,None,6441.696765900124,None,6441.696765900124,None,f,2.640343200182542,6441.696765900124,None,2.640343200182542,,,Sing 60,001,2022_Oct_11_1422,ProdSingRedoBetween,2021.2.3,59.92448316333763,
,,,,30,0,30,0,,,,,,,,,,,,,,,,,,,,,,6453.3709751002025,None,,,,,,,,,,,,,,,,,corner,137,31,sing,new,null,6444.875085200183,None,6444.875085200183,None,4,6.085942900041118,6444.875085200183,None,6.085942900041118,6450.9863582002,None,6451.486022300087,None,6451.486022300087,None,r,1.859039400005713,6451.486022300087,None,1.859039400005713,,,Sing 60,001,2022_Oct_11_1422,ProdSingRedoBetween,2021.2.3,59.92448316333763,
,,,,31,0,31,0,,,,,,,,,,,,,,,,,,,,,,6456.996006300207,None,,,,,,,,,,,,,,,,,executive,105,32,sing,new,null,6453.886368200183,None,6453.886368200183,None,6,2.1546292998827994,6453.886368200183,None,2.1546292998827994,6456.061240500072,None,6456.578235100023,None,6456.578235100023,None,r,0.39092270005494356,6456.578235100023,None,0.39092270005494356,,,Sing 60,001,2022_Oct_11_1422,ProdSingRedoBetween,2021.2.3,59.92448316333763,
,,,,32,0,32,0,,,,,,,,,,,,,,,,,,,,,,6463.004379100166,None,,,,,,,,,,,,,,,,,drove,177,33,sing,new,null,6457.516588700004,None,6457.516588700004,None,1,1.8925361998844892,6457.516588700004,None,1.8925361998844892,6459.430834700121,None,6459.9472253001295,None,6459.9472253001295,None,r,3.0301546999253333,6459.9472253001295,None,3.0301546999253333,,,Sing 60,001,2022_Oct_11_1422,ProdSingRedoBetween,2021.2.3,59.92448316333763,
,,,,33,0,33,0,,,,,,,,,,,,,,,,,,,,,,6469.288466600003,None,,,,,,,,,,,,,,,,,career,73,34,sing,old,red,6463.517994000111,None,6463.517994000111,None,3,3.794933099998161,6463.517994000111,None,3.794933099998161,6467.3360667000525,None,6467.8365278001875,None,6467.8365278001875,None,f,1.4287068999838084,6467.8365278001875,None,1.4287068999838084,,,Sing 60,001,2022_Oct_11_1422,ProdSingRedoBetween,2021.2.3,59.92448316333763,
,,,,34,0,34,0,,,,,,,,,,,,,,,,,,,,,,6475.376042300137,None,,,,,,,,,,,,,,,,,trial,174,35,sing,new,null,6469.807851799997,None,6469.807851799997,None,1,2.089259200030938,6469.807851799997,None,2.089259200030938,6471.925025400007,None,6472.449505900033,None,6472.449505900033,None,f,2.8956220999825746,6472.449505900033,None,2.8956220999825746,,,Sing 60,001,2022_Oct_11_1422,ProdSingRedoBetween,2021.2.3,59.92448316333763,
,,,,35,0,35,0,,,,,,,,,,,,,,,,,,,,,,6482.066308900015,None,,,,,,,,,,,,,,,,,pattern,28,36,sing,old,yellow,6475.886861500097,None,6475.886861500097,None,6,5.298152399947867,6475.886861500097,None,5.298152399947867,6481.219679700211,None,6481.732830299996,None,6481.732830299996,None,r,0.30814719991758466,6481.732830299996,None,0.30814719991758466,,,Sing 60,001,2022_Oct_11_1422,ProdSingRedoBetween,2021.2.3,59.92448316333763,
,,,,36,0,36,0,,,,,,,,,,,,,,,,,,,,,,6491.695045500062,None,,,,,,,,,,,,,,,,,express,163,37,sing,new,null,6482.575901000062,None,6482.575901000062,None,1,5.569047200027853,6482.575901000062,None,5.569047200027853,6488.172349300003,None,6488.675633500097,None,6488.675633500097,None,r,2.9975222998764366,6488.675633500097,None,2.9975222998764366,,,Sing 60,001,2022_Oct_11_1422,ProdSingRedoBetween,2021.2.3,59.92448316333763,
,,,,37,0,37,0,,,,,,,,,,,,,,,,,,,,,,6497.214459200157,None,,,,,,,,,,,,,,,,,block,48,38,sing,old,blue,6492.214096500073,None,6492.214096500073,None,6,3.47486580000259,6492.214096500073,None,3.47486580000259,6495.714606900001,None,6496.2170743001625,None,6496.2170743001625,None,r,0.9758117001038045,6496.2170743001625,None,0.9758117001038045,,,Sing 60,001,2022_Oct_11_1422,ProdSingRedoBetween,2021.2.3,59.92448316333763,
,,,,38,0,38,0,,,,,,,,,,,,,,,,,,,,,,6506.2071076000575,None,,,,,,,,,,,,,,,,,accident,93,39,sing,new,null,6497.726387100061,None,6497.726387100061,None,3,6.850626100087538,6497.726387100061,None,6.850626100087538,6504.610341500025,None,6505.1228632000275,None,6505.1228632000275,None,r,1.062075500143692,6505.1228632000275,None,1.062075500143692,,,Sing 60,001,2022_Oct_11_1422,ProdSingRedoBetween,2021.2.3,59.92448316333763,
,,,,39,0,39,0,,,,,,,,,,,,,,,,,,,,,,6509.710408300161,None,,,,,,,,,,,,,,,,,union,59,40,sing,old,yellow,6506.717416100204,None,6506.717416100204,None,6,1.5876974000129849,6506.717416100204,None,1.5876974000129849,6508.328201200115,None,6508.848666400183,None,6508.848666400183,None,r,0.8322042999789119,6508.848666400183,None,0.8322042999789119,,,Sing 60,001,2022_Oct_11_1422,ProdSingRedoBetween,2021.2.3,59.92448316333763,
,,,,40,0,40,0,,,,,,,,,,,,,,,,,,,,,,6520.522760800086,None,,,,,,,,,,,,,,,,,evidence,178,41,sing,new,null,6510.218610600103,None,6510.218610600103,None,3,6.030207799980417,6510.218610600103,None,6.030207799980417,6516.268383300165,None,6516.7675172002055,None,6516.7675172002055,None,r,3.7374504001345485,6516.7675172002055,None,3.7374504001345485,,,Sing 60,001,2022_Oct_11_1422,ProdSingRedoBetween,2021.2.3,59.92448316333763,
,,,,41,0,41,0,,,,,,,,,,,,,,,,,,,,,,6528.295785000082,None,,,,,,,,,,,,,,,,,guard,143,42,sing,new,null,6521.025055400096,None,6521.025055400096,None,1,2.4000324001535773,6521.025055400096,None,2.4000324001535773,6523.446015600115,None,6523.960808400065,None,6523.960808400065,None,f,4.320083900121972,6523.960808400065,None,4.320083900121972,,,Sing 60,001,2022_Oct_11_1422,ProdSingRedoBetween,2021.2.3,59.92448316333763,
,,,,42,0,42,0,,,,,,,,,,,,,,,,,,,,,,6531.599096100079,None,,,,,,,,,,,,,,,,,pancakes,162,43,sing,new,null,6528.805457000155,None,6528.805457000155,None,1,1.8355081998743117,6528.805457000155,None,1.8355081998743117,6530.676327300025,None,6531.187185800169,None,6531.187185800169,None,r,0.3817473999224603,6531.187185800169,None,0.3817473999224603,,,Sing 60,001,2022_Oct_11_1422,ProdSingRedoBetween,2021.2.3,59.92448316333763,
,,,,43,0,43,0,,,,,,,,,,,,,,,,,,,,,,6539.172993400134,None,,,,,,,,,,,,,,,,,carry,25,44,sing,old,yellow,6532.102124100085,None,6532.102124100085,None,5,5.330967899877578,6532.102124100085,None,5.330967899877578,6537.460173800122,None,6537.975331900176,None,6537.975331900176,None,r,1.17746670008637,6537.975331900176,None,1.17746670008637,,,Sing 60,001,2022_Oct_11_1422,ProdSingRedoBetween,2021.2.3,59.92448316333763,
,,,,44,0,44,0,,,,,,,,,,,,,,,,,,,,,,6548.032055900199,None,,,,,,,,,,,,,,,,,strength,2,45,sing,old,yellow,6539.673910000129,None,6539.673910000129,None,3,5.247006400022656,6539.673910000129,None,5.247006400022656,6544.95335130021,None,6545.46295950003,None,6545.46295950003,None,f,2.553889899980277,6545.46295950003,None,2.553889899980277,,,Sing 60,001,2022_Oct_11_1422,ProdSingRedoBetween,2021.2.3,59.92448316333763,
,,,,45,0,45,0,,,,,,,,,,,,,,,,,,,,,,6557.5084192000795,None,,,,,,,,,,,,,,,,,enemy,176,46,sing,new,null,6548.541323300218,None,6548.541323300218,None,1,5.8515737999696285,6548.541323300218,None,5.8515737999696285,6554.426168400096,None,6554.939048800152,None,6554.939048800152,None,f,2.541840799851343,6554.939048800152,None,2.541840799851343,,,Sing 60,001,2022_Oct_11_1422,ProdSingRedoBetween,2021.2.3,59.92448316333763,
,,,,46,0,46,0,,,,,,,,,,,,,,,,,,,,,,6564.281652200036,None,,,,,,,,,,,,,,,,,sound,96,47,sing,new,null,6558.016321500065,None,6558.016321500065,None,4,4.048593699932098,6558.016321500065,None,4.048593699932098,6562.098023200175,None,6562.6133908000775,None,6562.6133908000775,None,r,1.6434514001011848,6562.6133908000775,None,1.6434514001011848,,,Sing 60,001,2022_Oct_11_1422,ProdSingRedoBetween,2021.2.3,59.92448316333763,
,,,,47,0,47,0,,,,,,,,,,,,,,,,,,,,,,6575.993366200011,None,,,,,,,,,,,,,,,,,school,167,48,sing,new,null,6564.79150920012,None,6564.79150920012,None,1,6.0093125000130385,6564.79150920012,None,6.0093125000130385,6570.822833599988,None,6571.326544500189,None,6571.326544500189,None,r,4.650283599970862,6571.326544500189,None,4.650283599970862,,,Sing 60,001,2022_Oct_11_1422,ProdSingRedoBetween,2021.2.3,59.92448316333763,
,,,,48,0,48,0,,,,,,,,,,,,,,,,,,,,,,6579.73016370018,None,,,,,,,,,,,,,,,,,thick,33,49,sing,old,blue,6576.502672700211,None,6576.502672700211,None,6,1.842388299992308,6576.502672700211,None,1.842388299992308,6578.373209699988,None,6578.8831253000535,None,6578.8831253000535,None,r,0.8217122999485582,6578.8831253000535,None,0.8217122999485582,,,Sing 60,001,2022_Oct_11_1422,ProdSingRedoBetween,2021.2.3,59.92448316333763,
,,,,49,0,49,0,,,,,,,,,,,,,,,,,,,,,,6590.090670400066,None,,,,,,,,,,,,,,,,,touch,112,50,sing,new,null,6580.240157800028,None,6580.240157800028,None,2,3.74476379994303,6580.240157800028,None,3.74476379994303,6584.007110600127,None,6584.5227221001405,None,6584.5227221001405,None,r,5.55007870006375,6584.5227221001405,None,5.55007870006375,,,Sing 60,001,2022_Oct_11_1422,ProdSingRedoBetween,2021.2.3,59.92448316333763,
,,,,50,0,50,0,,,,,,,,,,,,,,,,,,,,,,6600.567877400201,None,,,,,,,,,,,,,,,,,order,81,51,sing,old,red,6590.591521200025,None,6590.591521200025,None,4,5.601241399999708,6590.591521200025,None,5.601241399999708,6596.214514699997,None,6596.71407960006,None,6596.71407960006,None,r,3.8386901000048965,6596.71407960006,None,3.8386901000048965,,,Sing 60,001,2022_Oct_11_1422,ProdSingRedoBetween,2021.2.3,59.92448316333763,
,,,,51,0,51,0,,,,,,,,,,,,,,,,,,,,,,6606.0399238001555,None,,,,,,,,,,,,,,,,,title,104,52,sing,new,null,6601.077848700108,None,6601.077848700108,None,1,1.9148865998722613,6601.077848700108,None,1.9148865998722613,6603.0231847001705,None,6603.537594099995,None,6603.537594099995,None,f,2.487164500169456,6603.537594099995,None,2.487164500169456,,,Sing 60,001,2022_Oct_11_1422,ProdSingRedoBetween,2021.2.3,59.92448316333763,
,,,,52,0,52,0,,,,,,,,,,,,,,,,,,,,,,6614.91544680018,None,,,,,,,,,,,,,,,,,figure,169,53,sing,new,null,6606.548109700205,None,6606.548109700205,None,1,4.436611199984327,6606.548109700205,None,4.436611199984327,6611.012442500098,None,6611.512346400181,None,6611.512346400181,None,f,3.3843835999723524,6611.512346400181,None,3.3843835999723524,,,Sing 60,001,2022_Oct_11_1422,ProdSingRedoBetween,2021.2.3,59.92448316333763,
,,,,53,0,53,0,,,,,,,,,,,,,,,,,,,,,,6619.336513500195,None,,,,,,,,,,,,,,,,,store,10,54,sing,old,yellow,6615.434928200208,None,6615.434928200208,None,6,2.453708800021559,6615.434928200208,None,2.453708800021559,6617.9235336000565,None,6618.435783200199,None,6618.435783200199,None,r,0.8769801000598818,6618.435783200199,None,0.8769801000598818,,,Sing 60,001,2022_Oct_11_1422,ProdSingRedoBetween,2021.2.3,59.92448316333763,
,,,,54,0,54,0,,,,,,,,,,,,,,,,,,,,,,6622.022554800147,None,,,,,,,,,,,,,,,,,colonel,15,55,sing,old,yellow,6619.839054400101,None,6619.839054400101,None,6,1.2336913999170065,6619.839054400101,None,1.2336913999170065,6621.091792300111,None,6621.605517100077,None,6621.605517100077,None,r,0.38720780005678535,6621.605517100077,None,0.38720780005678535,,,Sing 60,001,2022_Oct_11_1422,ProdSingRedoBetween,2021.2.3,59.92448316333763,
,,,,55,0,55,0,,,,,,,,,,,,,,,,,,,,,,6624.793766400078,None,,,,,,,,,,,,,,,,,quarter,78,56,sing,old,red,6622.536363100167,None,6622.536363100167,None,6,1.2483685000333935,6622.536363100167,None,1.2483685000333935,6623.8089070999995,None,6624.308782300213,None,6624.308782300213,None,r,0.4599834999535233,6624.308782300213,None,0.4599834999535233,,,Sing 60,001,2022_Oct_11_1422,ProdSingRedoBetween,2021.2.3,59.92448316333763,
,,,,56,0,56,0,,,,,,,,,,,,,,,,,,,,,,6632.5330097000115,None,,,,,,,,,,,,,,,,,shock,63,57,sing,old,red,6625.32008580002,None,6625.32008580002,None,5,6.232845999998972,6625.32008580002,None,6.232845999998972,6631.590983600123,None,6632.1027948001865,None,6632.1027948001865,None,r,0.40988209983333945,6632.1027948001865,None,0.40988209983333945,,,Sing 60,001,2022_Oct_11_1422,ProdSingRedoBetween,2021.2.3,59.92448316333763,
,,,,57,0,57,0,,,,,,,,,,,,,,,,,,,,,,6636.005249500042,None,,,,,,,,,,,,,,,,,character,90,58,sing,new,null,6633.038727900013,None,6633.038727900013,None,6,1.5540631997864693,6633.038727900013,None,1.5540631997864693,6634.6270246000495,None,6635.135772000067,None,6635.135772000067,None,r,0.848988100187853,6635.135772000067,None,0.848988100187853,,,Sing 60,001,2022_Oct_11_1422,ProdSingRedoBetween,2021.2.3,59.92448316333763,
,,,,58,0,58,0,,,,,,,,,,,,,,,,,,,,,,6640.308399100089,None,,,,,,,,,,,,,,,,,novel,77,59,sing,old,red,6636.52400980005,None,6636.52400980005,None,6,2.956650999840349,6636.52400980005,None,2.956650999840349,6639.508798300056,None,6640.027774100192,None,6640.027774100192,None,r,0.2609302999917418,6640.027774100192,None,0.2609302999917418,,,Sing 60,001,2022_Oct_11_1422,ProdSingRedoBetween,2021.2.3,59.92448316333763,
,,,,59,0,59,0,,,,,,,,,,,,,,,,,,,,,,6642.8774567001965,None,,,,,,,,,,,,,,,,,course,30,60,sing,old,blue,6640.818223300157,None,6640.818223300157,None,6,1.214448699960485,6640.818223300157,None,1.214448699960485,6642.061811600113,None,6642.576444400009,None,6642.576444400009,None,r,0.27236289996653795,6642.576444400009,None,0.27236289996653795,,,Sing 60,001,2022_Oct_11_1422,ProdSingRedoBetween,2021.2.3,59.92448316333763,
,,,,60,0,60,0,,,,,,,,,,,,,,,,,,,,,,6649.316422200063,None,,,,,,,,,,,,,,,,,mayor,60,61,sing,old,red,6643.384103700053,None,6643.384103700053,None,1,4.088616499910131,6643.384103700053,None,4.088616499910131,6647.5052120001055,None,6648.015225500101,None,6648.015225500101,None,f,1.2814832001458853,6648.015225500101,None,1.2814832001458853,,,Sing 60,001,2022_Oct_11_1422,ProdSingRedoBetween,2021.2.3,59.92448316333763,
,,,,61,0,61,0,,,,,,,,,,,,,,,,,,,,,,6655.775506100152,None,,,,,,,,,,,,,,,,,broad,111,62,sing,new,null,6649.82279100013,None,6649.82279100013,None,2,4.2421538000926375,6649.82279100013,None,4.2421538000926375,6654.088901700219,None,6654.591668900102,None,6654.591668900102,None,f,1.1610869001597166,6654.591668900102,None,1.1610869001597166,,,Sing 60,001,2022_Oct_11_1422,ProdSingRedoBetween,2021.2.3,59.92448316333763,
,,,,62,0,62,0,,,,,,,,,,,,,,,,,,,,,,6660.494233500212,None,,,,,,,,,,,,,,,,,under,69,63,sing,old,red,6656.290705600055,None,6656.290705600055,None,1,2.941859900020063,6656.290705600055,None,2.941859900020063,6659.263756000204,None,6659.776907500112,None,6659.776907500112,None,f,0.6957640000618994,6659.776907500112,None,0.6957640000618994,,,Sing 60,001,2022_Oct_11_1422,ProdSingRedoBetween,2021.2.3,59.92448316333763,
,,,,63,0,63,0,,,,,,,,,,,,,,,,,,,,,,6665.41581330006,None,,,,,,,,,,,,,,,,,community,150,64,sing,new,null,6661.0056509000715,None,6661.0056509000715,None,6,2.89898129994981,6661.0056509000715,None,2.89898129994981,6663.936946700094,None,6664.4483353002,None,6664.4483353002,None,r,0.9523588998708874,6664.4483353002,None,0.9523588998708874,,,Sing 60,001,2022_Oct_11_1422,ProdSingRedoBetween,2021.2.3,59.92448316333763,
,,,,64,0,64,0,,,,,,,,,,,,,,,,,,,,,,6669.736838600133,None,,,,,,,,,,,,,,,,,match,56,65,sing,old,blue,6665.918075300055,None,6665.918075300055,None,5,2.8985943999141455,6665.918075300055,None,2.8985943999141455,6668.8366545001045,None,6669.336277500028,None,6669.336277500028,None,r,0.37657060008496046,6669.336277500028,None,0.37657060008496046,,,Sing 60,001,2022_Oct_11_1422,ProdSingRedoBetween,2021.2.3,59.92448316333763,
,,,,65,0,65,0,,,,,,,,,,,,,,,,,,,,,,6675.809550500009,None,,,,,,,,,,,,,,,,,passage,22,66,sing,old,yellow,6670.240092900116,None,6670.240092900116,None,1,3.6565072000958025,6670.240092900116,None,3.6565072000958025,6673.92546090018,None,6674.430775200017,None,6674.430775200017,None,f,1.3538953999523073,6674.430775200017,None,1.3538953999523073,,,Sing 60,001,2022_Oct_11_1422,ProdSingRedoBetween,2021.2.3,59.92448316333763,
,,,,66,0,66,0,,,,,,,,,,,,,,,,,,,,,,6678.9626608002,None,,,,,,,,,,,,,,,,,tough,84,67,sing,old,red,6676.3161551000085,None,6676.3161551000085,None,6,1.7245007001329213,6676.3161551000085,None,1.7245007001329213,6678.061733600218,None,6678.562299600104,None,6678.562299600104,None,r,0.37446429999545217,6678.562299600104,None,0.37446429999545217,,,Sing 60,001,2022_Oct_11_1422,ProdSingRedoBetween,2021.2.3,59.92448316333763,
,,,,67,0,67,0,,,,,,,,,,,,,,,,,,,,,,6682.2156419001985,None,,,,,,,,,,,,,,,,,individual,43,68,sing,old,blue,6679.474355500191,None,6679.474355500191,None,6,1.6383281000889838,6679.474355500191,None,1.6383281000889838,6681.134792300174,None,6681.648908100091,None,6681.648908100091,None,r,0.5357407000847161,6681.648908100091,None,0.5357407000847161,,,Sing 60,001,2022_Oct_11_1422,ProdSingRedoBetween,2021.2.3,59.92448316333763,
,,,,68,0,68,0,,,,,,,,,,,,,,,,,,,,,,6688.071497500176,None,,,,,,,,,,,,,,,,,heavy,155,69,sing,new,null,6682.731417500181,None,6682.731417500181,None,3,3.2611573999747634,6682.731417500181,None,3.2611573999747634,6686.023312500212,None,6686.54078840022,None,6686.54078840022,None,f,1.515899799996987,6686.54078840022,None,1.515899799996987,,,Sing 60,001,2022_Oct_11_1422,ProdSingRedoBetween,2021.2.3,59.92448316333763,
,,,,69,0,69,0,,,,,,,,,,,,,,,,,,,,,,6692.593739800155,None,,,,,,,,,,,,,,,,,minute,23,70,sing,old,yellow,6688.575599600095,None,6688.575599600095,None,6,3.0490498999133706,6688.575599600095,None,3.0490498999133706,6691.647170000011,None,6692.159295800142,None,6692.159295800142,None,r,0.41744229989126325,6692.159295800142,None,0.41744229989126325,,,Sing 60,001,2022_Oct_11_1422,ProdSingRedoBetween,2021.2.3,59.92448316333763,
,,,,70,0,70,0,,,,,,,,,,,,,,,,,,,,,,6695.2287993000355,None,,,,,,,,,,,,,,,,,produce,53,71,sing,old,blue,6693.101131300209,None,6693.101131300209,None,6,1.2595117001328617,6693.101131300209,None,1.2595117001328617,6694.379266300006,None,6694.878762400011,None,6694.878762400011,None,r,0.3218654999509454,6694.878762400011,None,0.3218654999509454,,,Sing 60,001,2022_Oct_11_1422,ProdSingRedoBetween,2021.2.3,59.92448316333763,
,,,,71,0,71,0,,,,,,,,,,,,,,,,,,,,,,6705.274024600163,None,,,,,,,,,,,,,,,,,staff,123,72,sing,new,null,6695.740717100212,None,6695.740717100212,None,2,7.187846299959347,6695.740717100212,None,7.187846299959347,6702.954563800013,None,6703.459513000213,None,6703.459513000213,None,f,1.7891784000676125,6703.459513000213,None,1.7891784000676125,,,Sing 60,001,2022_Oct_11_1422,ProdSingRedoBetween,2021.2.3,59.92448316333763,
,,,,72,0,72,0,,,,,,,,,,,,,,,,,,,,,,6712.164181600092,None,,,,,,,,,,,,,,,,,subject,71,73,sing,old,red,6705.791961600073,None,6705.791961600073,None,6,4.024562599835917,6705.791961600073,None,4.024562599835917,6709.845744000049,None,6710.371132500004,None,6710.371132500004,None,r,1.7734270000364631,6710.371132500004,None,1.7734270000364631,,,Sing 60,001,2022_Oct_11_1422,ProdSingRedoBetween,2021.2.3,59.92448316333763,
,,,,73,0,73,0,,,,,,,,,,,,,,,,,,,,,,6716.283139600186,None,,,,,,,,,,,,,,,,,bicycle,109,74,sing,new,null,6712.686017100001,None,6712.686017100001,None,1,1.8105799998156726,6712.686017100001,None,1.8105799998156726,6714.516234700102,None,6715.019527200144,None,6715.019527200144,None,f,1.236952500184998,6715.019527200144,None,1.236952500184998,,,Sing 60,001,2022_Oct_11_1422,ProdSingRedoBetween,2021.2.3,59.92448316333763,
,,,,74,0,74,0,,,,,,,,,,,,,,,,,,,,,,6723.874870200176,None,,,,,,,,,,,,,,,,,short,131,75,sing,new,null,6716.790362300118,None,6716.790362300118,None,3,4.074147500097752,6716.790362300118,None,4.074147500097752,6720.888841900043,None,6721.388476300053,None,6721.388476300053,None,f,2.460138800088316,6721.388476300053,None,2.460138800088316,,,Sing 60,001,2022_Oct_11_1422,ProdSingRedoBetween,2021.2.3,59.92448316333763,
,,,,75,0,75,0,,,,,,,,,,,,,,,,,,,,,,6728.211821600096,None,,,,,,,,,,,,,,,,,brilliant,108,76,sing,new,null,6724.377669500187,None,6724.377669500187,None,1,1.5910684999544173,6724.377669500187,None,1.5910684999544173,6725.997679700144,None,6726.513865899993,None,6726.513865899993,None,f,1.6787089998833835,6726.513865899993,None,1.6787089998833835,,,Sing 60,001,2022_Oct_11_1422,ProdSingRedoBetween,2021.2.3,59.92448316333763,
,,,,76,0,76,0,,,,,,,,,,,,,,,,,,,,,,6732.015566100134,None,,,,,,,,,,,,,,,,,safety,179,77,sing,new,null,6728.715991300065,None,6728.715991300065,None,6,1.9805496998596936,6728.715991300065,None,1.9805496998596936,6730.7213826000225,None,6731.233815800166,None,6731.233815800166,None,r,0.7507805998902768,6731.233815800166,None,0.7507805998902768,,,Sing 60,001,2022_Oct_11_1422,ProdSingRedoBetween,2021.2.3,59.92448316333763,
,,,,77,0,77,0,,,,,,,,,,,,,,,,,,,,,,6738.288814000087,None,,,,,,,,,,,,,,,,,fight,132,78,sing,new,null,6732.524894700153,None,6732.524894700153,None,1,2.803689599968493,6732.524894700153,None,2.803689599968493,6735.351974199992,None,6735.859621800017,None,6735.859621800017,None,f,2.4048564999829978,6735.859621800017,None,2.4048564999829978,,,Sing 60,001,2022_Oct_11_1422,ProdSingRedoBetween,2021.2.3,59.92448316333763,
,,,,78,0,78,0,,,,,,,,,,,,,,,,,,,,,,6749.382826100104,None,,,,,,,,,,,,,,,,,session,139,79,sing,new,null,6738.790766700171,None,6738.790766700171,None,2,7.097765400074422,6738.790766700171,None,7.097765400074422,6745.915904400172,None,6746.4341571000405,None,6746.4341571000405,None,f,2.9182504999917,6746.4341571000405,None,2.9182504999917,,,Sing 60,001,2022_Oct_11_1422,ProdSingRedoBetween,2021.2.3,59.92448316333763,
,,,,79,0,79,0,,,,,,,,,,,,,,,,,,,,,,6757.924831200158,None,,,,,,,,,,,,,,,,,gesture,165,80,sing,new,null,6749.883565200027,None,6749.883565200027,None,1,2.5569790999870747,6749.883565200027,None,2.5569790999870747,6752.470542400144,None,6752.969863600098,None,6752.969863600098,None,f,4.9346468998119235,6752.969863600098,None,4.9346468998119235,,,Sing 60,001,2022_Oct_11_1422,ProdSingRedoBetween,2021.2.3,59.92448316333763,
,,,,80,0,80,0,,,,,,,,,,,,,,,,,,,,,,6766.516728200018,None,,,,,,,,,,,,,,,,,state,115,81,sing,new,null,6758.434704100015,None,6758.434704100015,None,3,3.029777599964291,6758.434704100015,None,3.029777599964291,6761.497205400141,None,6762.014101100154,None,6762.014101100154,None,r,4.474425100022927,6762.014101100154,None,4.474425100022927,,,Sing 60,001,2022_Oct_11_1422,ProdSingRedoBetween,2021.2.3,59.92448316333763,
,,,,81,0,81,0,,,,,,,,,,,,,,,,,,,,,,6769.304318000097,None,,,,,,,,,,,,,,,,,committee,24,82,sing,old,yellow,6767.02521140012,None,6767.02521140012,None,6,1.4552964998874813,6767.02521140012,None,1.4552964998874813,6768.502929000184,None,6769.005109800026,None,6769.005109800026,None,r,0.26746720005758107,6769.005109800026,None,0.26746720005758107,,,Sing 60,001,2022_Oct_11_1422,ProdSingRedoBetween,2021.2.3,59.92448316333763,
,,,,82,0,82,0,,,,,,,,,,,,,,,,,,,,,,6776.576649200171,None,,,,,,,,,,,,,,,,,comedy,116,83,sing,new,null,6769.821977200219,None,6769.821977200219,None,6,5.914564799983054,6769.821977200219,None,5.914564799983054,6775.766282099998,None,6776.276532500051,None,6776.276532500051,None,r,0.28408479993231595,6776.276532500051,None,0.28408479993231595,,,Sing 60,001,2022_Oct_11_1422,ProdSingRedoBetween,2021.2.3,59.92448316333763,
,,,,83,0,83,0,,,,,,,,,,,,,,,,,,,,,,6781.097653800156,None,,,,,,,,,,,,,,,,,story,136,84,sing,new,null,6777.081533899996,None,6777.081533899996,None,1,2.3508822999428958,6777.081533899996,None,2.3508822999428958,6779.465376700042,None,6779.980234700022,None,6779.980234700022,None,f,1.0922573001589626,6779.980234700022,None,1.0922573001589626,,,Sing 60,001,2022_Oct_11_1422,ProdSingRedoBetween,2021.2.3,59.92448316333763,
,,,,84,0,84,0,,,,,,,,,,,,,,,,,,,,,,6783.750579700107,None,,,,,,,,,,,,,,,,,fashion,52,85,sing,old,blue,6781.6058058000635,None,6781.6058058000635,None,6,1.3227047000546008,6781.6058058000635,None,1.3227047000546008,6782.954320500139,None,6783.468003300019,None,6783.468003300019,None,r,0.26043349993415177,6783.468003300019,None,0.26043349993415177,,,Sing 60,001,2022_Oct_11_1422,ProdSingRedoBetween,2021.2.3,59.92448316333763,
,,,,85,0,85,0,,,,,,,,,,,,,,,,,,,,,,6787.9712269001175,None,,,,,,,,,,,,,,,,,swift,85,86,sing,old,red,6784.260441000108,None,6784.260441000108,None,6,2.4840105001349,6784.260441000108,None,2.4840105001349,6786.776148400037,None,6787.287522400031,None,6787.287522400031,None,r,0.6650554002262652,6787.287522400031,None,0.6650554002262652,,,Sing 60,001,2022_Oct_11_1422,ProdSingRedoBetween,2021.2.3,59.92448316333763,
,,,,86,0,86,0,,,,,,,,,,,,,,,,,,,,,,6791.141261200188,None,,,,,,,,,,,,,,,,,revolution,39,87,sing,old,blue,6788.475046400214,None,6788.475046400214,None,6,1.749472700059414,6788.475046400214,None,1.749472700059414,6790.2477804000955,None,6790.761615700088,None,6790.761615700088,None,r,0.35888869990594685,6790.761615700088,None,0.35888869990594685,,,Sing 60,001,2022_Oct_11_1422,ProdSingRedoBetween,2021.2.3,59.92448316333763,
,,,,87,0,87,0,,,,,,,,,,,,,,,,,,,,,,6798.949008700205,None,,,,,,,,,,,,,,,,,master,146,88,sing,new,null,6791.642126700142,None,6791.642126700142,None,1,4.574302700115368,6791.642126700142,None,4.574302700115368,6796.249046500074,None,6796.770012699999,None,6796.770012699999,None,f,2.1586454999633133,6796.770012699999,None,2.1586454999633133,,,Sing 60,001,2022_Oct_11_1422,ProdSingRedoBetween,2021.2.3,59.92448316333763,
,,,,88,0,88,0,,,,,,,,,,,,,,,,,,,,,,6801.451474600006,None,,,,,,,,,,,,,,,,,turkey,58,89,sing,old,blue,6799.452013200149,None,6799.452013200149,None,6,1.1245209998451173,6799.452013200149,None,1.1245209998451173,6800.602236700011,None,6801.105835200055,None,6801.105835200055,None,r,0.32679670001380146,6801.105835200055,None,0.32679670001380146,,,Sing 60,001,2022_Oct_11_1422,ProdSingRedoBetween,2021.2.3,59.92448316333763,
,,,,89,0,89,0,,,,,,,,,,,,,,,,,,,,,,6803.939459800022,None,,,,,,,,,,,,,,,,,finish,49,90,sing,old,blue,6801.956518500112,None,6801.956518500112,None,6,1.1159385000355542,6801.956518500112,None,1.1159385000355542,6803.106440000003,None,6803.6268838001415,None,6803.6268838001415,None,r,0.28554189996793866,6803.6268838001415,None,0.28554189996793866,,,Sing 60,001,2022_Oct_11_1422,ProdSingRedoBetween,2021.2.3,59.92448316333763,
,,,,90,0,90,0,,,,,,,,,,,,,,,,,,,,,,6809.744263800094,None,,,,,,,,,,,,,,,,,trend,102,91,sing,new,null,6804.462282499997,None,6804.462282499997,None,1,4.1461616000160575,6804.462282499997,None,4.1461616000160575,6808.630896800198,None,6809.142323500011,None,6809.142323500011,None,f,0.5700511999893934,6809.142323500011,None,0.5700511999893934,,,Sing 60,001,2022_Oct_11_1422,ProdSingRedoBetween,2021.2.3,59.92448316333763,
,,,,91,0,91,0,,,,,,,,,,,,,,,,,,,,,,6813.6470236000605,None,,,,,,,,,,,,,,,,,strain,126,92,sing,new,null,6810.2549658000935,None,6810.2549658000935,None,1,1.9773828000761569,6810.2549658000935,None,1.9773828000761569,6812.26317320019,None,6812.769750900101,None,6812.769750900101,None,f,0.8546490001026541,6812.769750900101,None,0.8546490001026541,,,Sing 60,001,2022_Oct_11_1422,ProdSingRedoBetween,2021.2.3,59.92448316333763,
,,,,92,0,92,0,,,,,,,,,,,,,,,,,,,,,,6819.485894700047,None,,,,,,,,,,,,,,,,,whole,72,93,sing,old,red,6814.1501537000295,None,6814.1501537000295,None,6,4.098180999979377,6814.1501537000295,None,4.098180999979377,6818.270162300207,None,6818.7854055000935,None,6818.7854055000935,None,r,0.6710351000074297,6818.7854055000935,None,0.6710351000074297,,,Sing 60,001,2022_Oct_11_1422,ProdSingRedoBetween,2021.2.3,59.92448316333763,
,,,,93,0,93,0,,,,,,,,,,,,,,,,,,,,,,6824.92485070019,None,,,,,,,,,,,,,,,,,threat,153,94,sing,new,null,6819.992744800169,None,6819.992744800169,None,4,3.591646500164643,6819.992744800169,None,3.591646500164643,6823.607010600157,None,6824.1101878001355,None,6824.1101878001355,None,r,0.7941982999909669,6824.1101878001355,None,0.7941982999909669,,,Sing 60,001,2022_Oct_11_1422,ProdSingRedoBetween,2021.2.3,59.92448316333763,
,,,,94,0,94,0,,,,,,,,,,,,,,,,,,,,,,6830.680687700165,None,,,,,,,,,,,,,,,,,problem,129,95,sing,new,null,6825.431674400112,None,6825.431674400112,None,5,4.37673190003261,6825.431674400112,None,4.37673190003261,6829.830139200203,None,6830.33042530017,None,6830.33042530017,None,r,0.3259994999971241,6830.33042530017,None,0.3259994999971241,,,Sing 60,001,2022_Oct_11_1422,ProdSingRedoBetween,2021.2.3,59.92448316333763,
,,,,95,0,95,0,,,,,,,,,,,,,,,,,,,,,,6834.1849766001105,None,,,,,,,,,,,,,,,,,curve,148,96,sing,new,null,6831.189945100108,None,6831.189945100108,None,1,1.7385529999155551,6831.189945100108,None,1.7385529999155551,6832.962356100092,None,6833.466909100069,None,6833.466909100069,None,f,0.6855109999887645,6833.466909100069,None,0.6855109999887645,,,Sing 60,001,2022_Oct_11_1422,ProdSingRedoBetween,2021.2.3,59.92448316333763,
,,,,96,0,96,0,,,,,,,,,,,,,,,,,,,,,,6844.427672900027,None,,,,,,,,,,,,,,,,,religion,5,97,sing,old,yellow,6834.688691500109,None,6834.688691500109,None,4,6.407588199945167,6834.688691500109,None,6.407588199945167,6841.12464880012,None,6841.624705800088,None,6841.624705800088,None,r,2.775671999901533,6841.624705800088,None,2.775671999901533,,,Sing 60,001,2022_Oct_11_1422,ProdSingRedoBetween,2021.2.3,59.92448316333763,
,,,,97,0,97,0,,,,,,,,,,,,,,,,,,,,,,6848.648599100066,None,,,,,,,,,,,,,,,,,close,156,98,sing,new,null,6844.9335696999915,None,6844.9335696999915,None,1,1.8188101002015173,6844.9335696999915,None,1.8188101002015173,6846.783233900089,None,6847.297141100047,None,6847.297141100047,None,f,1.335105099948123,6847.297141100047,None,1.335105099948123,,,Sing 60,001,2022_Oct_11_1422,ProdSingRedoBetween,2021.2.3,59.92448316333763,
,,,,98,0,98,0,,,,,,,,,,,,,,,,,,,,,,6854.440382500179,None,,,,,,,,,,,,,,,,,breath,46,99,sing,old,blue,6849.158752800198,None,6849.158752800198,None,1,3.5136198000982404,6849.158752800198,None,3.5136198000982404,6852.705615000101,None,6853.222577700159,None,6853.222577700159,None,f,1.1940295998938382,6853.222577700159,None,1.1940295998938382,,,Sing 60,001,2022_Oct_11_1422,ProdSingRedoBetween,2021.2.3,59.92448316333763,
,,,,99,0,99,0,,,,,,,,,,,,,,,,,,,,,,6861.277821500087,None,,,,,,,,,,,,,,,,,public,31,100,sing,old,blue,6854.955455600051,None,6854.955455600051,None,5,4.940951999975368,6854.955455600051,None,4.940951999975368,6859.9264889000915,None,6860.432742100209,None,6860.432742100209,None,r,0.8155133000109345,6860.432742100209,None,0.8155133000109345,,,Sing 60,001,2022_Oct_11_1422,ProdSingRedoBetween,2021.2.3,59.92448316333763,
,,,,100,0,100,0,,,,,,,,,,,,,,,,,,,,,,6866.833211300196,None,,,,,,,,,,,,,,,,,skill,101,101,sing,new,null,6861.7938440002035,None,6861.7938440002035,None,2,3.6626226000953466,6861.7938440002035,None,3.6626226000953466,6865.483608100098,None,6865.999354900094,None,6865.999354900094,None,f,0.8169655001256615,6865.999354900094,None,0.8169655001256615,,,Sing 60,001,2022_Oct_11_1422,ProdSingRedoBetween,2021.2.3,59.92448316333763,
,,,,101,0,101,0,,,,,,,,,,,,,,,,,,,,,,6874.924540000036,None,,,,,,,,,,,,,,,,,power,141,102,sing,new,null,6867.343940100167,None,6867.343940100167,None,2,5.47265850007534,6867.343940100167,None,5.47265850007534,6872.845124799991,None,6873.356608600123,None,6873.356608600123,None,f,1.5397864999249578,6873.356608600123,None,1.5397864999249578,,,Sing 60,001,2022_Oct_11_1422,ProdSingRedoBetween,2021.2.3,59.92448316333763,
,,,,102,0,102,0,,,,,,,,,,,,,,,,,,,,,,6878.127986300038,None,,,,,,,,,,,,,,,,,music,45,103,sing,old,blue,6875.429697500076,None,6875.429697500076,None,6,1.8906078999862075,6875.429697500076,None,1.8906078999862075,6877.346066300059,None,6877.860990700079,None,6877.860990700079,None,r,0.24330430012196302,6877.860990700079,None,0.24330430012196302,,,Sing 60,001,2022_Oct_11_1422,ProdSingRedoBetween,2021.2.3,59.92448316333763,
,,,,103,0,103,0,,,,,,,,,,,,,,,,,,,,,,6888.15461460012,None,,,,,,,,,,,,,,,,,crowd,154,104,sing,new,null,6878.63633550005,None,6878.63633550005,None,3,4.779915899969637,6878.63633550005,None,4.779915899969637,6883.43640630017,None,6883.954670300009,None,6883.954670300009,None,f,4.173510600114241,6883.954670300009,None,4.173510600114241,,,Sing 60,001,2022_Oct_11_1422,ProdSingRedoBetween,2021.2.3,59.92448316333763,
,,,,104,0,104,0,,,,,,,,,,,,,,,,,,,,,,6891.391143599991,None,,,,,,,,,,,,,,,,,taste,147,105,sing,new,null,6888.65498940018,None,6888.65498940018,None,1,1.6012531998567283,6888.65498940018,None,1.6012531998567283,6890.275044900132,None,6890.78083640011,None,6890.78083640011,None,f,0.5794339999556541,6890.78083640011,None,0.5794339999556541,,,Sing 60,001,2022_Oct_11_1422,ProdSingRedoBetween,2021.2.3,59.92448316333763,
,,,,105,0,105,0,,,,,,,,,,,,,,,,,,,,,,6894.04386450001,None,,,,,,,,,,,,,,,,,charter,26,106,sing,old,yellow,6891.899578000186,None,6891.899578000186,None,6,1.4446561001241207,6891.899578000186,None,1.4446561001241207,6893.35959300003,None,6893.860225300072,None,6893.860225300072,None,r,0.15600750013254583,6893.860225300072,None,0.15600750013254583,,,Sing 60,001,2022_Oct_11_1422,ProdSingRedoBetween,2021.2.3,59.92448316333763,
,,,,106,0,106,0,,,,,,,,,,,,,,,,,,,,,,6903.219690600177,None,,,,,,,,,,,,,,,,,vision,149,107,sing,new,null,6894.554236400174,None,6894.554236400174,None,3,6.925918200053275,6894.554236400174,None,6.925918200053275,6901.50128470012,None,6902.00213220017,None,6902.00213220017,None,f,1.1981154000386596,6902.00213220017,None,1.1981154000386596,,,Sing 60,001,2022_Oct_11_1422,ProdSingRedoBetween,2021.2.3,59.92448316333763,
,,,,107,0,107,0,,,,,,,,,,,,,,,,,,,,,,6905.772253100062,None,,,,,,,,,,,,,,,,,question,32,108,sing,old,blue,6903.722713000141,None,6903.722713000141,None,6,1.0775405000895262,6903.722713000141,None,1.0775405000895262,6904.825294300215,None,6905.338524700142,None,6905.338524700142,None,r,0.4137323999311775,6905.338524700142,None,0.4137323999311775,,,Sing 60,001,2022_Oct_11_1422,ProdSingRedoBetween,2021.2.3,59.92448316333763,
,,,,108,0,108,0,,,,,,,,,,,,,,,,,,,,,,6908.393046900164,None,,,,,,,,,,,,,,,,,travel,3,109,sing,old,yellow,6906.28316630004,None,6906.28316630004,None,6,1.1811496999580413,6906.28316630004,None,1.1811496999580413,6907.491383400047,None,6907.996871500043,None,6907.996871500043,None,r,0.36345609999261796,6907.996871500043,None,0.36345609999261796,,,Sing 60,001,2022_Oct_11_1422,ProdSingRedoBetween,2021.2.3,59.92448316333763,
,,,,109,0,109,0,,,,,,,,,,,,,,,,,,,,,,6913.563287300058,None,,,,,,,,,,,,,,,,,beginning,172,110,sing,new,null,6908.90891730017,None,6908.90891730017,None,2,3.0913265000563115,6908.90891730017,None,3.0913265000563115,6912.0302852999885,None,6912.545770500088,None,6912.545770500088,None,f,0.9985958999022841,6912.545770500088,None,0.9985958999022841,,,Sing 60,001,2022_Oct_11_1422,ProdSingRedoBetween,2021.2.3,59.92448316333763,
,,,,110,0,110,0,,,,,,,,,,,,,,,,,,,,,,6917.56732250005,None,,,,,,,,,,,,,,,,,prime,83,111,sing,old,red,6914.081343400059,None,6914.081343400059,None,6,2.6707405999768525,6914.081343400059,None,2.6707405999768525,6916.784267200157,None,6917.283833499998,None,6917.283833499998,None,r,0.25236300006508827,6917.283833499998,None,0.25236300006508827,,,Sing 60,001,2022_Oct_11_1422,ProdSingRedoBetween,2021.2.3,59.92448316333763,
,,,,111,0,111,0,,,,,,,,,,,,,,,,,,,,,,6921.721487400122,None,,,,,,,,,,,,,,,,,point,97,112,sing,new,null,6918.076038000174,None,6918.076038000174,None,1,1.932251000078395,6918.076038000174,None,1.932251000078395,6920.040771700209,None,6920.5536824001465,None,6920.5536824001465,None,f,1.1504819998517632,6920.5536824001465,None,1.1504819998517632,,,Sing 60,001,2022_Oct_11_1422,ProdSingRedoBetween,2021.2.3,59.92448316333763,
,,,,112,0,112,0,,,,,,,,,,,,,,,,,,,,,,6924.909833900165,None,,,,,,,,,,,,,,,,,provision,17,113,sing,old,yellow,6922.229794600047,None,6922.229794600047,None,1,1.6584779000841081,6922.229794600047,None,1.6584779000841081,6923.915605900111,None,6924.431394800078,None,6924.431394800078,None,f,0.4568654999602586,6924.431394800078,None,0.4568654999602586,,,Sing 60,001,2022_Oct_11_1422,ProdSingRedoBetween,2021.2.3,59.92448316333763,
,,,,113,0,113,0,,,,,,,,,,,,,,,,,,,,,,6927.753277900163,None,,,,,,,,,,,,,,,,,medicine,57,114,sing,old,blue,6925.425758700119,None,6925.425758700119,None,6,1.462461199844256,6925.425758700119,None,1.462461199844256,6926.909716300201,None,6927.410717100138,None,6927.410717100138,None,r,0.31755109992809594,6927.410717100138,None,0.31755109992809594,,,Sing 60,001,2022_Oct_11_1422,ProdSingRedoBetween,2021.2.3,59.92448316333763,
,,,,114,0,114,0,,,,,,,,,,,,,,,,,,,,,,6933.049379600212,None,,,,,,,,,,,,,,,,,interview,117,115,sing,new,null,6928.270065500168,None,6928.270065500168,None,2,3.1381711999420077,6928.270065500168,None,3.1381711999420077,6931.433439300163,None,6931.954408799997,None,6931.954408799997,None,f,1.0777484001591802,6931.954408799997,None,1.0777484001591802,,,Sing 60,001,2022_Oct_11_1422,ProdSingRedoBetween,2021.2.3,59.92448316333763,
,,,,115,0,115,0,,,,,,,,,,,,,,,,,,,,,,6939.522485000081,None,,,,,,,,,,,,,,,,,narrow,68,116,sing,old,red,6933.552813200047,None,6933.552813200047,None,4,4.063457200070843,6933.552813200047,None,4.063457200070843,6937.64409950003,None,6938.15457270015,None,6938.15457270015,None,r,1.3496199999935925,6938.15457270015,None,1.3496199999935925,,,Sing 60,001,2022_Oct_11_1422,ProdSingRedoBetween,2021.2.3,59.92448316333763,
,,,,116,0,116,0,,,,,,,,,,,,,,,,,,,,,,6946.9798646001145,None,,,,,,,,,,,,,,,,,design,159,117,sing,new,null,6940.026175200008,None,6940.026175200008,None,4,5.40618190006353,6940.026175200008,None,5.40618190006353,6945.466625000117,None,6945.979049100075,None,6945.979049100075,None,r,0.973206700058654,6945.979049100075,None,0.973206700058654,,,Sing 60,001,2022_Oct_11_1422,ProdSingRedoBetween,2021.2.3,59.92448316333763,
,,,,117,0,117,0,,,,,,,,,,,,,,,,,,,,,,6955.521791100036,None,,,,,,,,,,,,,,,,,center,66,118,sing,old,red,6947.497351700207,None,6947.497351700207,None,1,5.686838899971917,6947.497351700207,None,5.686838899971917,6953.20869190013,None,6953.719906000188,None,6953.719906000188,None,f,1.7841809999663383,6953.719906000188,None,1.7841809999663383,,,Sing 60,001,2022_Oct_11_1422,ProdSingRedoBetween,2021.2.3,59.92448316333763,
,,,,118,0,118,0,,,,,,,,,,,,,,,,,,,,,,6960.961247800151,None,,,,,,,,,,,,,,,,,track,125,119,sing,new,null,6956.031800300116,None,6956.031800300116,None,1,2.98426720011048,6956.031800300116,None,2.98426720011048,6959.049737000139,None,6959.55901330011,None,6959.55901330011,None,f,1.377133799949661,6959.55901330011,None,1.377133799949661,,,Sing 60,001,2022_Oct_11_1422,ProdSingRedoBetween,2021.2.3,59.92448316333763,
,,,,119,0,119,0,,,,,,,,,,,,,,,,,,,,,,6967.04995190003,None,,,,,,,,,,,,,,,,,solution,98,120,sing,new,null,6961.464146200102,None,6961.464146200102,None,3,3.8960744000505656,6961.464146200102,None,3.8960744000505656,6965.3860333000775,None,6965.899377200054,None,6965.899377200054,None,r,1.1327506999950856,6965.899377200054,None,1.1327506999950856,,,Sing 60,001,2022_Oct_11_1422,ProdSingRedoBetween,2021.2.3,59.92448316333763,
,,,,120,0,120,0,,,,,,,,,,,,,,,,,,,,,,6971.3574619002175,None,,,,,,,,,,,,,,,,,series,27,121,sing,old,yellow,6967.557794400025,None,6967.557794400025,None,4,2.9382223000284284,6967.557794400025,None,2.9382223000284284,6970.524555600015,None,6971.039452100173,None,6971.039452100173,None,r,0.2888245000503957,6971.039452100173,None,0.2888245000503957,,,Sing 60,001,2022_Oct_11_1422,ProdSingRedoBetween,2021.2.3,59.92448316333763,
,,,,121,0,121,0,,,,,,,,,,,,,,,,,,,,,,6973.973591500195,None,,,,,,,,,,,,,,,,,degree,42,122,sing,old,blue,6971.875652000075,None,6971.875652000075,None,6,1.1564894001930952,6971.875652000075,None,1.1564894001930952,6973.058522900101,None,6973.574337700149,None,6973.574337700149,None,r,0.3699231999926269,6973.574337700149,None,0.3699231999926269,,,Sing 60,001,2022_Oct_11_1422,ProdSingRedoBetween,2021.2.3,59.92448316333763,
,,,,122,0,122,0,,,,,,,,,,,,,,,,,,,,,,6979.245445900131,None,,,,,,,,,,,,,,,,,fellow,21,123,sing,old,yellow,6974.473926300183,None,6974.473926300183,None,2,3.5101539997849613,6974.473926300183,None,3.5101539997849613,6978.010881500086,None,6978.518423500005,None,6978.518423500005,None,f,0.7057052999734879,6978.518423500005,None,0.7057052999734879,,,Sing 60,001,2022_Oct_11_1422,ProdSingRedoBetween,2021.2.3,59.92448316333763,
,,,,123,0,123,0,,,,,,,,,,,,,,,,,,,,,,6986.352540800115,None,,,,,,,,,,,,,,,,,suggestion,173,124,sing,new,null,6979.755013100104,None,6979.755013100104,None,1,5.597118299920112,6979.755013100104,None,5.597118299920112,6985.371410900028,None,6985.885485500097,None,6985.885485500097,None,f,0.44262590003199875,6985.885485500097,None,0.44262590003199875,,,Sing 60,001,2022_Oct_11_1422,ProdSingRedoBetween,2021.2.3,59.92448316333763,
,,,,124,0,124,0,,,,,,,,,,,,,,,,,,,,,,6989.572439900134,None,,,,,,,,,,,,,,,,,portion,91,125,sing,new,null,6986.856118700001,None,6986.856118700001,None,1,1.488062100019306,6986.856118700001,None,1.488062100019306,6988.3733173999935,None,6988.888515600003,None,6988.888515600003,None,f,0.6636961998883635,6988.888515600003,None,0.6636961998883635,,,Sing 60,001,2022_Oct_11_1422,ProdSingRedoBetween,2021.2.3,59.92448316333763,
,,,,125,0,125,0,,,,,,,,,,,,,,,,,,,,,,6993.993536600145,None,,,,,,,,,,,,,,,,,length,135,126,sing,new,null,6990.079761900008,None,6990.079761900008,None,1,2.4883877001702785,6990.079761900008,None,2.4883877001702785,6992.597923099995,None,6993.109429500066,None,6993.109429500066,None,f,0.8586814999580383,6993.109429500066,None,0.8586814999580383,,,Sing 60,001,2022_Oct_11_1422,ProdSingRedoBetween,2021.2.3,59.92448316333763,
,,,,126,0,126,0,,,,,,,,,,,,,,,,,,,,,,7001.117349500069,None,,,,,,,,,,,,,,,,,motion,76,127,sing,old,red,6994.50263670017,None,6994.50263670017,None,4,3.1695946000982076,6994.50263670017,None,3.1695946000982076,6997.69702349999,None,6998.197822100017,None,6998.197822100017,None,r,2.8901370000094175,6998.197822100017,None,2.8901370000094175,,,Sing 60,001,2022_Oct_11_1422,ProdSingRedoBetween,2021.2.3,59.92448316333763,
,,,,127,0,127,0,,,,,,,,,,,,,,,,,,,,,,7006.63952470012,None,,,,,,,,,,,,,,,,,discovery,152,128,sing,new,null,7001.625355600147,None,7001.625355600147,None,5,2.7907183000352234,7001.625355600147,None,2.7907183000352234,7004.441586800152,None,7004.954336600145,None,7004.954336600145,None,r,1.6697279999498278,7004.954336600145,None,1.6697279999498278,,,Sing 60,001,2022_Oct_11_1422,ProdSingRedoBetween,2021.2.3,59.92448316333763,
,,,,128,0,128,0,,,,,,,,,,,,,,,,,,,,,,7010.760337600019,None,,,,,,,,,,,,,,,,,weight,36,129,sing,old,blue,7007.150371000171,None,7007.150371000171,None,6,2.729712500004098,7007.150371000171,None,2.729712500004098,7009.91034130007,None,7010.415400600061,None,7010.415400600061,None,r,0.32070449995808303,7010.415400600061,None,0.32070449995808303,,,Sing 60,001,2022_Oct_11_1422,ProdSingRedoBetween,2021.2.3,59.92448316333763,
,,,,129,0,129,0,,,,,,,,,,,,,,,,,,,,,,7015.131101000123,None,,,,,,,,,,,,,,,,,foundation,50,130,sing,old,blue,7011.276432000101,None,7011.276432000101,None,6,2.891681599896401,7011.276432000101,None,2.891681599896401,7014.197663000086,None,7014.697783100186,None,7014.697783100186,None,r,0.40629440010525286,7014.697783100186,None,0.40629440010525286,,,Sing 60,001,2022_Oct_11_1422,ProdSingRedoBetween,2021.2.3,59.92448316333763,
,,,,130,0,130,0,,,,,,,,,,,,,,,,,,,,,,7019.719061100157,None,,,,,,,,,,,,,,,,,answer,65,131,sing,old,red,7015.648119700141,None,7015.648119700141,None,5,2.368025899864733,7015.648119700141,None,2.368025899864733,7018.039459800115,None,7018.55139430007,None,7018.55139430007,None,r,1.1446684000547975,7018.55139430007,None,1.1446684000547975,,,Sing 60,001,2022_Oct_11_1422,ProdSingRedoBetween,2021.2.3,59.92448316333763,
,,,,131,0,131,0,,,,,,,,,,,,,,,,,,,,,,7022.288380100159,None,,,,,,,,,,,,,,,,,rural,67,132,sing,old,red,7020.226452400209,None,7020.226452400209,None,6,1.253498800098896,7020.226452400209,None,1.253498800098896,7021.5102081000805,None,7022.021336300066,None,7022.021336300066,None,r,0.2506392002105713,7022.021336300066,None,0.2506392002105713,,,Sing 60,001,2022_Oct_11_1422,ProdSingRedoBetween,2021.2.3,59.92448316333763,
,,,,132,0,132,0,,,,,,,,,,,,,,,,,,,,,,7025.6081503999885,None,,,,,,,,,,,,,,,,,nature,80,133,sing,old,red,7022.797482500086,None,7022.797482500086,None,6,1.8025529999285936,7022.797482500086,None,1.8025529999285936,7024.623813900165,None,7025.1246598002035,None,7025.1246598002035,None,r,0.4594539001118392,7025.1246598002035,None,0.4594539001118392,,,Sing 60,001,2022_Oct_11_1422,ProdSingRedoBetween,2021.2.3,59.92448316333763,
,,,,133,0,133,0,,,,,,,,,,,,,,,,,,,,,,7029.0451371001545,None,,,,,,,,,,,,,,,,,death,142,134,sing,new,null,7026.110480100149,None,7026.110480100149,None,1,1.8656291000079364,7026.110480100149,None,1.8656291000079364,7028.001383900177,None,7028.514977000188,None,7028.514977000188,None,f,0.5091033999342471,7028.514977000188,None,0.5091033999342471,,,Sing 60,001,2022_Oct_11_1422,ProdSingRedoBetween,2021.2.3,59.92448316333763,
,,,,134,0,134,0,,,,,,,,,,,,,,,,,,,,,,7036.723714900203,None,,,,,,,,,,,,,,,,,youth,16,135,sing,old,yellow,7029.553016600199,None,7029.553016600199,None,4,5.4551482000388205,7029.553016600199,None,5.4551482000388205,7035.034765900113,None,7035.543606100138,None,7035.543606100138,None,r,1.1525225997902453,7035.543606100138,None,1.1525225997902453,,,Sing 60,001,2022_Oct_11_1422,ProdSingRedoBetween,2021.2.3,59.92448316333763,
,,,,135,0,135,0,,,,,,,,,,,,,,,,,,,,,,7042.8097159001045,None,,,,,,,,,,,,,,,,,season,34,136,sing,old,blue,7037.242907200009,None,7037.242907200009,None,4,4.188985399901867,7037.242907200009,None,4.188985399901867,7041.468035400147,None,7041.9865187001415,None,7041.9865187001415,None,r,0.7974855999927968,7041.9865187001415,None,0.7974855999927968,,,Sing 60,001,2022_Oct_11_1422,ProdSingRedoBetween,2021.2.3,59.92448316333763,
,,,,136,0,136,0,,,,,,,,,,,,,,,,,,,,,,7050.549965300132,None,,,,,,,,,,,,,,,,,tragedy,51,137,sing,old,blue,7043.315161100123,None,7043.315161100123,None,2,5.956740000052378,7043.315161100123,None,5.956740000052378,7049.300174800213,None,7049.816231500125,None,7049.816231500125,None,f,0.7037217000033706,7049.816231500125,None,0.7037217000033706,,,Sing 60,001,2022_Oct_11_1422,ProdSingRedoBetween,2021.2.3,59.92448316333763,
,,,,137,0,137,0,,,,,,,,,,,,,,,,,,,,,,7053.519591700053,None,,,,,,,,,,,,,,,,,month,164,138,sing,new,null,7051.0578513999935,None,7051.0578513999935,None,1,1.6141252999659628,7051.0578513999935,None,1.6141252999659628,7052.702125500189,None,7053.204581600148,None,7053.204581600148,None,f,0.2994705999735743,7053.204581600148,None,0.2994705999735743,,,Sing 60,001,2022_Oct_11_1422,ProdSingRedoBetween,2021.2.3,59.92448316333763,
,,,,138,0,138,0,,,,,,,,,,,,,,,,,,,,,,7056.238910200074,None,,,,,,,,,,,,,,,,,reach,128,139,sing,new,null,7054.027140500024,None,7054.027140500024,None,1,1.4612634000368416,7054.027140500024,None,1.4612634000368416,7055.511002600193,None,7056.022207600065,None,7056.022207600065,None,f,0.18576450017280877,7056.022207600065,None,0.18576450017280877,,,Sing 60,001,2022_Oct_11_1422,ProdSingRedoBetween,2021.2.3,59.92448316333763,
,,,,139,0,139,0,,,,,,,,,,,,,,,,,,,,,,7061.34399720002,None,,,,,,,,,,,,,,,,,population,151,140,sing,new,null,7056.743208200205,None,7056.743208200205,None,1,3.8809706999454647,7056.743208200205,None,3.8809706999454647,7060.64807710005,None,7061.167666700203,None,7061.167666700203,None,f,0.15233840001747012,7061.167666700203,None,0.15233840001747012,,,Sing 60,001,2022_Oct_11_1422,ProdSingRedoBetween,2021.2.3,59.92448316333763,
,,,,140,0,140,0,,,,,,,,,,,,,,,,,,,,,,7063.696388600161,None,,,,,,,,,,,,,,,,,history,88,141,sing,old,red,7061.855219300138,None,7061.855219300138,None,6,1.2807356000412256,7061.855219300138,None,1.2807356000412256,7063.163955600001,None,7063.667161500081,None,7063.667161500081,None,r,0.012778899865224957,7063.667161500081,None,0.012778899865224957,,,Sing 60,001,2022_Oct_11_1422,ProdSingRedoBetween,2021.2.3,59.92448316333763,
,,,,141,0,141,0,,,,,,,,,,,,,,,,,,,,,,7068.10410220013,None,,,,,,,,,,,,,,,,,error,70,142,sing,old,red,7064.198706700001,None,7064.198706700001,None,1,3.1292694001458585,7064.198706700001,None,3.1292694001458585,7067.349752300186,None,7067.850564600201,None,7067.850564600201,None,f,0.22966539999470115,7067.850564600201,None,0.22966539999470115,,,Sing 60,001,2022_Oct_11_1422,ProdSingRedoBetween,2021.2.3,59.92448316333763,
,,,,142,0,142,0,,,,,,,,,,,,,,,,,,,,,,7073.923204699997,None,,,,,,,,,,,,,,,,,burden,35,143,sing,old,blue,7068.618002000032,None,7068.618002000032,None,4,2.4859947999939322,7068.618002000032,None,2.4859947999939322,7071.120449000038,None,7071.626443700166,None,7071.626443700166,None,r,2.277553299907595,7071.626443700166,None,2.277553299907595,,,Sing 60,001,2022_Oct_11_1422,ProdSingRedoBetween,2021.2.3,59.92448316333763,
,,,,143,0,143,0,,,,,,,,,,,,,,,,,,,,,,7078.828093100106,None,,,,,,,,,,,,,,,,,phrase,6,144,sing,old,yellow,7074.433418300003,None,7074.433418300003,None,1,2.3426542000379413,7074.433418300003,None,2.3426542000379413,7076.799267200055,None,7077.313225900056,None,7077.313225900056,None,f,1.4947095999959856,7077.313225900056,None,1.4947095999959856,,,Sing 60,001,2022_Oct_11_1422,ProdSingRedoBetween,2021.2.3,59.92448316333763,
,,,,144,0,144,0,,,,,,,,,,,,,,,,,,,,,,7085.050928800134,None,,,,,,,,,,,,,,,,,break,124,145,sing,new,null,7079.329711600207,None,7079.329711600207,None,2,4.42211650009267,7079.329711600207,None,4.42211650009267,7083.7959588000085,None,7084.300415500067,None,7084.300415500067,None,f,0.7316207999829203,7084.300415500067,None,0.7316207999829203,,,Sing 60,001,2022_Oct_11_1422,ProdSingRedoBetween,2021.2.3,59.92448316333763,
,,,,145,0,145,0,,,,,,,,,,,,,,,,,,,,,,7088.404300700175,None,,,,,,,,,,,,,,,,,guide,168,146,sing,new,null,7085.561407700181,None,7085.561407700181,None,1,1.8226687998976558,7085.561407700181,None,1.8226687998976558,7087.410429700045,None,7087.920729800127,None,7087.920729800127,None,f,0.4552655001170933,7087.920729800127,None,0.4552655001170933,,,Sing 60,001,2022_Oct_11_1422,ProdSingRedoBetween,2021.2.3,59.92448316333763,
,,,,146,0,146,0,,,,,,,,,,,,,,,,,,,,,,7099.699031900149,None,,,,,,,,,,,,,,,,,industry,64,147,sing,old,red,7088.91533190012,None,7088.91533190012,None,5,8.356461599934846,7088.91533190012,None,8.356461599934846,7097.301399199991,None,7097.813921800116,None,7097.813921800116,None,r,1.85800929996185,7097.813921800116,None,1.85800929996185,,,Sing 60,001,2022_Oct_11_1422,ProdSingRedoBetween,2021.2.3,59.92448316333763,
,,,,147,0,147,0,,,,,,,,,,,,,,,,,,,,,,7104.171165700071,None,,,,,,,,,,,,,,,,,candidate,79,148,sing,old,red,7100.200886000181,None,7100.200886000181,None,5,3.0552436001598835,7100.200886000181,None,3.0552436001598835,7103.294692900032,None,7103.805183200166,None,7103.805183200166,None,r,0.34676830004900694,7103.805183200166,None,0.34676830004900694,,,Sing 60,001,2022_Oct_11_1422,ProdSingRedoBetween,2021.2.3,59.92448316333763,
,,,,148,0,148,0,,,,,,,,,,,,,,,,,,,,,,7111.710697600152,None,,,,,,,,,,,,,,,,,drama,44,149,sing,old,blue,7104.671922200127,None,7104.671922200127,None,4,6.071911100065336,7104.671922200127,None,6.071911100065336,7110.762666600058,None,7111.277849300066,None,7111.277849300066,None,r,0.418117200024426,7111.277849300066,None,0.418117200024426,,,Sing 60,001,2022_Oct_11_1422,ProdSingRedoBetween,2021.2.3,59.92448316333763,
,,,,149,0,149,0,,,,,,,,,,,,,,,,,,,,,,7114.163489000173,None,,,,,,,,,,,,,,,,,welcome,82,150,sing,old,red,7112.221653300105,None,7112.221653300105,None,6,1.3142369999550283,7112.221653300105,None,1.3142369999550283,7113.565816400107,None,7114.0893308001105,None,7114.0893308001105,None,r,0.04684840003028512,7114.0893308001105,None,0.04684840003028512,,,Sing 60,001,2022_Oct_11_1422,ProdSingRedoBetween,2021.2.3,59.92448316333763,
,,,,150,0,150,0,,,,,,,,,,,,,,,,,,,,,,7117.7836513000075,None,,,,,,,,,,,,,,,,,symbol,54,151,sing,old,blue,7114.666873100214,None,7114.666873100214,None,6,1.1650694999843836,7114.666873100214,None,1.1650694999843836,7115.8482532000635,None,7116.349109700182,None,7116.349109700182,None,r,1.4187730001285672,7116.349109700182,None,1.4187730001285672,,,Sing 60,001,2022_Oct_11_1422,ProdSingRedoBetween,2021.2.3,59.92448316333763,
,,,,151,0,151,0,,,,,,,,,,,,,,,,,,,,,,7121.587185000069,None,,,,,,,,,,,,,,,,,sunset,37,152,sing,old,blue,7118.299833000172,None,7118.299833000172,None,1,1.6440515001304448,7118.299833000172,None,1.6440515001304448,7119.974170600064,None,7120.48654250009,None,7120.48654250009,None,f,1.0732771002221853,7120.48654250009,None,1.0732771002221853,,,Sing 60,001,2022_Oct_11_1422,ProdSingRedoBetween,2021.2.3,59.92448316333763,
,,,,152,0,152,0,,,,,,,,,,,,,,,,,,,,,,7125.641428000061,None,,,,,,,,,,,,,,,,,throw,99,153,sing,new,null,7122.089987200219,None,7122.089987200219,None,1,2.5020408001728356,7122.089987200219,None,2.5020408001728356,7124.60855340003,None,7125.1156370001845,None,7125.1156370001845,None,f,0.5002040001563728,7125.1156370001845,None,0.5002040001563728,,,Sing 60,001,2022_Oct_11_1422,ProdSingRedoBetween,2021.2.3,59.92448316333763,
,,,,153,0,153,0,,,,,,,,,,,,,,,,,,,,,,7130.529671700206,None,,,,,,,,,,,,,,,,,piece,160,154,sing,new,null,7126.148422100116,None,7126.148422100116,None,1,2.467594899935648,7126.148422100116,None,2.467594899935648,7128.660838300129,None,7129.1644623000175,None,7129.1644623000175,None,f,1.339513799874112,7129.1644623000175,None,1.339513799874112,,,Sing 60,001,2022_Oct_11_1422,ProdSingRedoBetween,2021.2.3,59.92448316333763,
,,,,154,0,154,0,,,,,,,,,,,,,,,,,,,,,,7134.034180300077,None,,,,,,,,,,,,,,,,,straight,175,155,sing,new,null,7131.03563090018,None,7131.03563090018,None,1,2.0682027000002563,7131.03563090018,None,2.0682027000002563,7133.133263300173,None,7133.638004500186,None,7133.638004500186,None,f,0.3698335001245141,7133.638004500186,None,0.3698335001245141,,,Sing 60,001,2022_Oct_11_1422,ProdSingRedoBetween,2021.2.3,59.92448316333763,
,,,,155,0,155,0,,,,,,,,,,,,,,,,,,,,,,7137.489075500052,None,,,,,,,,,,,,,,,,,command,138,156,sing,new,null,7134.545825400157,None,7134.545825400157,None,1,1.942243400029838,7134.545825400157,None,1.942243400029838,7136.522043700097,None,7137.036295100115,None,7137.036295100115,None,f,0.4195914000738412,7137.036295100115,None,0.4195914000738412,,,Sing 60,001,2022_Oct_11_1422,ProdSingRedoBetween,2021.2.3,59.92448316333763,
,,,,156,0,156,0,,,,,,,,,,,,,,,,,,,,,,7139.972383500077,None,,,,,,,,,,,,,,,,,division,145,157,sing,new,null,7138.012040600181,None,7138.012040600181,None,6,1.2116735999006778,7138.012040600181,None,1.2116735999006778,7139.254990400048,None,7139.75594380009,None,7139.75594380009,None,r,0.1879878998734057,7139.75594380009,None,0.1879878998734057,,,Sing 60,001,2022_Oct_11_1422,ProdSingRedoBetween,2021.2.3,59.92448316333763,
,,,,157,0,157,0,,,,,,,,,,,,,,,,,,,,,,7142.542604900198,None,,,,,,,,,,,,,,,,,addition,14,158,sing,old,yellow,7140.477700500051,None,7140.477700500051,None,6,1.3142339999321848,7140.477700500051,None,1.3142339999321848,7141.824265300063,None,7142.329000300029,None,7142.329000300029,None,r,0.18293480016291142,7142.329000300029,None,0.18293480016291142,,,Sing 60,001,2022_Oct_11_1422,ProdSingRedoBetween,2021.2.3,59.92448316333763,
,,,,158,0,158,0,,,,,,,,,,,,,,,,,,,,,,7147.730282500153,None,,,,,,,,,,,,,,,,,group,158,159,sing,new,null,7143.051383600105,None,7143.051383600105,None,4,3.412482100073248,7143.051383600105,None,3.412482100073248,7146.48227090016,None,7146.996271400014,None,7146.996271400014,None,r,0.7074667999986559,7146.996271400014,None,0.7074667999986559,,,Sing 60,001,2022_Oct_11_1422,ProdSingRedoBetween,2021.2.3,59.92448316333763,
,,,,159,0,159,0,,,,,,,,,,,,,,,,,,,,,,7150.6330091001,None,,,,,,,,,,,,,,,,,majority,120,160,sing,new,null,7148.244941600133,None,7148.244941600133,None,1,1.4667717998381704,7148.244941600133,None,1.4667717998381704,7149.73369540018,None,7150.238325700164,None,7150.238325700164,None,f,0.37748840008862317,7150.238325700164,None,0.37748840008862317,,,Sing 60,001,2022_Oct_11_1422,ProdSingRedoBetween,2021.2.3,59.92448316333763,
,,,,160,0,160,0,,,,,,,,,,,,,,,,,,,,,,7156.8893798000645,None,,,,,,,,,,,,,,,,,report,157,161,sing,new,null,7151.1372970000375,None,7151.1372970000375,None,5,4.646559299901128,7151.1372970000375,None,4.646559299901128,7155.810515500139,None,7156.324613000033,None,7156.324613000033,None,r,0.5472099999897182,7156.324613000033,None,0.5472099999897182,,,Sing 60,001,2022_Oct_11_1422,ProdSingRedoBetween,2021.2.3,59.92448316333763,
,,,,161,0,161,0,,,,,,,,,,,,,,,,,,,,,,7160.709805699997,None,,,,,,,,,,,,,,,,,account,127,162,sing,new,null,7157.398955600103,None,7157.398955600103,None,1,1.6008818000555038,7157.398955600103,None,1.6008818000555038,7159.0301094001625,None,7159.543949800078,None,7159.543949800078,None,f,1.143873600056395,7159.543949800078,None,1.143873600056395,,,Sing 60,001,2022_Oct_11_1422,ProdSingRedoBetween,2021.2.3,59.92448316333763,
,,,,162,0,162,0,,,,,,,,,,,,,,,,,,,,,,7168.269348400179,None,,,,,,,,,,,,,,,,,audience,161,163,sing,new,null,7161.218146300176,None,7161.218146300176,None,4,5.717718499945477,7161.218146300176,None,5.717718499945477,7166.972392800031,None,7167.48439290002,None,7167.48439290002,None,r,0.7634310000576079,7167.48439290002,None,0.7634310000576079,,,Sing 60,001,2022_Oct_11_1422,ProdSingRedoBetween,2021.2.3,59.92448316333763,
,,,,163,0,163,0,,,,,,,,,,,,,,,,,,,,,,7171.420440100133,None,,,,,,,,,,,,,,,,,pretty,144,164,sing,new,null,7168.7881070000585,None,7168.7881070000585,None,1,1.219618600094691,7168.7881070000585,None,1.219618600094691,7170.039548300207,None,7170.5606312002055,None,7170.5606312002055,None,f,0.8391776999924332,7170.5606312002055,None,0.8391776999924332,,,Sing 60,001,2022_Oct_11_1422,ProdSingRedoBetween,2021.2.3,59.92448316333763,
,,,,164,0,164,0,,,,,,,,,,,,,,,,,,,,,,7175.274249300128,None,,,,,,,,,,,,,,,,,quiet,87,165,sing,old,red,7171.9341496001,None,7171.9341496001,None,6,1.569677400169894,7171.9341496001,None,1.569677400169894,7173.523796200054,None,7174.026258400176,None,7174.026258400176,None,r,1.2294534998945892,7174.026258400176,None,1.2294534998945892,,,Sing 60,001,2022_Oct_11_1422,ProdSingRedoBetween,2021.2.3,59.92448316333763,
,,,,165,0,165,0,,,,,,,,,,,,,,,,,,,,,,7179.895512900082,None,,,,,,,,,,,,,,,,,meeting,20,166,sing,old,yellow,7175.780725600198,None,7175.780725600198,None,3,2.843273099977523,7175.780725600198,None,2.843273099977523,7178.650080300169,None,7179.162831200054,None,7179.162831200054,None,f,0.7171153998933733,7179.162831200054,None,0.7171153998933733,,,Sing 60,001,2022_Oct_11_1422,ProdSingRedoBetween,2021.2.3,59.92448316333763,
,,,,166,0,166,0,,,,,,,,,,,,,,,,,,,,,,7184.166612200206,None,,,,,,,,,,,,,,,,,commercial,95,167,sing,new,null,7180.401235300116,None,7180.401235300116,None,1,2.9345133998431265,7180.401235300116,None,2.9345133998431265,7183.3663339000195,None,7183.87018460012,None,7183.87018460012,None,f,0.26557260006666183,7183.87018460012,None,0.26557260006666183,,,Sing 60,001,2022_Oct_11_1422,ProdSingRedoBetween,2021.2.3,59.92448316333763,
,,,,167,0,167,0,,,,,,,,,,,,,,,,,,,,,,7188.673894800013,None,,,,,,,,,,,,,,,,,broke,103,168,sing,new,null,7184.684199600015,None,7184.684199600015,None,1,2.291531799826771,7184.684199600015,None,2.291531799826771,7187.003634600202,None,7187.512956900056,None,7187.512956900056,None,f,1.1348961000330746,7187.512956900056,None,1.1348961000330746,,,Sing 60,001,2022_Oct_11_1422,ProdSingRedoBetween,2021.2.3,59.92448316333763,
,,,,168,0,168,0,,,,,,,,,,,,,,,,,,,,,,7191.790753700072,None,,,,,,,,,,,,,,,,,mankind,110,169,sing,new,null,7189.19057430001,None,7189.19057430001,None,1,1.1851943000219762,7189.19057430001,None,1.1851943000219762,7190.408718200168,None,7190.927812300157,None,7190.927812300157,None,f,0.8320005000568926,7190.927812300157,None,0.8320005000568926,,,Sing 60,001,2022_Oct_11_1422,ProdSingRedoBetween,2021.2.3,59.92448316333763,
,,,,169,0,169,0,,,,,,,,,,,,,,,,,,,,,,7196.161786800018,None,,,,,,,,,,,,,,,,,measure,94,170,sing,new,null,7192.2942638001405,None,7192.2942638001405,None,4,2.3134866999462247,7192.2942638001405,None,2.3134866999462247,7194.62818,None,7195.131414700067,None,7195.131414700067,None,r,1.0122914998792112,7195.131414700067,None,1.0122914998792112,,,Sing 60,001,2022_Oct_11_1422,ProdSingRedoBetween,2021.2.3,59.92448316333763,
,,,,170,0,170,0,,,,,,,,,,,,,,,,,,,,,,7200.7033748000395,None,,,,,,,,,,,,,,,,,display,13,171,sing,old,yellow,7196.665037300205,None,7196.665037300205,None,1,2.8147114000748843,7196.665037300205,None,2.8147114000748843,7199.503429400036,None,7200.0157382001635,None,7200.0157382001635,None,f,0.656171000096947,7200.0157382001635,None,0.656171000096947,,,Sing 60,001,2022_Oct_11_1422,ProdSingRedoBetween,2021.2.3,59.92448316333763,
,,,,171,0,171,0,,,,,,,,,,,,,,,,,,,,,,7205.856134500122,None,,,,,,,,,,,,,,,,,pressure,19,172,sing,old,yellow,7201.228839399992,None,7201.228839399992,None,4,3.6431173998862505,7201.228839399992,None,3.6431173998862505,7204.899951900123,None,7205.411039500032,None,7205.411039500032,None,r,0.4287936999462545,7205.411039500032,None,0.4287936999462545,,,Sing 60,001,2022_Oct_11_1422,ProdSingRedoBetween,2021.2.3,59.92448316333763,
,,,,172,0,172,0,,,,,,,,,,,,,,,,,,,,,,7208.724293200066,None,,,,,,,,,,,,,,,,,bitter,121,173,sing,new,null,7206.359251100104,None,7206.359251100104,None,1,1.336416999809444,7206.359251100104,None,1.336416999809444,7207.723962800112,None,7208.223972200183,None,7208.223972200183,None,f,0.471709500066936,7208.223972200183,None,0.471709500066936,,,Sing 60,001,2022_Oct_11_1422,ProdSingRedoBetween,2021.2.3,59.92448316333763,
,,,,173,0,173,0,,,,,,,,,,,,,,,,,,,,,,7212.010835500201,None,,,,,,,,,,,,,,,,,quick,11,174,sing,old,yellow,7209.243430200033,None,7209.243430200033,None,4,1.6602897001430392,7209.243430200033,None,1.6602897001430392,7210.933806700166,None,7211.450761300046,None,7211.450761300046,None,r,0.5409427999984473,7211.450761300046,None,0.5409427999984473,,,Sing 60,001,2022_Oct_11_1422,ProdSingRedoBetween,2021.2.3,59.92448316333763,
,,,,174,0,174,0,,,,,,,,,,,,,,,,,,,,,,7214.963928300189,None,,,,,,,,,,,,,,,,,column,41,175,sing,old,blue,7212.51292810007,None,7212.51292810007,None,1,1.7748109002131969,7212.51292810007,None,1.7748109002131969,7214.31304080016,None,7214.817777300021,None,7214.817777300021,None,f,0.11794680007733405,7214.817777300021,None,0.11794680007733405,,,Sing 60,001,2022_Oct_11_1422,ProdSingRedoBetween,2021.2.3,59.92448316333763,
,,,,175,0,175,0,,,,,,,,,,,,,,,,,,,,,,7221.236778000137,None,,,,,,,,,,,,,,,,,write,62,176,sing,old,red,7215.4706479001325,None,7215.4706479001325,None,1,4.985030400101095,7215.4706479001325,None,4.985030400101095,7220.486713600112,None,7220.986732900143,None,7220.986732900143,None,f,0.22893869993276894,7220.986732900143,None,0.22893869993276894,,,Sing 60,001,2022_Oct_11_1422,ProdSingRedoBetween,2021.2.3,59.92448316333763,
,,,,176,0,176,0,,,,,,,,,,,,,,,,,,,,,,7225.841368000023,None,,,,,,,,,,,,,,,,,weather,7,177,sing,old,yellow,7221.746517100139,None,7221.746517100139,None,3,2.773163399891928,7221.746517100139,None,2.773163399891928,7224.543057600036,None,7225.057456700131,None,7225.057456700131,None,r,0.766368699958548,7225.057456700131,None,0.766368699958548,,,Sing 60,001,2022_Oct_11_1422,ProdSingRedoBetween,2021.2.3,59.92448316333763,
,,,,177,0,177,0,,,,,,,,,,,,,,,,,,,,,,7228.861119600013,None,,,,,,,,,,,,,,,,,department,171,178,sing,new,null,7226.358893100172,None,7226.358893100172,None,1,1.680798300076276,7226.358893100172,None,1.680798300076276,7228.060072300024,None,7228.560762500158,None,7228.560762500158,None,f,0.2709655000362545,7228.560762500158,None,0.2709655000362545,,,Sing 60,001,2022_Oct_11_1422,ProdSingRedoBetween,2021.2.3,59.92448316333763,
,,,,178,0,178,0,,,,,,,,,,,,,,,,,,,,,,7235.667923500063,None,,,,,,,,,,,,,,,,,nation,122,179,sing,new,null,7229.361627600156,None,7229.361627600156,None,1,4.822173100197688,7229.361627600156,None,4.822173100197688,7234.2093916002195,None,7234.717206600122,None,7234.717206600122,None,f,0.9305128001142293,7234.717206600122,None,0.9305128001142293,,,Sing 60,001,2022_Oct_11_1422,ProdSingRedoBetween,2021.2.3,59.92448316333763,
,,,,179,0,179,0,,,,,,,,,,,,,,,,,,,,,,7244.143025900004,None,,,,,,,,,,,,,,,,,expansion,38,180,sing,old,blue,7236.180702700047,None,7236.180702700047,None,1,5.370960500091314,7236.180702700047,None,5.370960500091314,7241.574942500098,None,7242.079328900203,None,7242.079328900203,None,f,2.0325070000253618,7242.079328900203,None,2.0325070000253618,,,Sing 60,001,2022_Oct_11_1422,ProdSingRedoBetween,2021.2.3,59.92448316333763,
